# PAMAP2 dataset (wrist-mounted sensor)

acc_x[mg],acc_y[mg],acc_z[mg]
-1164.5323,2922.8652,230.96669
-293.22348,1616.4608,92.107704
412.91476,883.22003,11.098053
701.7735,415.163,-18.211123
840.7992,347.07132,-42.426746
662.9027,477.69574,82.65979
579.05994,566.5278,110.79421
313.52567,818.2269,43.110233
199.72668,1914.578,-80.29685
-779.9876,4155.979,-187.38371
-1512.1598,3640.8381,-158.32968
-1537.9287,1925.2969,-60.850872
-1221.9022,692.90234,-33.34836
-1031.6427,32.53187,-31.467937
-811.73346,-357.77643,-159.22195
-813.61487,-676.88025,-140.62439
-791.6241,-521.24817,-110.71864
-931.16895,-309.50827,23.38717
-914.47314,-58.372456,-58.39106
-2154.0786,665.4722,28.055355
-3766.2163,4565.501,602.5994
-1681.8386,3607.729,309.0565
-208.00847,1505.2246,41.088547
497.29993,999.2729,-39.779415
820.67804,233.1883,-42.43037
813.16473,352.7388,-10.224884
734.50226,347.84686,-10.694494
623.24554,594.47485,32.008785
458.2405,841.0832,-26.996088
299.2719,1927.5262,-46.468884
-636.9865,3926.285,-166.77882
-1647.7972,3909.3252,-161.0222
-1422.1941,2058.0017,-13.809798
-1201.0023,1143.5667,3.6488798
-896.13696,188.28996,-33.3343
-863.6576,-115.684456,-116.54174
-769.66174,-519.53455,-103.73465
-863.15405,-462.86877,-24.603735
-729.7736,-491.26245,113.45837
-1046.0471,-137.75935,123.69074
-1110.9202,-212.51454,-68.47345
-3021.817,1906.6398,108.51473
-3148.749,5433.251,161.20905
-775.96277,2939.4749,53.939545
23.215511,1218.7106,-57.670753
593.017,517.20917,-107.78943
717.1733,136.7265,-116.46653
811.9688,383.36212,-96.69258
656.10986,417.35922,64.51692
613.7356,655.2516,90.90221
304.7127,1083.5809,9.518676
28.675829,2648.2947,-147.78131
-850.69934,4116.304,-151.42255
-1539.5458,3470.3057,-7.728635
-1523.8434,1635.9087,33.401485
-1174.9908,756.72125,62.86594
-1116.3783,84.98706,41.24046
-816.86084,-333.8355,-141.79008
-755.0747,-695.4223,-95.1547
-725.24817,-495.97986,-78.696686
-955.47754,-276.05478,34.53924
-910.21326,-78.38647,92.77493
-1765.4288,468.99597,25.327536
-3334.7908,4319.955,376.7262
-1603.0566,4287.9546,246.50377
-175.68163,1710.7513,43.976585
426.73602,991.91547,18.013319
778.3052,271.25452,-1.8279544
822.1869,371.1853,11.916254
695.3201,350.7859,75.95579
493.05453,498.83368,150.05632
344.93207,646.3647,62.682774
97.97074,1881.0524,-15.245437
-392.2564,3522.4531,-211.9391
-1268.7994,3905.3508,-182.27979
-1399.045,2332.5408,-113.074295
-1174.4679,934.8735,-50.05164
-896.6451,360.3141,-102.86756
-921.1829,-119.71812,-153.72948
-856.7535,-342.41568,-212.25674
-924.71576,-676.4645,-195.04831
-848.97034,-455.58206,-70.74449
-1095.1807,-49.969856,155.045
-961.52606,-108.823944,56.405796
-2863.3445,1763.6117,381.1547
-3103.9631,5161.151,719.3768
-899.86285,2738.0088,251.15392
86.61611,1328.4551,171.23927
670.4091,907.5262,104.57044
848.2511,381.21402,77.64994
865.47986,367.4955,-39.174877
619.0525,477.14908,71.67469
485.73407,570.84656,31.255175
171.0752,1209.4202,-28.964756
-199.71896,2929.8914,-159.4249
-1485.8691,3840.5803,-84.59813
-1574.1061,2493.4954,-70.13931
-1395.7478,1460.6221,12.833152
-950.7505,566.6291,18.094112
-829.2205,-67.79293,27.287498
-681.12646,-302.2206,-56.98697
-848.1113,-444.2961,86.75706
-770.74194,-459.21695,19.672953
-976.2071,-392.88504,59.32914
-1007.7451,-94.50711,-41.54363
-2470.1128,1325.8833,262.69232
-3187.8293,4665.027,574.2135
-1151.3369,3144.9763,111.30535
-84.23617,1359.068,-57.026615
477.8253,936.4754,-73.22721
681.7857,409.21445,-35.11143
894.5972,411.78372,-139.5769
714.60236,322.02237,-98.37159
620.4931,550.65857,-68.794846
436.95938,1031.2925,-132.69673
72.04925,2776.6794,-236.82912
-959.76526,3983.8923,-223.43585
-1302.9952,3131.829,-74.48748
-1382.2196,1530.642,-30.472382
-1114.2888,561.04877,23.560217
-1139.5961,-12.975037,-20.628254
-970.4524,-267.90134,-91.184746
-895.4402,-465.81558,-69.034424
-689.27026,-496.7115,-117.01218
-924.47437,-227.02498,59.599216
-894.1206,-1.0615026,100.52236
-2234.5452,1117.8326,76.403625
-3132.1628,4637.498,339.09033
-1024.9373,3359.8801,183.79655
-45.210052,1564.2689,-21.568047
561.2687,995.134,-96.4761
798.5964,390.94855,-74.7745
869.4386,450.34924,-147.34024
658.51416,475.9496,-23.641153
558.03784,557.2403,-43.527306
311.242,1005.36255,-68.98433
-1.930593,2597.016,-183.8538
-1139.774,3952.3179,-204.17072
-1575.2039,3172.6887,-162.79921
-1394.4419,1581.4911,-60.84515
-1064.5232,672.73596,-17.356123
-982.80585,-75.80282,-45.329662
-851.60986,-354.94055,-76.1369
-886.691,-424.35114,9.275351
-847.7098,-464.17865,4.095645
-1008.38135,-351.1367,26.51009
-980.414,-142.71828,8.961114
-2005.2871,919.5625,-3.089517
-3143.7483,4492.623,350.38382
-1281.1256,3780.5193,153.65636
-57.63549,1739.3326,8.541374
556.0279,1140.2848,39.566914
873.8667,397.34424,13.052353
950.7829,374.94974,-4.6978397
668.05066,350.77994,97.3021
516.2132,618.5262,137.72038
302.60022,810.4209,-17.240023
135.58055,2094.982,-147.02309
-941.2914,3972.455,-279.06683
-1733.9604,3425.7139,-241.93051
-1475.8752,1762.1069,-110.36891
-1160.265,877.0683,-73.64663
-1008.8975,111.697716,-4.094898
-861.2652,-258.31427,-47.5685
-871.05255,-543.3715,-31.519258
-786.0727,-540.5245,13.938973
-906.30505,-485.78574,80.61856
-992.7668,-116.37556,45.94361
-1868.1644,322.25333,81.21202
-3814.5632,4288.7466,808.6915
-1645.7716,4191.647,324.65372
-168.0771,1640.8263,-8.063974
549.8023,1029.9641,-110.99751
847.3454,251.70207,-77.08139
883.0583,544.9246,-79.936966
785.24725,302.76132,-96.59657
628.74304,546.0844,-24.35331
409.01004,763.4265,-51.31863
177.3775,2069.8997,-243.49588
-629.5553,3775.851,-312.88113
-1148.1434,3634.6963,-95.74002
-1472.164,2358.2644,-54.87527
-1298.5765,1082.5004,-70.201355
-1065.2914,450.84903,22.045755
-1006.4593,109.280396,-127.99013
-855.7063,-748.0531,-122.1251
-785.0228,-796.6963,18.212631
-868.7494,-721.498,191.64943
-1080.4985,-145.63176,45.513462
-1750.9758,186.51189,251.47517
-3555.1062,3558.9595,448.50952
-2095.935,4858.2285,289.68167
-397.2421,1859.003,203.91684
367.38953,1205.0391,-166.88579
626.67944,693.4252,-109.4557
843.04224,569.49725,-232.80058
800.1611,380.5188,-178.98117
787.6984,292.79092,-158.80846
511.8633,579.6488,-34.20154
636.6147,341.76605,8.438068
-681.6347,3224.2163,3.34353
-2665.2324,5237.1816,63.37627
-1581.9415,1950.2385,143.74173
-1429.5398,1765.0297,91.862686
-1140.1669,172.37961,41.779255
-1273.1593,-253.76099,-125.97823
-902.4779,-1153.7416,-36.288376
-951.4541,-322.3561,505.45438
-793.55414,-856.3554,154.48813
-1120.9475,-442.42514,179.19983
-1376.2394,-552.72894,38.756676
-3218.249,3421.8218,813.29083
-2398.2852,4601.4966,866.531
-777.5467,1792.6085,433.15082
-13.2022085,1784.6338,397.04224
662.747,589.97076,80.55887
815.2652,280.54758,20.71729
886.35864,245.93901,-196.82321
782.2647,492.36777,-138.5211
516.23413,702.4732,-61.896286
198.08318,1151.9374,178.45328
-101.646576,2556.4375,86.81161
-1205.0271,4094.938,-207.60474
-1836.8041,3243.665,-84.20226
-1440.0907,1615.6772,-45.12345
-1155.2872,634.0185,29.120504
-984.87885,-69.47019,24.19265
-937.874,-369.58936,-43.954525
-877.55145,-531.0847,19.021454
-897.02856,-349.44754,79.253784
-833.2196,-435.31924,55.35093
-1001.8038,-120.853745,46.588825
-1663.3252,387.58755,0.9008011
-3585.3354,4256.6313,554.18475
-1868.5553,3995.6284,372.45422
-295.20074,1508.1156,-0.7208038
308.7712,1113.7631,-81.03032
677.8489,342.9861,-127.41061
784.0757,372.91406,-65.80783
684.94714,288.50058,-61.390015
613.6832,450.70532,9.976047
400.87802,620.52423,22.731836
214.38017,1690.1079,-120.84941
-658.48737,3399.397,-238.0918
-1512.9589,3834.39,-116.28194
-1476.4979,2265.1199,-25.119642
-1225.3529,1036.726,64.65001
-1077.8577,97.28636,43.32922
-931.4461,-324.23105,3.830472
-902.67175,-566.84045,0.5532906
-867.36005,-477.36136,28.332567
-894.8614,-542.17615,-65.47744
-962.253,-16.165907,33.14539
-1523.4673,167.5609,49.578026
-3379.7102,3821.5452,862.15344
-1858.3068,3885.0583,575.27423
-272.91336,1393.1626,187.7763
440.81403,1238.7708,159.02058
849.0064,166.99019,30.309597
795.9092,361.88428,19.618465
651.85156,224.78972,18.587328
523.8713,526.34,74.5943
393.11444,534.96313,-41.018547
151.77493,2315.3962,-175.34325
-731.3047,4052.1875,-260.75275
-1118.3954,3169.7778,-36.987858
-1184.7217,2222.3352,45.764385
-1063.5657,1016.84015,84.498085
-981.7487,177.1204,57.197956
-1054.13,-319.5973,40.593704
-1085.6562,-474.83002,113.124435
-1068.2737,-387.00003,94.322075
-957.2502,-280.25052,24.323835
-988.279,51.52257,-77.55257
-1813.8638,634.5592,-87.82029
-3161.1167,4106.2285,290.56284
-1451.8064,4123.0854,-41.343273
-77.289764,1800.6453,-87.4348
496.7614,1295.1813,-136.87184
682.6469,375.84604,-156.14915
802.1221,454.1205,-97.41932
780.60614,178.94646,-37.668312
821.5218,258.50705,-18.421625
569.257,453.73456,-61.22227
203.04453,1913.7218,-61.372574
-1190.272,4336.743,-184.49344
-1659.7069,3364.7898,-131.85432
-1423.8607,2090.3933,-133.05545
-1136.166,1015.488,-173.56586
-1054.6968,250.18564,88.42493
-939.8689,-206.1997,82.142784
-875.906,-601.1144,129.49884
-887.42456,-635.97925,111.78562
-972.3103,-412.20984,50.035378
-1094.7911,-185.99779,27.677294
-1547.283,355.60263,-237.49544
-2971.5718,4019.4746,-347.9816
-1947.3915,3984.7085,32.156944
-390.6034,1867.7057,-85.14911
321.64676,1322.3597,-6.7205553
784.7483,411.98718,-26.96028
788.85046,150.57664,4.926539
652.39844,196.41885,1.1904514
500.93854,456.004,50.35048
454.34375,665.70526,-26.182442
399.43646,883.17065,-236.92026
11.461833,2958.1826,-423.85202
-1284.1332,4391.7954,-440.94547
-1551.0793,2700.2078,-133.28548
-1350.926,1470.8324,-23.646667
-1020.0759,340.85318,55.493526
-989.40497,-70.19158,66.69599
-901.04926,-522.91486,-31.889698
-950.5673,-407.88995,34.78222
-740.1403,-534.4223,10.668021
-969.5134,-175.70462,94.68449
-983.29,-61.847473,-77.199684
-2462.6155,1809.2684,225.11006
-2813.789,4609.46,474.70175
-856.8981,2545.3574,87.39974
-37.341736,1380.6489,30.688868
454.36227,903.9225,-43.16458
609.70184,250.34125,-29.135818
682.3941,302.0321,-59.34698
605.91156,269.18372,64.47566
554.47375,518.0882,14.135876
418.59592,739.44116,-70.06562
79.751335,2617.4526,-256.76627
-1014.237,4139.4663,-343.37424
-1473.7783,3239.4348,-159.62376
-1369.6865,1599.8478,-28.699203
-1198.04,709.8045,-30.050089
-1065.9651,-76.20538,14.134566
-888.5606,-254.9746,-36.793217
-812.4449,-471.60727,-30.153376
-692.5986,-485.84705,-44.653797
-799.76434,-462.1588,3.3072424
-888.8382,31.359297,28.56005
-1422.8405,309.1443,80.087975
-3393.323,4143.9395,645.23
-1767.6161,4193.3784,400.06857
-282.19513,1418.7495,101.2836
322.4231,1056.3783,112.29109
790.6693,125.774574,15.4801
812.4694,252.19804,-32.673615
694.62445,215.15244,-32.631878
615.68005,559.851,10.299958
444.49783,509.9705,-56.653854
306.88364,1820.4138,-153.21712
-727.94714,3861.544,-347.7066
-1589.464,3499.7427,-165.09682
-1451.095,2146.2686,-40.968685
-1273.7487,1148.588,31.728502
-944.0021,139.1444,29.224134
-896.76434,-306.3798,19.791336
-864.06024,-608.1879,-17.680298
-877.3488,-408.1176,13.155586
-775.26733,-525.61957,11.782983
-930.88916,34.306923,76.63352
-1287.8683,139.27092,65.18349
-3475.6064,3330.2283,767.45654
-2144.7166,4479.921,320.35168
-369.86154,1517.4442,104.11095
351.9344,1079.8036,6.57511
689.2379,352.42615,-25.683088
763.52716,310.23715,-45.927776
713.6034,166.25497,-2.5173113
560.29535,418.11716,74.609215
375.01468,640.6031,126.38967
271.57355,1543.0504,-76.519585
-531.2841,3758.1797,-270.66666
-1620.9097,3811.7747,-342.1392
-1381.1603,2201.842,-227.57446
-1282.1351,1455.6075,-4.7945247
-1094.1237,215.83818,-19.264076
-954.4688,-268.87216,-11.583969
-791.62286,-834.2518,-38.147694
-928.4207,-451.13678,26.248535
-807.4149,-380.593,-11.937672
-1016.8027,-51.551647,26.95584
-1106.3613,-166.03554,-46.60627
-3272.1533,2954.5405,588.7664
-2618.9014,4903.766,404.20123
-551.8196,2141.6516,-1.6979947
209.18448,1361.5371,-29.64391
723.59216,500.1937,-100.07409
806.111,204.99902,-45.665928
800.3525,288.36597,-97.122475
645.4887,288.89017,15.3698225
593.4495,493.18753,-38.686512
430.4517,864.8695,-66.30147
-62.446693,3081.1685,-270.70346
-1460.357,4259.232,-292.08643
-1493.7036,2613.9104,-76.01757
-1365.6272,1598.9395,-42.36161
-998.6841,568.45544,-33.146008
-968.6588,-73.02979,-29.091782
-773.3382,-166.80197,-114.85332
-814.74866,-170.17027,-41.622196
-730.0426,-266.16034,-45.2693
-874.61017,-449.8859,69.735176
-772.8231,-112.36195,-61.518375
-1824.3942,725.00635,329.43555
-3240.8496,4983.665,423.00238
-1164.441,3595.1055,56.70137
90.18318,1094.3469,9.824626
616.4531,1160.739,-115.80903
645.4408,257.27747,-7.778496
882.7163,256.55502,-66.117584
693.8994,102.19035,-16.38887
669.1543,502.175,-60.051235
403.02414,731.9441,-84.18203
180.15143,2672.3474,-254.3995
-970.91656,4092.147,-308.82672
-1544.9431,3173.3027,-93.13446
-1378.0782,1643.231,83.02284
-1129.5225,793.7611,61.84625
-1062.9165,-75.54622,4.7288966
-853.61285,-338.53375,-43.42502
-855.3533,-408.0855,-5.9843464
-681.42664,-314.70178,28.63973
-886.16345,-338.26224,92.731
-802.37305,-125.80308,31.5586
-1607.5294,869.96564,36.847794
-2939.8225,4681.2246,819.634
-1141.477,3203.2075,386.78003
-101.04921,1421.3253,119.75691
431.56924,1043.7892,60.099224
646.00024,330.8463,18.630575
783.8195,170.65665,-17.676546
604.48737,216.75438,20.52391
564.2077,437.02426,104.76768
329.20074,589.3805,89.32267
263.1209,1486.6742,-59.453472
-736.3702,3728.6523,-147.45192
-1547.8108,3654.1614,-60.291058
-1360.9742,2125.4749,1.7555838
-1169.5544,1142.0762,37.02055
-886.876,276.51114,39.798004
-865.4468,-68.28173,-14.3412895
-878.2026,-392.85837,-38.18758
-921.65186,-399.63608,-28.361956
-821.5353,-617.61365,-8.6773205
-980.98816,-147.99774,76.88913
-1026.578,57.665413,44.705414
-2944.66,3106.0027,402.21252
-2017.8099,5069.6987,271.4617
-205.93547,1881.4591,40.104862
318.67715,1174.308,33.556614
795.6532,226.7509,41.594337
829.0451,204.6755,-49.559673
788.34076,5.1374435,-50.0928
636.8579,408.2823,-21.118023
500.30084,417.20688,4.9327755
285.77606,1917.511,-135.67624
-610.5143,3788.5862,-282.2975
-1299.9275,3205.058,-14.157155
-1245.8674,2192.4744,92.07268
-1197.1683,1234.1685,113.45427
-898.0065,328.00232,104.62954
-915.5545,-60.147564,48.39409
-761.4257,-465.79892,-60.918137
-821.2332,-396.71356,-8.493872
-745.4214,-567.29645,-0.6248714
-899.96246,-92.74986,47.109703
-957.1483,-51.681213,-48.027477
-2999.5613,2969.5269,492.60992
-2432.563,4582.5454,535.6945
-514.21014,1877.3473,199.3921
215.71425,1389.3258,201.33034
747.4119,519.5925,88.92939
780.5684,231.38033,58.832348
754.4499,213.60759,40.922672
603.4978,437.05185,125.266335
546.87384,468.49716,30.936571
348.08224,1415.1702,-136.41927
-241.21233,3237.1338,-472.26382
-1146.5283,3898.699,-393.5236
-1523.5897,3030.2566,-194.74242
-1399.975,1431.6656,-54.429317
-1098.213,383.02646,-11.707159
-1095.5878,-158.10039,46.231144
-938.4615,-419.25787,48.632164
-965.69116,-610.3578,39.115616
-841.7893,-536.98975,95.434425
-1154.1471,-139.9783,298.54822
-1012.4191,53.406498,34.421707
-2492.5032,1365.7175,370.58908
-3247.3826,4672.19,762.2055
-1145.131,3157.342,256.62738
-114.775955,1604.1045,145.83954
468.6259,953.30304,44.169674
601.69116,441.48886,-129.26906
758.64404,390.70712,-182.56364
614.38715,508.80795,-59.714985
716.1038,507.75998,-101.401085
426.38953,704.12585,-189.90007
439.49686,1521.6813,-228.14847
-752.9438,4021.7773,-520.476
-1711.2173,3675.786,-352.0998
-1350.3406,1971.0159,-83.82927
-1211.9315,1011.3691,-61.917385
-1165.9503,-61.41551,49.395077
-943.15295,-372.1658,-32.01061
-938.9461,-498.4425,68.61809
-879.74475,-430.48727,135.10977
-953.9266,-352.19275,191.01189
-944.12854,-165.20844,120.489815
-1971.6421,1086.4371,254.6101
-2920.4558,4426.1797,704.8642
-1078.0729,3222.0276,341.80432
-4.27558,1612.4127,148.30345
456.9716,1114.7466,99.217476
635.0273,348.76273,-41.807175
651.08124,383.86432,-90.69074
566.1375,423.99988,-26.5274
611.12604,517.4901,-5.5848293
523.6488,749.3087,-204.26239
396.7374,1676.2732,-164.95206
-459.61813,3659.7065,-465.85236
-1537.9171,3789.1162,-364.76154
-1416.9366,2415.5698,-104.12261
-1196.5312,1318.2207,-132.84319
-974.57263,168.64778,-110.74801
-941.1309,-383.97122,-97.03896
-1008.0639,-551.976,120.87727
-930.61975,-347.1762,221.45023
-816.01666,-418.71375,130.94876
-1023.77545,-144.10365,192.03548
-1237.567,23.11893,71.417984
-3242.75,2752.509,632.6429
-2705.7124,4578.9116,713.40656
-714.147,2306.5576,269.80334
29.64472,1328.6127,333.8421
661.7191,437.2126,135.82721
722.3904,374.14645,73.079895
684.6689,424.69885,41.111877
541.1806,635.4293,87.48363
495.75613,598.2566,-184.25255
279.2771,1537.7404,-191.1919
-256.0104,3197.6619,-428.00595
-1448.9825,3666.9521,-464.73395
-1419.1965,2525.8762,-200.08685
-1179.9681,1424.2155,-164.76505
-909.2535,416.39908,-121.357216
-889.286,-69.454445,-70.343506
-884.91223,-429.75784,-26.068789
-1052.6764,-411.66574,-5.615622
-957.35004,-446.3344,72.57035
-1128.1589,-168.5574,158.89783
-1194.0369,12.253443,52.621113
-2952.5493,2189.262,434.72495
-2705.9534,4710.115,452.55804
-713.8744,2306.7537,221.38017
48.83538,1289.9873,106.86119
485.04764,696.3792,47.742622
561.73413,298.86002,-46.159527
645.7618,257.67,-30.751228
466.47665,340.5332,-6.0101366
485.7627,456.92502,-60.5078
208.378,863.8305,-167.79665
109.63769,2436.0886,-287.9168
-1136.2913,4175.541,-504.0098
-1638.3744,3211.702,-408.06757
-1472.3502,1849.1958,-172.1747
-1236.4918,660.9574,-110.6389
-1074.7006,-61.817093,-68.56521
-898.22723,-414.09,3.5449717
-889.4284,-533.86127,118.320724
-803.69055,-578.2159,71.14716
-1054.6852,-256.65656,141.31041
-962.7771,-182.94038,86.99801
-2176.451,1038.5819,211.28471
-3108.2034,3738.0803,695.8542
-1585.6111,2725.2375,328.52405
-561.19653,1596.945,143.75899
176.87686,1015.5471,59.24777
410.8412,549.7154,-43.049587
625.24774,515.225,-112.22334
451.16983,587.86066,-30.873762
545.8596,565.65186,-92.5856
237.29413,999.24634,-122.18799
-1.8037055,2062.5125,-109.02823
-942.65924,2981.6184,-92.16149
-1707.0269,3057.2097,-58.83529
-1880.5139,2120.1636,-113.47966
-1450.5369,898.738,-84.668526
-1123.0135,-40.67139,-109.83625
-898.5895,-541.51276,-32.645332
-841.72754,-547.91174,-16.632643
-794.6531,-599.846,-107.86632
-1028.546,-332.94318,-94.3955
-900.5115,-221.31746,65.92088
-1866.0072,1012.62164,67.486015
-2793.2104,3318.5925,557.0753
-1331.2892,2819.9219,432.70816
-494.21072,1893.3075,275.8095
150.1967,1266.9666,259.83496
596.87036,497.87955,180.03596
796.0163,356.95068,88.81423
701.73535,503.11038,82.06023
495.38293,681.3664,175.68184
254.95993,734.17145,7.914899
124.37974,1521.2914,-92.37049
-473.75314,3333.1765,-228.37933
-1476.7357,3459.756,-385.50565
-1419.482,2184.5679,-160.46217
-1290.1458,1374.5599,-10.371921
-1023.3843,272.00323,29.231783
-914.37177,-78.60171,34.998405
-751.9035,-406.31677,60.593315
-888.7308,-322.60574,68.67369
-745.7311,-500.999,35.95615
-1029.7107,-23.778898,106.80337
-958.8179,-131.67451,-61.16891
-2899.0715,2883.2686,373.66678
-2323.131,5109.7505,524.09375
-286.35324,1907.3462,143.59254
340.83383,1375.6497,115.84483
785.6059,347.555,31.993763
775.8493,166.72203,16.472609
731.7004,35.225327,5.631266
540.3773,326.09375,82.4621
519.54364,403.20963,43.925575
342.52554,1282.4647,-44.55557
-67.804955,3071.7776,-363.03482
-1158.2614,4191.8516,-297.13284
-1621.3853,3017.2961,-40.677837
-1332.6425,1212.3958,2.6408474
-1095.9259,481.76807,126.854164
-1103.7732,-43.75289,127.63259
-937.4832,-498.43253,22.05971
-924.7815,-424.7285,112.12439
-720.09155,-605.02734,59.10832
-925.746,-151.40846,141.78271
-826.51794,-183.99083,20.760485
-2520.6018,2071.3684,374.01913
-2734.6333,4935.494,644.4964
-715.8297,2496.027,242.53615
-72.183876,1573.9194,161.86798
502.088,677.44464,46.005856
651.59375,251.11852,12.79223
829.07855,101.12494,-37.39976
624.2741,302.06442,27.789257
671.82587,609.78674,29.211134
435.55438,870.32056,-91.50099
330.64072,2045.8708,-297.92404
-463.5566,3789.3,-352.09805
-1342.1696,3578.8474,-275.77908
-1425.3257,1989.1315,-70.485176
-1062.4552,869.4811,-47.306156
-1014.6373,102.7871,2.5499005
-817.401,-257.45334,-49.086052
-1013.6347,-509.4086,-39.19136
-870.86505,-471.48285,-75.4624
-1053.3203,-357.9715,100.75679
-902.80774,-25.372686,75.429016
-2043.9138,694.59375,204.73613
-3500.6326,4877.0557,668.72394
-1164.2089,3474.7134,332.06454
-39.672047,1379.9586,140.1762
530.35455,997.60284,130.8299
721.7432,203.76375,37.588547
832.75433,327.75507,-14.402082
644.6048,291.42642,14.684192
694.87915,493.80612,27.5375
472.74957,709.06683,-130.51405
360.9331,1706.0236,-167.203
-313.6272,3873.2178,-346.85693
-1513.8407,4092.2195,-307.48697
-1472.5732,2106.7903,-48.70571
-1185.2239,1210.1421,-40.874714
-1100.1865,164.82442,36.33213
-1006.18207,-216.05151,-38.3966
-999.57166,-579.4279,-31.844948
-890.3104,-515.3106,28.103165
-940.45044,-593.04034,106.262955
-900.2827,-138.4992,98.01633
-1719.3771,222.15842,191.09023
-3592.6902,4426.5747,796.52765
-1698.3706,3926.3591,511.29703
-296.18643,1771.3799,315.37546
427.42136,1127.8153,206.10713
846.4205,220.47697,38.53772
797.5789,260.09088,22.686321
631.5078,413.10968,2.7638385
555.87,516.9292,39.465042
477.1882,619.81635,-83.781166
361.78107,1178.0629,-204.67313
-136.0552,3228.3555,-359.7664
-1381.4788,4259.9224,-404.79382
-1638.9354,2521.5068,-86.86614
-1358.685,1515.269,-20.42016
-1123.0839,304.16595,44.998306
-1011.5572,-15.155963,71.75479
-993.3054,-411.22208,49.249466
-1008.53705,-387.1714,26.243345
-856.8643,-605.25586,20.002766
-1021.02936,-100.18054,160.03111
-1049.1041,-220.14694,34.32245
-2912.1807,2472.5974,552.61346
-2626.9028,4835.191,731.87946
-487.1149,2118.6052,225.26547
136.64989,1467.5586,162.5358
618.20807,659.1977,61.9568
616.9797,269.35895,-5.546743
702.62946,280.31815,-77.481575
458.46167,471.33743,42.69698
609.9037,426.90863,-62.252415
360.22876,763.73157,-120.768936
261.53793,2326.7893,-252.43707
-1118.7932,4250.827,-533.66876
-1568.9144,3053.6108,-294.59216
-1331.615,1704.8425,-177.98817
-1024.7806,679.8802,-126.329865
-1024.5945,80.40318,-59.983017
-897.4088,-360.0272,-84.60906
-969.90247,-445.81586,-13.444096
-824.5846,-534.13336,33.950714
-1045.6224,-348.95392,166.56715
-794.6344,-161.0949,127.94928
-2159.8271,1101.7067,341.45776
-3319.2036,5075.064,747.44586
-993.5827,2933.972,362.3392
-111.45439,1351.1622,181.39464
580.6918,892.157,57.039597
737.767,56.16848,20.256077
723.18396,277.07327,-49.758816
581.7378,145.45082,-4.7053313
524.4833,494.884,40.981045
424.27188,528.3704,-29.728447
161.57863,2311.043,-278.12994
-847.869,4324.8657,-432.24683
-1456.2332,3414.5352,-236.17484
-1447.2253,2031.7946,-55.013992
-1200.4716,678.2773,-2.0118515
-913.7369,-162.57672,1.792267
-879.8607,-315.18967,61.397724
-961.7563,-429.74426,100.46345
-955.5118,-287.90906,57.226456
-983.3887,-408.8549,16.959356
-1086.0134,-36.09359,46.353153
-1750.7534,301.4535,65.641815
-3512.0107,3844.2996,528.9955
-1823.0186,4120.2104,258.41986
-282.79456,1567.8556,79.66984
244.07428,1224.0535,37.684772
526.9925,273.55728,-10.103425
654.08417,316.3559,-53.474697
659.9248,261.8368,-11.030851
636.9506,428.4876,13.011389
482.17755,421.01468,-40.978317
368.75522,1496.7434,-144.526
-397.35886,3823.3926,-218.00093
-1287.2972,4005.783,-87.719406
-1472.4559,2459.32,23.947496
-1187.5222,1093.9379,7.477398
-974.1651,59.154507,66.16675
-925.15717,-213.64116,34.417732
-836.6351,-603.11646,-34.573368
-807.6576,-492.7542,2.8153203
-852.1428,-463.76245,22.909742
-915.2209,-18.72771,10.557178
-1457.6982,64.208435,-55.39554
-3512.085,4198.9575,486.69888
-1778.3889,4151.786,236.16002
-236.5264,1692.8148,101.01346
272.72833,1312.2341,38.20477
705.26245,113.18594,-68.814964
713.5736,302.59906,-50.99766
723.28546,222.32565,-97.159615
613.8866,561.6194,16.282223
511.00934,570.63135,26.837997
367.9381,1511.7413,-115.419624
-258.3639,3725.4033,-222.34628
-1235.0963,4058.7947,-115.95331
-1370.621,2266.047,-131.80449
-1065.5939,1054.2963,-6.856966
-815.23975,191.23047,-9.13979
-848.66595,-96.658676,-66.682236
-795.22986,-568.2544,-150.71356
-855.4168,-410.33325,-104.59999
-882.1725,-410.85672,-101.36589
-992.2336,41.02339,55.46229
-1196.6226,25.455097,-1.352214
-3111.3987,3656.8245,532.81885
-1877.4688,4833.8574,416.36832
-199.68202,1700.2108,111.345314
368.80487,1034.6785,27.984848
679.9963,231.04314,7.8479934
761.05975,249.37938,44.569965
698.9247,150.2997,-21.569206
683.06976,341.14276,8.546957
542.14655,452.83627,9.114781
456.50754,1500.976,-143.40936
-63.703087,3682.918,-345.6536
-1184.122,4272.5522,-254.66624
-1479.9646,2615.251,-64.48056
-1123.683,949.78894,45.025898
-1015.08167,32.671715,9.277233
-856.4379,-398.48215,-95.213486
-827.9451,-570.39746,-149.8637
-729.80115,-555.17053,-183.77866
-1081.5244,-252.84138,-48.544884
-909.82904,-182.76735,-72.51423
-2365.2915,1179.4503,129.06198
-3330.5903,5184.5864,520.4152
-842.9168,3073.764,258.02597
13.481139,1352.3088,181.72243
808.73456,705.2538,37.52256
846.95544,133.80731,59.284252
833.73706,430.02484,-37.22853
631.5878,357.9304,34.398487
565.3836,579.07697,78.77637
253.89519,874.78864,53.77287
170.5295,2386.5483,-107.77409
-837.0855,4536.121,-212.33247
-1321.6975,3632.1501,-302.5064
-1408.807,1761.946,-103.1024
-1150.6089,595.3962,-92.45652
-1049.5742,-155.79805,-197.92517
-857.9342,-568.61456,-205.28427
-921.0943,-421.5421,-91.22204
-836.4404,-416.57593,-51.425285
-991.3075,-244.8987,-29.833088
-1025.616,-95.31754,46.82024
-2295.8582,1456.1815,33.525154
-3428.6814,5012.5415,445.1085
-1312.5172,3472.6953,222.46979
-181.3231,1603.481,-77.47986
586.39825,901.9207,-101.67517
832.6507,304.9735,-74.273445
937.68463,376.48087,-137.31737
791.0281,268.4531,-123.80807
655.2356,658.77277,-18.412758
384.67105,891.7387,-91.75741
190.03406,2358.6997,-148.58691
-887.4193,4341.6343,-182.29562
-1711.3473,3526.92,-89.07514
-1490.3768,1766.9105,66.90392
-1138.0726,800.32495,5.024311
-1002.4652,-37.39863,-134.23979
-798.90985,-356.0114,-207.48544
-811.03687,-574.63635,-136.66374
-725.1702,-489.00027,-131.03304
-940.9239,-356.65753,51.101295
-966.6349,-60.995453,43.13029
-1987.7822,678.9485,188.83864
-3565.46,4882.037,621.12335
-1379.5474,3815.3486,254.3798
-199.11887,1428.6716,92.35508
549.3051,966.4416,-35.81556
776.8348,140.3611,-45.038826
901.4921,319.40332,-105.99692
710.3267,227.59254,-119.090324
667.74493,520.5079,-80.55385
462.39484,744.3263,-78.81861
104.5317,2744.2021,-253.71416
-906.08923,3974.9207,-290.59097
-1451.3334,3374.669,-172.21304
-1530.8494,1871.128,-129.09311
-1025.3806,605.3646,-68.344315
-914.35474,23.951233,-64.070854
-791.83594,-242.55672,-34.620117
-922.57996,-581.63837,2.204343
-819.1968,-517.2145,-52.083538
-1128.4144,-353.19226,59.672
-1014.635,-126.61364,16.404844
-2236.138,695.35974,237.14566
-3433.594,5284.3203,756.4114
-1182.2902,3567.5854,356.9447
-144.86987,1534.8325,74.422905
637.02734,1083.704,-56.998093
821.86694,285.65616,-12.833192
929.4028,281.7434,-104.93473
671.20776,401.96414,-70.097565
582.70514,725.29865,-17.642859
311.7951,947.24207,-27.010101
139.7539,2343.8198,-138.05928
-955.22754,4140.4253,-117.94234
-1772.2241,3534.7856,-95.73344
-1527.5227,1641.2872,2.241798
-1118.79,634.0108,-37.885155
-978.7177,-107.17326,-33.07101
-802.7228,-443.90903,-105.74955
-858.1928,-598.4901,-75.28725
-916.7466,-480.65378,-63.515026
-1077.5856,-206.61139,49.155087
-960.4696,-122.064026,-3.783587
-2339.9583,1506.7938,238.484
-3125.5813,4999.035,765.50867
-981.49384,2903.4666,216.03868
87.93041,1644.5812,47.676228
825.8603,947.1064,-11.315741
861.91736,302.75723,59.708866
837.4731,283.1034,-47.32803
542.2945,466.58957,17.583649
496.21722,508.64645,37.47017
205.14441,1265.9463,-0.83231586
-165.2599,3109.5264,-128.91422
-1116.2854,4039.9624,-65.92006
-1491.1765,3007.8064,-25.371943
-1305.4973,1114.0002,-26.155212
-915.4491,289.8519,6.3286695
-908.67444,-110.18058,6.439632
-695.9889,-355.57663,-133.92741
-898.35956,-582.08655,-89.04935
-841.6942,-560.44354,-85.70724
-1111.6887,-256.34924,16.332855
-886.2624,-6.832902,-107.39013
-2676.0544,1539.7184,264.78522
-3422.4546,5144.41,398.76495
-939.70306,3311.956,112.504234
-61.84135,1372.5813,62.289867
613.1218,582.24536,-63.79895
805.8917,118.02727,-27.576445
884.16077,267.62634,-120.73219
690.58344,344.36447,-37.670277
567.39935,528.42206,8.173222
312.805,1090.0839,-97.635445
-127.4028,3127.7012,-196.80252
-1253.4739,4324.185,-120.44453
-1507.1825,3051.3389,-82.93832
-1364.1403,1488.5974,53.507446
-1060.0409,476.76373,-15.071828
-1031.0852,-199.86111,-131.74013
-881.96594,-672.81635,-204.33577
-935.28595,-629.3955,-110.398415
-825.78687,-567.1804,-122.98086
-1071.0244,-233.76703,10.201297
-1154.8578,-117.86318,-23.043139
-2923.1848,2312.0737,255.49028
-2776.938,4936.3853,531.2319
-696.55695,2550.4277,213.79547
90.00472,1487.6484,185.21454
649.74115,643.1846,132.74774
785.91034,313.2665,34.58404
774.6193,158.85208,-13.959379
565.40344,435.34985,65.779495
478.90167,653.08765,74.50913
282.14035,1307.7794,-60.912754
-13.321812,2939.3057,-160.26949
-1148.5304,4398.6763,-72.29719
-1604.4728,3024.4292,-45.056183
-1360.6685,1245.9775,-10.552737
-947.1546,295.33484,7.610203
-1003.6774,-41.09318,-10.475727
-942.6069,-566.4961,-109.40052
-972.3683,-608.8119,-105.73833
-973.7921,-653.7359,-84.31672
-1067.5461,-65.51656,38.51583
-1294.4891,-111.50069,-15.827045
-3353.2305,3610.626,560.62305
-2221.222,5029.252,428.04456
-322.18033,2026.2927,41.613068
343.27197,1396.2023,36.493603
910.775,193.91261,-78.68682
840.36743,224.52716,-59.43121
784.1562,265.57242,-82.0188
645.8609,558.0107,88.41739
447.425,624.55804,36.1981
295.198,1298.7858,-76.95111
60.925964,2954.2532,-221.47116
-908.0499,4201.1353,-219.29686
-1322.8909,2687.5322,-144.90623
-1195.998,1344.4161,-94.46203
-917.7159,451.8618,-111.997765
-971.1248,64.2723,-104.10603
-868.63995,-425.28476,-96.52058
-903.9061,-495.07428,-118.99365
-794.4706,-650.40497,-131.27098
-1047.225,-11.035877,95.46647
-1042.7126,-89.63115,58.295906
-2881.4697,2527.643,316.91025
-2492.7275,5067.155,397.73383
-448.1843,2469.166,91.99057
264.2311,1479.0707,-19.437538
738.16034,575.18585,-65.42778
778.99756,323.17252,-49.879097
811.1449,301.46463,-62.61095
625.191,404.0391,22.683672
568.4754,391.98633,12.673053
326.4122,1208.0537,-60.32958
-24.140589,3212.3665,-172.9357
-928.1724,3967.066,-265.72278
-1354.0007,2737.5027,-181.58826
-1260.7903,1169.6051,-55.38827
-814.62994,278.5415,-28.613752
-822.66565,-82.947174,-120.60807
-714.12445,-423.83047,-63.23528
-871.02155,-426.4682,-5.1782856
-761.32416,-483.93027,-39.131462
-1076.4423,-208.43987,4.7878175
-1141.6454,-217.2552,-22.254263
-3038.3926,2239.1653,406.15436
-2830.0308,5222.57,500.2501
-568.54407,2300.7961,180.11324
118.03745,1539.1356,55.877247
855.49976,478.11832,-17.095
832.36334,264.6146,7.7361054
794.1589,228.39857,-25.828728
546.3154,425.1674,91.898796
483.87933,502.7877,75.33694
201.90794,1092.699,-49.340652
145.81416,2516.7263,-159.8836
-994.36786,4261.6094,-239.72571
-1542.5464,3030.5867,-239.89128
-1254.972,1495.186,-27.406652
-991.8322,593.5004,-28.051401
-953.0911,-38.39557,1.9209945
-858.8408,-497.07913,-69.63848
-924.615,-558.3439,-31.533655
-758.13055,-607.54364,-89.880806
-998.9534,-157.94426,34.054016
-916.2263,-189.93715,-55.706196
-2835.1953,2270.1301,370.5873
-2709.198,5057.507,463.91318
-577.79175,2369.749,132.2025
86.982475,1388.5078,139.20558
704.6338,559.56744,88.29768
743.77893,169.6251,63.77109
737.53705,152.60963,11.363026
536.67267,203.631,108.35077
503.77213,528.7157,92.297134
301.16324,1073.8708,7.9429317
46.437855,3075.6003,-156.58444
-897.6799,4414.939,-206.30095
-1415.9019,3243.6384,-68.10276
-1350.7467,1570.411,-26.282148
-922.20703,224.82751,-48.968384
-990.9701,-136.72435,-64.205025
-1000.95026,-377.44168,60.047054
-1041.4492,-394.42014,64.85903
-890.9811,-325.6477,-86.33022
-1093.1943,-223.51271,24.311827
-929.73694,-119.06669,90.131996
-2342.1963,1938.5951,241.64987
-2830.2424,5357.5425,600.3931
-713.54236,3015.1191,176.79593
71.12652,1324.9789,122.480736
621.01404,667.25616,122.456635
763.8387,131.4911,56.963505
772.152,76.62465,-2.0823095
551.5557,272.06842,68.166
452.3634,642.6953,65.6775
307.10226,969.31714,-59.90325
32.739384,2729.553,-275.96164
-841.5898,4183.9966,-220.9176
-1284.7972,3398.942,-34.751904
-1335.0182,1816.2955,-22.555525
-1153.1669,515.7345,-16.822504
-1318.7714,-217.93073,66.847855
-938.07404,-646.5568,-18.253056
-859.25934,-591.434,-80.51441
-756.46326,-496.15332,-58.17796
-1020.84424,-85.40283,79.48397
-977.9379,-196.93918,-76.53352
-2550.946,2099.6355,170.52676
-2900.5422,5002.4023,450.91467
-733.5079,2712.9727,42.203194
27.109041,1465.4672,97.42556
577.5579,692.43195,23.318182
661.9142,180.92679,14.661364
642.1522,320.36993,-3.0581741
540.9684,340.9236,60.325386
577.7215,385.3738,-18.390902
416.71497,778.5964,16.072962
218.0684,2460.9937,-141.8828
-648.98676,4090.532,-225.68466
-1419.4127,3378.972,-147.92574
-1336.2482,1536.697,-63.066933
-916.5341,483.5082,-76.44213
-838.3429,-55.108242,-27.27592
-781.2723,-263.10394,-58.205723
-876.6996,-399.91742,-40.70797
-857.717,-368.85254,-55.282616
-1078.4458,-334.68347,28.365055
-1050.7396,-105.155396,13.462228
-2042.9335,876.69934,50.7397
-3428.239,4617.4673,598.1589
-1317.4253,3817.2222,179.71185
-130.3772,1657.903,10.615076
548.3362,881.11597,-55.16228
723.04083,158.51237,-51.344032
900.5482,170.34682,-136.99504
830.9383,323.91284,-133.9971
716.3905,607.3698,-132.25082
429.5327,1014.8425,-95.295654
97.229805,2436.8503,-123.90541
-1482.1339,4421.196,-284.90625
-2034.8389,3318.7627,-134.12784
-1548.0753,1307.6475,73.74245
-1019.8954,359.8596,57.6994
-898.22266,-179.0598,54.65435
-621.7221,-477.69678,36.62093
-616.17145,-735.3219,19.347546
-584.8202,-659.51,-76.57104
-909.7462,-194.30608,-1.5468147
-906.56445,-231.5687,-176.57106
-2768.9355,1861.4227,283.91806
-3219.6084,5051.539,702.4794
-779.4079,2409.867,180.6346
-23.002052,1330.0359,148.82547
755.9657,390.90353,37.67853
747.4458,128.5986,36.807037
769.38824,168.57277,-51.39769
538.6554,437.5162,105.24285
579.81177,520.3016,68.32975
304.25955,1067.9366,-9.7332
24.613289,2988.9868,-150.48376
-1038.3341,4052.9119,-135.29294
-1423.409,2749.3564,-104.15562
-1220.8147,1497.3567,33.767773
-781.5384,414.27054,-27.53288
-792.5694,52.938583,-62.647186
-741.85724,-421.55682,-78.79922
-913.0258,-292.8641,-12.05047
-772.2922,-436.66888,-118.88422
-1081.384,-280.93402,72.15714
-911.47504,-499.21494,-98.58217
-2899.2834,2009.2258,430.4153
-2701.067,5439.8135,416.8808
-541.0357,2597.4497,119.0057
196.18854,1283.1101,5.8341784
750.20435,421.74777,-30.99985
771.09564,132.1818,-22.794748
839.7431,274.60602,-101.03457
729.59033,197.76044,125.30027
465.50662,124.62865,311.0904
208.15785,1359.7854,117.95097
-937.23334,4480.163,117.49363
-1825.0714,3725.7988,211.63306
-1567.6398,2398.0437,257.42142
-1302.3463,1170.6965,314.9837
-1007.9753,195.58377,163.63826
-1069.3046,-249.07848,-110.21238
-780.73364,-678.04083,-290.84305
-860.8857,-636.737,-250.6756
-824.2199,-546.4638,-217.24963
-1107.8989,-163.38953,20.947647
-1110.4001,-18.292112,9.251938
-3142.6262,2763.1782,374.1509
-2698.272,5029.1904,529.8138
-582.5116,2201.282,193.73195
141.79329,1188.299,162.4612
739.0291,412.11075,52.88678
816.16846,287.64743,0.9749952
800.1912,291.8998,-117.08782
582.8278,452.5458,-1.1774375
449.77875,669.688,-4.6726537
249.54556,1452.7014,-55.115433
-196.7841,3034.8682,-113.88894
-1247.3534,4335.037,-31.432484
-1567.0176,2769.2424,-47.15269
-1294.3989,1080.4198,-7.670152
-923.74384,214.83212,13.171356
-893.75446,-130.6204,0.63050306
-775.3142,-499.34802,-56.254684
-866.10114,-518.5978,-18.688698
-805.1204,-504.17786,-63.92184
-1119.6748,-132.53705,13.497305
-1192.0193,-140.80786,-48.833893
-3013.8064,2636.4822,210.44737
-2598.0293,4978.4404,411.87326
-527.6159,2390.9731,101.68908
95.90295,1331.7799,83.09656
674.5132,571.24976,62.10362
784.5427,190.66284,17.069746
696.79913,339.21548,-41.29128
469.35986,440.13364,75.53566
452.13382,585.1968,80.080696
435.28268,1058.5787,-25.388367
4.832076,3210.0378,-216.7311
-827.52277,4282.3945,-213.36778
-1171.4114,3224.5085,48.87254
-1498.3729,1670.8583,34.753105
-1359.4712,188.61357,10.165452
-1333.1166,-189.3665,137.43196
-909.0425,-696.1379,-81.51831
-861.91565,-539.736,-217.3472
-867.83435,-338.98413,-44.89266
-1130.594,190.94771,257.1455
-1078.5161,-168.57689,-16.21324
-2914.2637,2176.2048,302.92838
-2800.3262,4888.5376,545.0832
-751.91815,2459.8796,33.113625
6.1075354,1598.281,19.093187
694.7232,682.58685,-90.827995
763.2504,401.99338,-27.669638
764.29834,313.39572,-122.61862
568.9984,382.87003,-17.021692
440.96155,557.25464,-19.641205
242.70024,1132.5092,-39.164192
-44.320385,2584.6428,-195.81563
-864.97906,3878.5542,-115.719154
-1693.7137,3058.4727,-162.85283
-1690.7744,1321.3677,-110.87635
-804.27966,270.5998,-19.130438
-613.1492,80.02955,114.0087
-547.86127,-262.47607,186.84315
-792.83826,-456.19785,185.20132
-776.31995,-496.1382,50.511314
-920.37775,-255.21974,123.33292
-1014.9403,-308.30692,-71.63921
-2471.5615,1447.5995,173.00253
-3037.9058,4376.1245,614.81586
-1054.134,2907.609,121.35998
-144.65332,1525.3229,23.769413
556.63873,829.24963,2.1044583
701.4095,227.58452,-11.087026
698.78314,261.31012,12.113263
522.89075,261.05475,73.106186
534.5661,423.02484,97.91461
343.95554,731.9059,50.779045
198.74597,2237.0103,-113.697205
-748.08093,4014.8228,-195.58842
-1306.3502,3258.3018,-0.9111854
-1312.2649,1837.8436,-23.813627
-1156.0354,886.7944,-59.750107
-1064.7158,162.28143,-45.749126
-1016.4859,-164.01562,-20.653753
-838.8861,-443.81808,-8.270631
-817.7056,-463.03735,-6.1277866
-855.1397,-496.04907,61.908318
-952.76575,-78.84273,152.77325
-1531.6478,260.55447,12.850151
-3316.5393,4040.1992,521.0035
-1748.8354,4227.828,353.76944
-285.77032,1859.868,50.101902
331.6526,1279.5068,26.687067
654.61694,256.72635,-43.351013
789.1717,256.02063,-70.703575
710.6262,136.68582,-86.200935
609.75507,446.52557,-23.052437
462.8895,508.85593,-35.434334
278.9014,1996.9736,-101.29232
-725.32056,3891.332,-126.03543
-1423.9597,3568.2634,-8.705826
-1424.9655,1887.6777,2.9409769
-1121.921,804.09,28.293785
-820.9881,83.50435,-17.875305
-731.14044,-91.98328,-31.675817
-843.3553,-451.23486,14.27638
-904.2652,-382.3447,62.002552
-901.7506,-581.7319,26.651798
-1099.6455,-103.63111,62.711945
-1552.2211,-49.164993,-24.670944
-3586.4697,3868.9,747.2875
-1984.7448,4429.8745,442.48978
-369.6013,1707.2557,36.319283
310.70163,1260.428,-0.38383526
683.2766,257.96622,-54.897263
813.1516,245.85431,-30.111582
714.7287,122.3401,-75.492
501.89682,341.74252,28.008755
295.7512,580.1945,-58.840786
283.20938,1313.0286,-196.28148
-276.2912,3491.969,-265.38803
-1309.5503,4417.159,-233.12909
-1510.4167,2611.1116,-32.061836
-1425.2113,1540.9441,12.044962
-1163.0836,277.41632,-77.54217
-1106.3994,-135.08733,-92.47934
-780.13965,-507.61227,-28.02631
-794.11707,-583.18256,-9.901774
-701.06775,-680.8941,-55.038704
-967.9189,-132.06393,-3.7485907
-982.5385,-70.59979,-33.173897
-3004.5564,2732.8674,464.0157
-2729.0063,4970.6016,530.52606
-485.99857,2426.003,81.77069
263.341,1208.2607,86.11001
757.5519,399.6135,-15.142431
803.42096,163.91414,-18.295023
815.358,155.39919,-90.22209
614.25494,557.43567,-46.517128
567.7421,732.8243,-74.89415
321.8155,1559.1617,-190.44246
-164.79138,3630.2463,-307.2743
-1289.795,4055.1777,-159.98488
-1582.1147,2468.669,-116.16044
-1277.4049,1064.3004,39.39406
-904.0105,342.26617,-19.494959
-958.73773,-207.21135,-46.998184
-790.2057,-465.2161,-96.7925
-871.7996,-451.6568,-55.763424
-739.0117,-512.6787,-113.05748
-1059.4192,-153.37543,17.177963
-1003.63464,-90.24042,-38.798695
-3133.609,2568.1072,394.40897
-2711.1973,5597.4136,490.0042
-413.7608,2224.0566,110.15045
137.26627,1050.9197,30.39042
728.44684,286.31924,-47.07544
723.1468,281.52277,-1.5946277
806.2776,323.1086,-44.872253
729.4804,357.246,25.759583
638.55554,420.30707,-21.719494
443.75497,1130.4625,-20.339672
159.47682,2987.619,-192.0085
-1146.066,4349.9624,-223.68454
-1570.7358,2881.4395,-76.9577
-1382.4993,1503.9839,49.542118
-1025.792,311.88232,-50.98793
-948.3981,-143.2972,-126.63946
-740.5214,-622.4245,-142.22238
-793.5319,-479.89145,-136.3149
-780.2874,-615.2685,-142.34216
-1098.6108,-10.733412,50.968243
-1246.2823,-244.55579,-58.99211
-3572.5942,3179.8726,405.9879
-2524.0432,4789.8003,525.4014
-384.91345,1819.3088,80.54236
308.76547,1285.867,-10.87446
838.4605,336.82767,-45.5209
815.9963,311.9064,-24.470268
891.12946,125.47857,-76.308975
656.3931,465.5425,80.67561
499.73425,904.1133,26.459446
55.260597,1806.1519,-103.193726
-414.22095,3254.2598,-209.42155
-1208.9729,4179.897,-45.252125
-1803.7482,3339.564,56.977932
-1305.7861,1074.7242,-29.392878
-779.74506,309.5741,47.841988
-912.586,57.633224,-51.06802
-918.18976,-478.50027,-198.5073
-980.7532,-797.4573,-160.17577
-933.50354,-656.5915,-156.02396
-1264.4144,-235.34657,8.837131
-1394.8444,-112.57296,-57.00363
-3475.5007,2535.0886,347.03677
-3148.915,5657.9863,376.66257
-542.3026,2435.0662,-44.04053
246.31021,1365.7323,-69.07433
929.4971,498.7918,-113.04905
899.9313,446.0583,-69.51889
914.49713,412.03915,-146.43054
666.421,427.80524,-35.38247
544.19696,584.30164,-78.73406
259.3809,1389.6302,-195.61018
17.287191,3325.501,-306.1972
-853.4219,4469.275,-334.80823
-1322.9974,2897.047,-146.03831
-1353.7535,1385.9658,21.159382
-997.44904,178.75952,6.160483
-1016.4294,-135.74571,-45.411396
-794.0767,-608.92883,-93.08662
-934.15906,-277.93384,-9.6597395
-840.9641,-408.2593,-19.285473
-1036.5681,94.73992,-1.663828
-1063.832,-378.64352,-115.78415
-3265.835,3248.5056,0.30504188
-2373.4075,5741.549,45.003532
-194.64227,1931.997,32.015034
322.36792,1397.0947,13.288088
774.0164,216.59067,-74.88558
664.77264,142.63876,-113.71563
730.92523,206.72206,-89.02633
656.0884,390.0019,42.931747
584.4748,593.3361,37.368877
404.58624,1082.2461,-137.2799
214.4412,2893.3608,-276.15387
-755.4978,4194.895,-303.54688
-1349.7255,3077.9849,-138.28148
-1375.776,1717.2313,-41.857674
-1057.5018,452.8887,-29.544678
-973.44763,-104.200455,-65.07213
-857.2124,-521.7494,-69.30965
-923.69293,-473.82123,-13.991708
-767.9603,-540.1071,-59.143944
-938.0099,-330.85486,-65.7137
-950.4705,-190.04167,-47.854412
-2444.0925,1534.5732,126.13693
-3156.657,5152.8843,492.5465
-841.2298,3315.4622,220.0602
-17.058744,1455.7089,117.526764
446.8808,729.3214,92.0576
591.2027,43.272316,33.633293
694.31,102.93186,9.541054
586.48773,79.959526,98.25891
572.75507,460.48438,203.54817
374.7122,699.20306,45.1642
455.27127,1777.7538,-130.85728
-451.64615,4361.389,-243.88121
-1013.0719,3895.865,-139.68536
-1211.0208,2161.7253,-90.30641
-1415.6777,1116.4966,-34.728996
-1464.243,95.812935,40.2513
-1016.1761,-592.44727,-244.72687
-888.1203,-815.6308,-137.43735
-750.69415,-616.1295,-85.666275
-994.2781,-249.46516,150.80602
-964.7143,-112.64224,-20.257378
-2217.583,1136.7394,38.758358
-3396.1887,4925.5825,556.23224
-1017.1849,3571.7527,107.83293
57.60879,1509.999,70.390045
607.0716,973.83356,70.65242
765.58435,183.70216,23.204897
766.2799,301.0723,-52.18793
686.20026,239.25758,18.56315
609.2876,567.3898,52.05207
381.72623,806.38336,-86.922714
255.3641,2117.2703,-272.9323
-371.72443,3991.4014,-334.30353
-1118.6349,3558.608,-196.75514
-1521.5339,2129.1973,-3.4177215
-1070.5323,740.45404,22.079552
-919.8312,86.81812,56.826645
-845.65894,-238.78859,33.446365
-935.31104,-416.34482,26.980509
-829.2684,-550.7445,-25.444666
-921.9338,-378.52747,-4.984414
-992.049,-128.99042,7.8994355
-2042.7914,648.88367,16.111555
-3384.506,4566.765,598.17267
-1429.7155,3668.3538,276.08957
-162.63487,1717.1772,6.6200914
424.30154,1049.0453,-7.623227
649.13446,274.9285,-57.815716
797.4554,332.58957,-144.8069
671.68524,275.3813,-87.02433
641.158,502.539,-11.418669
465.22348,718.375,-40.76251
446.93527,1889.4193,-195.0049
-366.69916,3947.507,-309.96024
-1240.2572,3608.1963,-134.09677
-1470.6123,2101.1272,25.14979
-1209.6605,996.17645,-3.0919116
-1182.3605,-1.779195,25.426115
-945.6584,-450.25946,25.719551
-882.1438,-611.8103,17.639526
-922.52765,-436.09717,-93.32341
-1146.6967,-259.92023,169.42711
-1010.63873,-98.33812,159.65015
-2275.2246,1474.6644,171.90628
-2944.1436,4494.4033,652.5437
-927.61426,3125.7668,200.69923
-38.66215,1476.7214,154.88278
499.93497,818.12286,49.674282
637.57806,239.04185,-27.295628
709.6527,276.82028,-66.58552
601.3375,218.39366,53.764347
569.18585,414.16953,47.139393
409.33362,855.77856,27.695183
148.06508,2524.6926,-36.51878
-975.16486,4394.321,-50.753292
-1527.3064,3282.193,178.76439
-1456.8312,1618.845,106.07514
-1046.9266,496.6753,19.089373
-993.03754,-67.31418,-13.020971
-847.4073,-427.4501,-93.41992
-911.2902,-595.8758,-70.43274
-900.1538,-475.92102,-41.40019
-993.44366,-420.78433,69.44857
-999.6073,-180.57518,-171.88347
-2201.2986,1447.6498,393.39413
-2985.3657,4468.0176,1027.2042
-1093.8608,3382.8975,322.26486
-115.63045,1630.8462,200.73424
426.1778,875.3288,144.33603
611.26337,255.04752,69.26158
730.21875,322.01962,55.51061
601.7584,138.22566,97.65806
613.6277,376.8463,20.952719
456.04486,720.4972,30.182886
109.309814,3001.7534,-154.67542
-987.0246,4185.007,-108.321785
-1457.0021,3027.3013,31.976515
-1399.3616,1708.9409,1.0515692
-1016.3605,519.93384,-12.880581
-1006.94995,-40.5963,-28.911413
-787.76825,-531.1781,-79.06317
-766.1904,-437.25497,2.0255148
-808.22125,-539.0049,22.267714
-977.14246,-305.99695,112.75397
-945.6668,-252.01903,-61.296883
-2612.9197,1707.2676,354.9736
-3026.9783,4684.674,797.9057
-949.11334,2917.8145,327.8567
-77.567635,1456.4143,215.08472
460.78445,646.5641,74.71681
640.2648,273.5326,58.48715
770.4107,306.7802,-13.502118
602.96606,332.46622,9.130601
610.0018,430.03094,-12.336058
478.43472,492.7039,-73.7204
362.72366,2412.8086,-183.3536
-625.719,4250.778,-229.8058
-1278.6486,3328.9138,-156.68779
-1350.422,1860.2195,-44.914196
-1018.86127,561.04724,-5.3236136
-970.10236,105.41355,54.59322
-870.1259,-369.5814,-14.741542
-989.0828,-506.6471,45.452694
-876.7592,-603.8116,-50.212772
-993.7052,-311.4564,-0.55571425
-972.2397,-223.6499,-15.016305
-2371.2595,1335.7766,347.03354
-3083.6843,4849.8633,802.5036
-959.9617,3084.5747,306.4744
-106.61861,1536.827,221.6669
436.9914,849.8263,120.60866
592.71356,134.25778,57.942703
698.4988,269.39084,52.71624
588.30383,200.84863,120.29587
618.9729,425.3746,76.077194
498.5212,456.83572,-38.81665
347.9966,2024.7883,-131.57652
-283.82053,3831.2114,-326.2733
-1032.7065,3811.9878,-194.3573
-1311.4054,2488.9404,-37.811226
-1034.2032,958.0293,-61.085697
-1043.9417,231.12059,23.23551
-1081.4031,-264.8505,65.72073
-944.12085,-585.9573,-3.501654
-850.4293,-482.5724,-77.90829
-970.98486,-515.158,-12.632086
-979.15344,-88.67687,86.10589
-1695.7131,552.58093,119.966225
-3437.0747,4331.641,765.1279
-1583.3882,4021.124,358.42798
-118.83521,1609.2205,169.85606
306.51245,1146.8605,177.40187
690.8845,92.81986,30.258812
748.78534,154.34863,38.99548
701.9835,112.60125,82.00723
631.1172,443.0779,91.22585
594.2471,291.8246,-66.15739
406.33365,1605.2739,-150.51254
-158.28842,3826.8828,-373.868
-1109.9966,3828.1838,-243.20639
-1353.598,2704.6077,-92.49735
-1223.8896,1335.7666,-20.800377
-918.2516,314.07892,7.167335
-976.9565,-87.6359,58.604965
-916.4482,-512.1568,59.583355
-967.3735,-460.15097,40.738316
-904.86774,-599.7915,-21.46885
-1171.908,-116.855484,100.16798
-1339.1528,-291.93246,-104.71773
-3344.7783,2814.4321,562.23267
-2778.446,5388.41,665.34766
-425.68103,2248.887,41.463223
241.26672,1496.5714,105.15644
734.3615,372.5787,-30.151148
752.41644,280.49634,-40.199207
787.9186,134.32204,-133.01082
653.3106,448.7719,-120.25718
689.4958,325.1177,-278.38315
421.12195,1442.0951,-210.32855
-185.90642,3645.6123,-700.69366
-1143.8904,4058.9634,-590.3488
-1387.4065,2707.2886,-250.66638
-1327.239,1259.6984,-177.57578
-1034.2025,220.01857,-142.31604
-1113.4663,-105.7877,-35.27829
-859.2631,-405.8199,12.503013
-836.5834,-398.79468,-16.61319
