acc_x[mg],acc_y[mg],acc_z[mg]
-152.744,966.972,-67.588
-158.6,966.484,-66.612
-169.336,957.944,-59.292
-167.628,949.16,-52.948
-156.404,946.964,-60.756
-144.936,958.432,-65.392
-146.644,971.364,-74.908
-129.564,972.096,-68.808
-134.2,967.46,-66.124
-133.712,965.02,-57.096
-133.956,958.188,-58.804
-129.076,948.184,-54.168
-126.392,948.184,-48.556
-136.152,943.304,-45.384
-153.964,938.18,-34.648
-164.212,948.428,-33.916
-158.356,963.556,-47.092
-146.4,987.712,-61.488
-141.764,999.912,-65.392
-145.18,1003.572,-69.052
-126.392,999.912,-61.0
-124.928,986.492,-50.752
-127.612,975.756,-38.308
-119.072,965.752,-18.788
-110.044,957.212,-3.416
-113.948,948.672,6.588
-121.268,950.624,9.76
-123.464,968.436,1.708
-124.684,988.932,-9.028
-132.248,998.204,-15.372
-133.224,1001.62,-21.228
-131.76,1001.864,-26.108
-128.344,1006.012,-30.744
-122.976,1006.5,-32.696
-115.9,1002.108,-26.108
-134.2,995.764,-16.348
-126.392,990.884,-7.076
-129.076,988.2,0.976
-129.564,992.836,0.488
-105.652,1000.4,-6.588
-105.408,1007.72,-9.76
-106.384,997.716,-6.832
-119.072,982.344,5.612
-127.368,967.216,23.668
-130.784,958.92,34.648
-130.052,961.604,40.26
-115.9,970.144,30.012
-111.02,987.224,23.668
-99.308,998.448,13.176
-105.164,994.544,11.224
-107.604,987.956,8.784
-102.724,984.052,9.028
-105.896,988.2,8.052
-102.968,986.248,11.468
-113.704,983.32,7.32
-113.46,978.684,-2.928
-120.78,975.756,-16.348
-129.564,975.268,-30.012
-136.396,971.364,-34.892
-140.788,971.364,-42.456
-147.62,976.0,-46.36
-141.52,979.172,-51.24
-134.2,982.832,-55.144
-129.076,987.224,-57.34
-125.66,1000.156,-53.924
-113.948,1002.84,-55.144
-87.84,999.18,-60.512
-99.064,993.568,-56.12
-139.568,980.88,-38.064
-141.764,968.192,-30.988
-134.688,954.04,-28.792
-143.716,954.04,-31.232
-137.616,960.384,-43.676
-121.512,968.192,-47.336
-125.416,979.416,-48.556
-112.24,986.004,-47.58
-130.296,982.832,-35.136
-133.712,984.296,-41.968
-145.424,981.124,-25.132
-129.808,978.684,-27.816
-129.32,974.292,-22.692
-141.764,977.464,-8.54
-133.468,968.924,-0.244
-118.584,971.12,-5.368
-108.824,965.508,-3.904
-121.756,956.48,-15.616
-131.272,977.708,-1.464
-126.88,989.176,-7.076
-115.9,1003.084,-11.224
-122.488,996.74,-27.328
-137.128,990.64,-22.692
-147.376,986.004,-30.012
-139.812,984.784,-30.012
-125.66,992.348,-32.208
-139.568,989.908,-32.94
-140.788,979.904,-32.696
-142.252,969.9,-30.256
-149.328,977.952,-32.452
-143.96,972.584,-30.256
-141.032,961.116,-9.028
-117.364,979.66,-30.256
-130.54,982.344,-40.504
-100.528,997.96,-50.02
-118.096,1019.92,-51.24
-127.856,1011.868,-44.164
-158.356,971.852,-32.208
-153.476,1021.384,13.664
-129.808,932.568,-8.052
-117.12,1023.824,15.372
-138.348,986.248,-28.304
-106.628,991.372,29.28
-109.068,968.924,37.088
-122.732,944.28,40.016
-106.628,968.192,44.164
-79.3,956.724,52.46
-83.448,980.392,34.404
-87.596,966.728,26.352
-108.824,961.116,34.16
-136.64,968.436,37.088
-105.896,970.876,48.556
-106.384,969.168,42.456
-118.34,972.828,38.308
-123.22,970.876,40.992
-118.096,971.852,43.92
-124.196,970.388,48.8
-128.832,970.144,48.068
-140.056,981.612,39.04
-112.972,999.912,25.864
-126.88,1007.964,24.644
-107.116,998.448,23.912
-100.284,983.32,30.5
-119.56,976.488,35.868
-101.26,948.672,28.792
-91.012,957.212,55.144
-105.896,939.4,39.284
-157.38,984.296,22.204
-94.184,912.316,7.076
-93.452,918.416,10.492
-94.428,910.12,34.892
-117.12,921.832,20.496
-91.5,1018.7,15.128
-91.012,945.5,12.932
-110.776,940.864,18.056
-150.792,971.852,1.708
-145.668,965.996,22.204
-128.588,979.172,12.2
-133.712,1000.156,6.588
-162.748,1010.648,-4.392
-180.56,1001.62,-21.716
-179.096,998.936,-18.3
-144.448,1011.38,-33.672
-91.744,1041.148,-38.552
-67.588,1063.352,-51.484
-68.076,1061.644,-62.708
-44.164,1046.028,-58.56
-31.232,1030.9,-19.276
-22.692,1009.428,1.464
-49.044,976.488,25.132
-57.584,942.328,24.156
-59.048,927.932,26.596
-61.488,927.2,34.404
-102.724,902.8,12.2
-122.244,813.008,-2.928
-288.408,597.068,70.76
-622.2,341.112,137.128
-478.24,86.376,210.816
303.292,-364.78,268.4
1220.0,-554.856,384.3
1670.18,-333.792,187.392
1920.28,89.548,-443.348
2553.216,1475.468,16.348
2282.62,1170.956,344.772
1150.216,261.812,64.66
747.372,-281.332,217.404
832.528,11.224,568.52
1108.248,294.264,325.252
1286.368,341.112,154.452
1261.48,396.744,174.948
1063.84,282.552,136.152
923.296,178.852,157.136
879.864,192.516,218.868
945.5,284.748,189.344
989.42,309.148,149.816
961.848,288.896,132.736
890.6,264.74,139.08
894.504,260.592,152.256
963.068,285.724,153.72
985.516,323.544,112.972
960.628,343.308,79.3
919.392,298.168,81.496
889.38,268.888,120.292
907.192,287.188,133.956
985.76,311.588,142.008
965.752,306.708,116.632
957.944,293.288,124.928
978.44,295.24,150.548
986.004,294.508,157.868
977.708,285.236,161.284
967.704,280.112,150.792
1015.528,318.664,133.468
1043.588,333.792,132.004
1004.06,299.388,128.344
953.552,278.892,137.128
939.156,291.092,142.252
961.36,292.556,156.16
976.976,305.0,166.896
965.508,302.072,187.392
950.38,295.484,222.04
940.376,279.136,294.752
946.232,259.128,378.444
943.304,230.336,472.384
909.144,219.6,469.456
766.404,239.608,420.412
694.912,249.612,345.016
711.748,252.54,308.904
715.652,240.096,266.204
666.852,215.94,205.204
619.272,179.096,169.824
607.56,176.168,117.364
672.708,181.78,38.064
753.228,198.86,-81.008
776.652,193.736,-173.728
839.604,211.548,-243.024
927.932,232.776,-327.936
955.016,204.716,-396.988
980.148,136.884,-406.992
1078.236,116.388,-387.472
1202.188,126.88,-402.844
1295.152,141.52,-431.636
1355.42,148.84,-456.036
1325.164,114.192,-458.232
1272.704,87.108,-425.292
1236.104,96.136,-372.344
1211.216,118.34,-327.448
1143.14,110.044,-297.192
1039.684,86.376,-259.616
982.1,86.132,-184.22
956.236,95.16,-109.068
947.208,96.38,-76.616
961.604,101.26,-34.16
961.848,115.168,15.128
933.788,86.132,66.856
927.932,63.196,135.664
921.832,72.712,213.012
912.804,73.932,257.42
939.888,97.844,279.868
965.752,86.132,319.396
960.872,69.54,369.416
919.88,70.028,406.26
848.632,72.468,415.532
789.34,67.1,439.2
811.3,62.22,472.14
849.364,60.756,516.548
862.54,49.532,557.052
872.788,20.252,583.404
949.404,14.884,630.252
1028.704,20.252,685.396
1084.824,12.688,695.156
1117.764,-4.636,695.4
1169.004,9.272,673.928
1174.128,24.644,624.884
1151.436,15.86,569.496
1106.784,-9.028,473.36
1138.992,41.724,339.16
1132.892,81.74,166.164
1074.82,64.904,-6.588
1003.816,42.212,-136.64
973.316,58.56,-213.256
1006.012,69.296,-262.544
1042.368,49.776,-264.74
1073.6,36.6,-241.804
1078.724,21.716,-185.196
1106.052,28.792,-117.852
1150.216,50.02,-70.516
1152.656,43.188,-37.332
1125.328,29.768,11.956
1098.244,37.576,61.976
1100.196,83.936,84.912
1113.86,141.276,104.92
1135.088,139.08,118.584
1087.264,106.384,114.924
1045.54,139.568,138.836
1053.104,160.064,153.964
1044.808,162.016,155.916
1033.34,155.184,159.088
1044.564,182.268,147.864
1026.996,176.9,120.78
1019.92,146.644,111.02
983.32,128.1,121.512
962.58,128.588,112.972
974.292,136.396,94.428
992.836,143.228,91.256
981.612,130.784,81.984
942.084,130.052,69.296
951.356,165.92,81.74
1026.508,216.916,88.816
1248.06,326.472,57.584
1259.772,350.872,41.724
1253.916,312.32,24.644
1166.808,292.8,-1.464
583.892,304.268,-158.6
-489.464,304.756,68.076
-1023.336,206.912,131.516
-156.892,-55.876,-998.204
30.988,326.716,-415.288
797.636,655.384,-596.824
-163.724,544.12,75.152
-1468.392,1103.124,-181.292
-1680.916,2912.14,942.572
1981.036,1828.78,-1197.796
359.412,1148.996,-25.132
-127.124,1386.408,-472.14
-1790.716,1084.336,121.268
-1123.864,1361.52,-176.9
-892.796,1375.184,-166.652
-614.392,1307.108,-329.4
-223.26,1398.12,-294.02
-67.588,1438.38,-217.404
-227.164,1356.396,-73.2
-250.832,1218.78,-146.156
-41.48,1085.068,-259.128
8.784,1047.736,-127.856
12.932,985.272,-114.68
68.564,914.756,-165.92
75.884,901.336,-91.012
79.3,862.54,-76.616
96.868,830.332,-86.62
78.08,821.06,-61.0
69.296,843.264,-45.872
107.848,917.44,-38.796
80.52,993.568,-26.84
51.728,1024.068,-36.112
46.604,1026.508,-85.156
5.368,1040.66,-91.012
-25.62,1084.092,-94.672
-29.036,1098.732,-135.42
-45.628,1087.02,-160.308
-88.084,1045.54,-157.38
-103.456,989.908,-155.428
-98.332,946.232,-157.624
-47.58,926.468,-144.204
-34.648,938.18,-100.772
-56.852,912.56,-122.732
-54.412,888.16,-133.712
-28.548,874.74,-94.672
-9.272,860.832,-56.364
-77.104,925.004,-92.964
-94.916,1000.644,-20.496
14.64,1036.756,-25.132
38.064,1006.744,-43.432
41.236,958.92,-1.464
66.856,948.184,21.96
2.684,975.756,36.6
-56.12,1005.768,26.108
-9.028,1005.036,-12.2
44.164,1062.864,-61.244
-211.792,996.252,-158.356
-54.656,1126.548,-76.372
-34.892,1121.18,-65.88
-264.008,1258.796,-29.524
-302.316,1183.888,28.304
-108.092,1045.296,34.648
-5.856,1211.46,-72.468
130.052,501.908,-231.8
29.768,224.236,-451.644
129.32,949.892,-115.9
-10.248,1134.6,-68.076
-81.252,989.42,-31.72
7.808,1138.748,-100.04
-252.54,1078.48,-11.712
-111.752,974.292,-111.264
-187.148,1024.8,-186.416
-166.652,976.732,-211.06
-174.46,958.676,-135.908
-69.784,974.536,-118.096
-36.844,1050.664,-90.524
-206.668,1123.376,-39.772
-69.54,1033.096,-92.476
287.432,776.652,-420.656
726.632,554.368,-1029.68
231.556,979.416,-450.912
-131.028,1039.196,150.792
196.42,954.772,-25.376
352.824,1090.192,-1.708
180.072,1115.324,23.912
-84.912,1056.52,58.072
11.468,993.08,11.712
25.376,940.132,-41.48
-41.48,971.12,-70.516
-95.648,904.752,-70.272
35.136,1169.248,-146.4
268.4,636.84,-214.964
1.708,684.42,-320.86
139.324,866.688,-382.348
-73.444,1049.932,-331.108
-135.908,1118.74,-284.992
-49.776,1031.144,-349.652
-170.312,797.636,-364.048
-190.564,1033.096,-291.58
-122.976,900.36,-167.628
9.272,1026.996,-192.76
20.74,1012.112,-242.048
-2.196,1037.732,-230.092
-41.48,1080.676,-171.288
-39.284,1108.736,-203.252
-60.756,1112.396,-249.612
-49.044,1133.868,-247.416
-61.0,1163.88,-233.996
-67.1,1198.04,-241.56
-51.24,1254.892,-224.236
-51.484,1303.692,-196.908
-66.368,1362.252,-189.832
-106.384,1415.688,-165.92
-128.1,1483.276,-134.932
-139.568,1532.076,-139.08
-93.94,1571.116,-129.564
-62.952,1598.444,-97.844
-79.3,1571.848,-105.652
25.864,1528.904,-158.844
91.5,1477.664,-62.952
100.04,1367.132,-82.228
188.612,1244.4,-87.352
282.552,1102.636,-119.56
-127.612,1116.788,-17.812
277.916,938.424,-115.656
-7.808,1159.488,11.712
-111.508,1151.192,56.608
113.704,1073.6,-60.756
59.78,978.44,-57.096
72.712,925.492,-55.876
142.984,890.6,-10.736
145.18,810.568,1.22
108.824,708.82,-15.616
91.012,615.124,-9.028
62.952,516.792,-12.932
46.116,470.188,-28.548
-25.376,463.6,-39.528
-26.108,510.204,-16.836
-33.428,546.072,-7.808
-85.644,564.128,-9.516
-89.06,587.308,-14.152
-59.292,604.876,-1.708
-28.548,644.404,-8.296
-12.2,693.204,-8.296
0.732,742.004,-25.132
-18.788,744.444,-57.828
-44.408,746.396,-97.844
-85.644,738.344,-85.644
-148.84,830.576,-63.928
-190.076,826.184,-62.464
-156.892,804.224,-92.232
-231.068,803.492,-26.108
-159.088,836.92,-156.16
-164.456,876.936,-125.66
-189.1,972.096,-131.76
-150.304,942.084,-174.46
-169.092,877.912,-142.008
-252.296,898.652,-92.232
-310.612,892.552,-70.272
-212.28,926.712,-98.332
-233.264,912.804,-149.084
-198.128,997.96,-156.892
-237.412,942.816,-90.28
-213.744,953.308,-110.776
-202.276,964.044,-100.772
-252.296,951.356,-75.396
-234.24,954.772,-56.364
-195.2,973.56,-37.088
-210.816,971.12,-11.712
-174.948,945.988,-29.524
-170.556,950.38,-31.232
-240.34,946.72,-11.712
-224.724,934.52,-31.964
-195.2,905.484,-9.516
-240.34,932.812,10.004
-294.752,902.312,-44.896
-340.136,908.168,-62.22
-244.976,983.564,-93.94
-274.256,968.924,-92.232
-230.092,948.184,-123.952
-158.356,1039.44,-109.312
-240.34,969.412,-21.472
-195.444,948.428,-109.8
-159.088,989.908,-94.184
-162.016,990.64,-33.184
-170.556,988.444,-36.844
-198.616,961.604,-42.456
-180.804,968.436,-50.752
-152.5,998.448,-56.608
-149.572,1021.628,-48.068
-136.152,1003.572,-36.6
-197.884,973.072,-14.152
-203.252,933.3,-21.96
-194.956,945.744,11.468
-176.9,963.312,2.928
-156.892,994.788,-5.856
-150.304,989.42,-12.688
-163.724,988.688,-31.72
-172.508,990.64,-49.288
-202.276,1000.644,-70.516
-134.932,962.58,-91.256
-204.716,977.464,-68.076
-278.404,934.52,-73.932
-226.432,938.18,-30.256
-225.212,931.836,-31.964
-252.784,921.344,-51.24
-257.664,930.372,-75.152
-270.352,939.4,-98.82
-271.816,946.232,-104.676
-254.98,950.38,-106.384
-239.364,959.652,-104.92
-221.796,955.26,-90.524
-241.316,943.792,-81.252
-249.612,909.388,-65.88
-216.672,927.932,-32.696
-216.184,936.96,-45.628
-213.988,943.06,-31.964
-210.084,950.624,-22.204
-223.26,954.528,-33.428
-235.948,961.36,-59.78
-176.168,962.824,-11.468
-192.028,919.636,4.148
-255.224,870.104,-44.896
-354.532,793.732,-86.376
-415.288,705.404,-121.512
-413.824,595.848,-135.908
-422.12,454.816,-162.016
-528.016,320.372,-154.208
10.492,193.248,-41.48
604.876,41.236,16.104
1098.244,-38.064,163.236
1334.436,174.46,81.496
1463.268,508.496,34.16
1617.232,1010.892,372.832
1172.908,642.208,590.968
648.064,-6.1,462.868
549.244,-85.4,439.2
976.732,275.476,642.696
1458.876,489.952,503.616
1432.036,433.344,364.048
1214.388,327.204,435.052
1112.64,243.756,485.072
1129.476,174.216,536.556
1207.068,168.848,630.252
1208.044,171.532,634.156
1059.692,157.38,553.88
889.38,145.668,468.236
737.368,132.248,423.34
713.944,87.84,388.692
765.916,84.424,365.024
788.12,129.32,289.14
692.716,156.16,123.464
556.564,146.888,-72.468
555.344,152.744,-178.852
720.044,233.02,-324.52
877.424,337.696,-514.352
940.376,354.288,-668.804
961.116,309.636,-776.408
925.98,203.008,-806.42
938.912,136.64,-784.46
960.872,95.648,-731.756
928.908,55.632,-644.892
926.712,29.28,-589.26
935.496,46.36,-545.34
936.472,56.608,-497.76
910.12,35.38,-419.924
836.92,1.952,-311.344
791.78,20.496,-197.64
797.636,39.284,-83.448
842.776,54.9,38.064
922.076,38.064,125.904
955.992,37.332,230.58
949.892,52.46,332.816
964.776,48.068,406.26
994.3,71.004,428.464
1030.656,58.56,434.808
1072.624,40.748,448.228
1061.4,29.768,479.704
1023.092,27.328,482.144
1007.476,14.884,475.8
1045.052,-3.416,467.26
1135.82,-18.3,462.136
1206.824,-24.156,488.488
1216.34,-49.776,528.26
1232.932,-46.604,503.86
1194.868,-82.228,476.044
1214.144,-93.208,432.612
1227.32,-104.188,382.348
1255.38,-64.66,271.328
1261.968,-32.696,147.62
1233.664,-10.98,54.656
1143.872,-41.48,-10.492
1053.836,-61.0,-50.02
1050.42,-8.784,-107.116
1038.22,26.84,-118.584
1048.224,18.788,-101.26
991.128,2.44,-63.928
940.132,-4.148,-59.292
972.096,-11.224,-113.216
996.984,111.996,-109.8
1051.884,136.64,-128.1
1093.608,194.468,-103.7
1096.048,214.476,-88.328
1037.976,235.704,-81.74
1057.496,332.328,-70.516
1061.888,472.384,-116.876
1025.288,580.72,-185.196
990.152,637.572,-249.368
973.56,625.616,-264.496
786.9,737.124,-268.644
579.988,954.04,-189.344
505.568,1076.284,-150.548
218.136,930.616,-53.192
168.848,1141.432,-427.732
-84.18,1464.0,-152.5
613.416,1586.732,-401.136
618.784,1328.58,-174.46
307.196,1150.46,4.392
-192.028,723.948,-48.556
-602.68,428.22,-40.992
-673.196,440.664,-4.148
-384.544,587.552,-1.708
-239.12,815.448,-7.808
-222.04,940.62,-16.836
-286.212,1060.18,-101.992
-316.468,1076.284,-130.54
-212.28,1142.408,-119.56
-111.02,1162.416,-104.676
-73.2,1085.556,-106.872
-86.376,981.612,-97.356
-102.724,959.896,-98.576
-125.172,947.452,-98.576
-135.42,923.784,-101.016
-99.796,921.344,-104.188
-94.428,933.788,-80.276
-122.976,943.304,-97.356
-109.312,974.048,-66.612
-110.532,996.984,-64.416
-108.336,1023.092,-66.856
-96.624,1021.14,-50.02
-118.096,1016.748,-49.288
-150.06,1009.184,-48.8
-129.32,993.568,-49.044
-114.924,977.708,-60.756
-117.364,960.628,-64.904
-123.464,978.44,-72.956
-134.2,988.444,-93.452
-141.764,982.588,-106.14
-147.132,971.852,-111.264
-148.596,988.444,-103.7
-152.256,991.128,-105.652
-155.428,968.192,-116.144
-169.092,949.404,-127.368
-166.896,953.064,-122.0
-168.36,952.088,-125.904
-166.896,949.404,-127.368
-166.164,946.964,-124.44
-153.72,959.652,-123.22
-147.62,961.848,-123.464
-155.672,956.724,-118.584
-137.86,962.092,-101.016
-127.612,966.972,-92.476
-132.736,968.436,-92.72
-139.324,973.072,-94.672
-139.324,990.396,-102.236
-138.592,1008.208,-100.04
-138.592,1003.084,-100.04
-160.552,965.508,-107.848
-154.208,949.648,-111.752
-158.356,956.724,-117.852
-145.912,1015.528,-131.028
-159.82,1095.804,-117.852
-215.452,1168.516,-79.788
-316.956,1310.036,-58.316
-465.552,1533.052,-86.62
-568.764,1720.444,-105.896
-563.396,1863.672,-112.972
-501.664,1967.128,-72.468
-456.036,1981.524,-55.144
-358.924,1856.108,-9.76
-266.448,1701.412,-26.84
-256.2,1503.04,-1.952
-178.364,1431.06,-35.38
-112.972,1273.924,-27.572
-120.78,1102.148,-44.408
-45.384,1025.532,-99.552
-186.66,971.12,-95.404
-277.672,918.904,-28.06
-149.572,938.424,-39.04
-165.676,783.972,1.464
-194.956,704.184,22.448
51.484,740.296,-150.548
-107.848,723.704,-179.34
-243.024,627.568,-92.964
-94.184,556.564,-149.084
7.808,460.672,-78.324
82.228,458.964,-24.156
16.348,458.232,90.28
26.108,393.328,35.868
-55.632,328.18,87.108
-165.676,392.596,155.184
-206.912,460.672,86.864
-160.796,598.532,82.716
-207.4,662.46,45.14
-228.384,711.992,5.368
-251.32,711.748,-49.044
-328.912,720.776,-48.8
-348.188,734.928,-36.112
-309.88,771.04,-15.616
-328.18,816.668,-40.992
-330.376,850.096,-48.068
-323.056,881.572,-80.032
-304.756,894.504,-84.668
-325.252,903.532,-49.532
-336.232,881.328,-45.872
-325.496,885.72,-47.58
-335.256,871.568,-45.384
-359.656,860.1,-57.096
-373.076,843.508,-59.048
-379.664,873.52,-41.236
-342.332,859.368,-50.752
-336.964,895.236,-56.852
-314.76,891.576,-69.052
-294.508,878.888,-67.1
-270.84,867.908,-69.54
-284.26,872.3,-80.032
-285.968,892.308,-104.92
-277.184,915.244,-123.952
-223.748,930.372,-154.94
-240.34,931.592,-158.844
-239.608,938.668,-163.48
-241.804,929.396,-137.86
-225.944,891.576,-122.244
-256.688,849.364,-123.22
-258.396,804.956,-110.532
-268.888,769.576,-126.392
-273.768,747.616,-137.86
-211.548,732.488,-135.176
-191.784,741.272,-98.088
-235.704,704.184,-91.256
-260.104,701.5,-113.216
-44.652,711.748,-113.948
237.656,668.316,-170.312
536.556,570.228,-202.764
755.424,524.356,-119.56
1080.676,430.904,51.972
905.24,361.608,62.708
967.704,509.96,-171.044
1171.444,772.748,-69.784
1508.164,805.932,188.124
1238.3,318.42,262.788
1088.484,54.412,389.424
1118.496,75.152,551.928
1230.248,214.476,514.596
1305.644,192.76,478.24
1304.424,182.756,499.956
1204.872,83.448,489.464
1017.968,-10.98,480.192
814.96,-7.808,401.136
639.768,27.572,327.204
575.596,52.46,254.736
590.968,24.644,198.128
714.188,101.992,89.548
769.82,172.508,-27.084
746.884,148.352,-165.188
734.684,97.844,-264.74
800.808,167.628,-386.252
856.928,194.956,-537.044
924.028,221.064,-683.932
1000.156,213.5,-747.128
1028.704,213.256,-830.82
1005.036,178.364,-887.672
1032.852,167.628,-904.752
1048.224,176.9,-895.724
1050.664,126.392,-852.048
1052.128,79.788,-782.02
1053.836,43.676,-693.936
1014.064,23.18,-603.168
980.148,22.936,-504.348
947.208,10.98,-392.84
931.348,0.976,-298.656
881.328,-45.384,-196.664
868.152,-50.02,-82.96
851.804,-31.964,34.404
894.992,-4.88,115.9
938.18,26.596,166.408
977.952,1.464,230.092
998.204,-37.82,315.004
981.124,-51.24,386.984
966.728,-34.16,443.348
989.664,-36.844,461.648
1030.9,-49.776,453.352
1052.616,-50.02,450.668
1041.148,-63.44,469.7
1048.956,-104.92,470.92
1085.8,-109.068,449.692
1112.396,-95.648,430.66
1138.504,-111.508,414.556
1104.1,-123.952,415.044
1081.896,-131.516,377.956
1081.164,-90.28,323.3
1104.832,-77.348,238.876
1130.696,-71.248,162.016
1145.58,-83.692,120.048
1144.848,-101.748,87.108
1136.552,-125.66,61.0
1111.176,-156.892,30.256
1093.852,-164.944,10.98
1101.904,-172.996,-0.976
1109.224,-166.652,-32.94
1099.464,-172.508,-73.2
1037.976,-201.3,-88.328
943.548,-178.364,-107.848
887.184,-81.252,-235.704
888.648,118.096,-354.288
945.256,216.428,-419.436
997.228,201.544,-437.492
1008.696,157.38,-432.124
1036.268,204.96,-390.4
1128.012,282.552,-339.16
1147.532,321.836,-314.516
1081.164,320.128,-329.4
1062.376,317.444,-315.004
1062.62,333.06,-273.28
1069.208,330.62,-220.332
1077.992,294.996,-170.8
1098.732,254.736,-132.004
1088.484,224.48,-112.728
1097.024,223.016,-91.256
1118.984,242.048,-67.1
1136.552,249.856,-65.636
1120.448,238.144,-68.564
1116.544,239.364,-55.388
1179.496,249.124,-69.296
1135.576,327.204,-75.152
1254.404,468.48,-119.56
1341.268,596.824,-143.472
1397.144,605.608,-162.26
1264.408,741.516,-122.0
877.668,845.216,-53.192
526.308,1097.512,53.192
358.924,1052.86,30.256
210.816,1139.968,-194.224
115.168,945.012,-201.788
237.9,927.2,-221.308
194.468,635.132,-73.932
248.392,655.628,-81.252
-47.092,644.892,-40.992
-301.828,573.4,-87.84
-333.548,592.92,-100.284
-220.576,693.692,-156.404
23.18,802.76,-203.008
28.792,855.464,-50.996
-6.588,876.692,-35.136
-152.988,868.152,-30.012
-199.104,844.972,-56.852
-166.896,909.632,-33.672
-53.68,987.468,-32.208
-100.772,1004.06,-2.44
-220.332,959.164,-16.104
-241.316,955.016,-49.288
-233.264,969.9,-81.252
-219.112,986.736,-89.304
-209.352,1019.432,-60.268
-212.28,1029.192,-49.288
-200.812,1011.136,-60.268
-191.784,995.032,-56.608
-177.388,990.884,-39.528
-169.58,996.008,-40.992
-176.656,971.364,-43.676
-178.608,957.212,-62.708
-174.704,938.912,-64.904
-163.724,945.012,-74.664
-167.628,936.716,-71.248
-157.136,943.792,-77.836
-146.156,961.116,-87.108
-154.94,967.704,-78.568
-156.648,958.92,-83.448
-168.116,948.428,-86.62
-169.58,936.716,-95.648
-161.04,949.648,-115.9
-187.148,970.876,-126.88
-166.896,1004.792,-118.584
-142.496,1027.972,-111.02
-137.372,1011.136,-111.752
-172.02,969.412,-101.26
-182.512,960.14,-100.772
-158.844,998.204,-102.968
-148.352,1031.876,-101.26
-161.528,1029.192,-100.528
-170.556,1032.608,-104.92
-176.656,1044.32,-95.404
-192.76,1076.772,-91.012
-205.204,1125.328,-74.42
-207.156,1218.048,-75.64
-250.1,1301.74,-78.568
-300.608,1398.608,-85.156
-393.084,1500.356,-89.548
-517.28,1576.728,-103.212
-560.956,1617.476,-102.48
-461.404,1698.972,-192.028
-384.3,1732.888,-211.304
-330.62,1699.704,-190.564
-231.556,1626.016,-178.852
-184.952,1550.376,-135.176
-143.716,1449.36,-128.832
-106.628,1328.336,-62.952
-48.556,1226.832,-54.412
-40.992,1131.428,-44.164
-42.944,1025.044,31.476
-45.872,907.68,31.476
-69.296,815.936,-0.488
-101.26,764.208,-66.368
-217.892,751.276,-168.604
-194.956,645.38,-149.328
-120.78,527.528,-67.588
-26.596,405.772,-79.056
-78.324,268.156,-37.332
-49.776,219.6,27.572
30.988,284.26,48.556
55.632,349.896,83.692
-13.42,374.052,70.76
-153.964,389.424,59.292
-203.984,411.872,31.964
-210.084,513.376,37.088
-191.784,592.432,30.5
-208.864,671.488,34.892
-291.824,685.152,-1.952
-351.116,686.86,-42.212
-379.42,737.856,-61.976
-372.1,813.008,-42.944
-345.992,892.308,-36.844
-327.448,947.208,-51.972
-335.744,971.608,-72.468
-338.672,986.736,-63.684
-347.212,1006.988,-58.316
-333.792,1013.576,-55.144
-342.088,997.228,-42.212
-322.568,980.88,-31.72
-343.064,977.464,-25.132
-349.652,951.844,-49.044
-353.312,949.892,-23.912
-343.308,955.748,-15.86
-340.868,953.552,-29.036
-345.26,973.316,-35.38
-338.184,965.264,-50.996
-300.608,950.624,-45.872
-304.512,928.176,-20.252
-328.18,906.948,-14.884
-335.744,894.504,-28.06
-337.696,880.108,-40.504
-326.716,871.812,-38.796
-313.784,865.956,-32.208
-281.82,881.816,-39.284
-324.276,825.208,-0.732
-321.348,762.5,-32.208
-344.772,767.624,-18.3
-327.936,741.272,-37.088
-348.432,706.38,-41.48
-364.536,711.016,-42.7
-354.288,716.14,-63.928
-305.488,680.76,-90.524
-199.592,660.508,-132.004
-263.276,699.548,-27.572
-61.0,708.82,89.548
641.964,676.368,112.484
1248.06,722.484,101.504
1205.36,737.856,272.792
980.392,518.988,-138.836
624.396,612.928,-49.776
1035.048,987.224,521.184
1481.812,552.416,609.512
1297.104,-51.24,460.916
963.556,-60.024,676.856
979.66,228.14,660.752
1155.584,343.796,499.224
1226.1,382.836,505.568
1137.772,299.876,479.46
945.012,209.352,430.416
823.988,202.52,438.224
794.22,230.58,456.524
759.816,195.444,454.328
686.616,118.34,449.204
587.064,48.556,439.932
621.956,71.004,396.012
671.244,103.212,335.988
681.98,161.04,234.728
694.668,174.948,88.572
761.28,277.428,-93.452
739.808,274.5,-178.12
812.276,244.976,-315.736
845.704,233.752,-428.464
837.164,238.144,-510.692
850.096,255.224,-619.272
851.072,288.164,-683.688
880.352,300.364,-728.34
936.472,293.288,-783.24
979.172,255.956,-786.168
1018.7,191.54,-755.18
1044.564,152.256,-689.544
1060.668,176.656,-640.012
1034.804,223.504,-596.58
1013.576,210.816,-560.468
1039.928,150.548,-489.708
1090.192,61.0,-368.196
1043.832,54.412,-230.58
934.52,61.732,-151.768
887.916,65.88,-83.204
872.788,80.52,-11.956
879.62,74.42,72.712
907.924,21.96,166.164
907.436,-16.104,272.792
870.104,-53.924,369.66
866.932,-59.292,437.492
915.732,-55.388,507.52
924.028,-64.904,577.792
912.56,-122.976,630.496
991.86,-130.296,677.832
1077.26,-86.864,708.088
1120.936,-63.928,714.432
1108.492,-101.992,716.14
1067.744,-215.208,726.632
1033.828,-295.484,721.02
1089.46,-294.02,698.572
1193.648,-250.344,591.456
1270.508,-204.96,385.032
1235.372,-191.296,226.676
1299.3,-81.496,51.728
1325.164,66.368,-132.492
1271.972,107.848,-325.252
1215.12,70.272,-447.984
1121.912,55.632,-515.084
1124.84,94.672,-515.084
1155.828,108.824,-485.804
1148.996,19.032,-452.376
1165.1,-65.88,-337.208
1176.812,-111.752,-205.204
1159.488,-120.292,-88.572
1135.088,-115.412,-23.18
1112.884,-102.968,14.884
1102.88,-70.028,38.308
1111.42,-17.08,78.812
1136.064,22.204,75.884
1104.588,20.74,63.928
1067.012,23.18,36.844
1041.88,93.94,43.432
1064.572,180.56,-5.124
1162.904,280.6,-33.672
1225.124,390.644,-113.216
1230.492,482.876,-222.772
907.68,573.888,-218.624
105.164,854.732,-62.464
-238.632,653.676,-50.996
131.028,776.164,-536.312
78.568,1159.244,-188.856
277.428,1251.964,-70.76
373.076,1138.26,-78.812
338.428,978.196,-162.748
-40.26,887.916,-182.024
-237.168,878.644,-205.692
-245.464,863.516,-195.444
-96.624,940.62,-211.792
-12.2,1012.6,-177.388
10.248,1058.716,-152.012
-120.78,1062.864,-165.432
-212.524,1055.788,-205.936
-202.276,1068.72,-214.476
-144.936,1053.348,-185.44
-62.952,1016.992,-155.916
-10.98,987.712,-144.936
-31.476,958.432,-147.376
-139.324,942.816,-160.796
-128.832,934.276,-173.24
-74.908,956.236,-164.944
-36.844,964.776,-146.888
-61.732,953.308,-139.812
-103.212,941.352,-155.428
-133.224,946.72,-166.652
-106.628,956.724,-157.38
-83.692,967.948,-154.452
-103.7,978.928,-148.596
-124.44,1017.724,-142.74
-128.588,1015.528,-143.716
-120.536,986.004,-144.448
-103.944,965.508,-142.008
-106.14,955.748,-137.372
-92.232,965.264,-133.224
-98.82,988.688,-140.544
-105.652,987.712,-136.152
-103.456,956.236,-151.768
-109.556,935.252,-169.824
-104.188,945.988,-151.524
-79.788,965.02,-151.524
-89.304,969.656,-158.112
-99.796,976.732,-152.988
-105.164,982.1,-153.476
-100.04,983.076,-143.228
-93.696,977.464,-136.64
-100.528,973.316,-127.856
-94.672,978.196,-126.148
-88.328,972.584,-128.1
-85.644,969.656,-122.488
-89.548,969.412,-130.296
-96.624,975.268,-136.152
-101.26,975.512,-136.64
-89.548,987.224,-142.252
-88.816,984.784,-134.444
-100.04,985.76,-134.688
-92.72,1000.888,-133.224
-84.424,1018.944,-140.544
-106.872,1027.484,-142.74
-118.096,1056.764,-144.448
-126.88,1121.424,-156.648
-136.64,1228.296,-184.22
-174.704,1408.124,-228.872
-321.348,1547.448,-234.24
-465.796,1617.964,-214.964
-376.492,1633.092,-174.46
-349.408,1798.28,-150.792
-226.432,1714.588,-164.944
12.444,1701.168,-163.968
45.384,1802.428,-160.796
203.496,1634.068,-200.08
235.704,1634.8,-140.788
313.052,1490.84,-110.532
326.96,1395.68,-87.352
361.364,1224.392,-140.3
245.464,1105.076,-92.72
108.824,986.492,-91.256
104.432,924.028,-44.652
115.9,890.356,-70.516
127.612,847.168,-63.928
80.032,747.372,-88.328
37.332,691.008,-96.868
-1.22,629.276,-135.176
39.04,521.916,-111.996
1.22,378.932,-93.94
-88.084,229.116,-63.928
-170.8,157.624,-36.6
-143.96,203.984,27.084
-101.016,304.512,67.832
-184.22,421.388,74.664
-250.1,453.108,32.208
-287.432,489.952,-4.636
-305.732,551.684,-25.132
-286.456,634.4,-9.272
-308.416,684.664,6.588
-276.208,714.188,18.544
-340.868,708.576,23.912
-332.328,721.508,25.132
-366.244,771.04,13.42
-379.42,820.084,-32.696
-376.492,883.036,-30.744
-381.86,927.2,-26.352
-333.792,920.856,-21.716
-345.504,924.272,-25.62
-366.0,933.3,-37.332
-368.196,914.756,-41.236
-350.872,898.652,-22.448
-348.676,890.6,-20.252
-357.216,896.456,-29.768
-368.196,906.46,-48.068
-358.436,901.58,-48.556
-373.564,898.164,-51.728
-365.512,885.476,-49.532
-383.812,874.008,-55.388
-393.084,867.42,-49.288
-369.66,872.788,-52.46
-355.996,882.792,-46.848
-344.772,886.696,-48.556
-358.436,871.324,-48.8
-373.808,838.14,-40.992
-388.936,786.412,-46.116
-421.388,734.684,-46.36
-455.304,703.696,-29.768
-456.28,669.78,-25.62
-440.176,684.908,-38.552
-427.732,730.536,-72.956
-405.528,772.016,-102.48
-369.904,771.772,-124.196
-298.656,719.556,-123.952
-234.24,599.508,-132.98
-100.528,558.272,-56.364
330.132,515.084,19.52
1071.892,485.072,44.896
1321.26,418.704,-69.54
1060.424,434.076,-185.196
566.568,680.516,-204.96
953.796,1080.92,242.292
1684.088,847.168,400.16
1536.712,268.156,286.7
1235.372,-28.304,392.108
1061.888,56.608,515.816
1155.584,224.724,433.832
1277.584,323.056,433.344
1193.404,271.816,367.464
963.312,113.46,361.852
799.1,33.672,416.508
743.712,42.212,455.548
772.992,74.664,455.792
789.584,100.772,426.268
721.264,43.676,365.268
697.108,-40.504,301.096
728.34,3.904,240.34
717.848,121.268,99.552
777.384,209.84,-102.968
848.876,262.056,-238.144
843.264,264.984,-393.816
882.06,337.94,-541.436
947.452,325.008,-646.844
1018.212,235.704,-720.044
1059.692,183.976,-732.488
1078.48,236.68,-710.528
1047.98,289.14,-723.46
1005.524,237.168,-743.468
1002.596,143.716,-695.156
1012.112,93.94,-601.46
1002.596,125.172,-503.616
944.036,155.916,-455.792
931.836,158.844,-423.34
967.46,124.928,-364.536
987.224,103.456,-285.236
948.428,55.388,-194.712
895.48,-14.884,-88.572
875.96,-39.284,38.552
850.096,-41.968,155.916
853.268,-57.828,235.216
913.78,-75.152,302.072
969.9,-91.5,364.536
974.292,-84.668,413.824
976.488,-77.836,456.524
1013.576,-92.72,481.9
1058.472,-94.916,523.136
1152.656,-133.956,543.144
1230.004,-141.52,549.976
1201.212,-118.34,536.556
1142.896,-135.176,528.992
1087.264,-198.86,528.016
1130.94,-209.596,537.532
1211.216,-197.396,549.732
1246.84,-220.088,494.1
1231.468,-245.22,410.164
1200.48,-250.588,315.98
1207.8,-185.44,166.652
1181.936,-55.144,11.712
1109.956,42.212,-143.228
1016.016,63.44,-285.724
964.776,81.984,-447.74
998.204,128.344,-551.44
1042.856,138.104,-600.484
1118.74,152.256,-593.408
1176.812,88.816,-543.388
1219.268,47.58,-462.624
1205.848,31.476,-362.584
1117.276,-17.568,-280.6
1086.532,-50.264,-193.248
1099.952,-57.828,-105.652
1132.648,-38.064,-56.608
1158.756,-13.42,-27.572
1181.936,18.788,2.928
1140.456,26.352,2.684
1060.424,56.364,2.44
1010.892,67.1,5.124
1013.576,81.008,3.416
1039.44,81.74,-3.416
1091.656,79.056,-2.928
1099.464,99.064,-12.688
1058.472,105.652,-25.376
1035.78,112.24,-52.948
1034.072,138.348,-63.684
1013.82,159.088,-80.276
1001.62,207.888,-101.26
1015.528,354.044,-147.132
1087.264,494.344,-197.152
1133.868,542.656,-298.9
1166.808,587.308,-437.736
757.864,758.84,-273.524
16.836,761.036,138.836
-305.488,897.676,61.976
-110.288,1032.364,-297.68
-244.0,1124.108,-101.016
421.388,926.468,-431.636
686.128,847.656,-450.424
242.048,936.96,-91.012
-120.536,954.284,134.688
-408.7,793.0,116.632
-273.768,889.136,-80.276
-77.348,987.712,-193.736
-232.776,1002.352,-114.192
-289.384,975.756,8.296
-232.044,989.42,-19.032
-193.248,986.248,-97.6
-233.508,999.424,-78.568
-232.044,1023.092,-63.928
-223.992,1018.7,-60.756
-184.708,994.056,-61.0
-167.14,984.296,-57.096
-175.192,962.092,-62.952
-174.948,976.0,-54.412
-155.184,989.176,-34.16
-164.7,982.1,-30.988
-141.52,979.66,-45.14
-142.252,968.192,-40.504
-144.692,958.432,-49.044
-150.792,952.82,-53.924
-167.628,956.968,-63.44
-175.192,957.212,-67.832
-176.412,965.264,-76.616
-191.052,964.288,-77.592
-187.392,970.388,-94.184
-200.08,962.58,-107.848
-210.084,965.996,-100.284
-195.932,978.684,-90.524
-176.9,973.316,-91.5
-198.616,969.168,-84.424
-197.64,973.804,-87.352
-197.64,952.332,-94.672
-190.32,945.256,-98.82
-181.048,965.996,-84.912
-161.772,965.264,-78.812
-159.088,966.24,-80.276
-183.976,951.356,-73.932
-177.632,965.996,-84.424
-179.34,966.24,-86.376
-186.416,968.68,-81.74
-186.66,975.512,-82.472
-185.44,962.824,-87.596
-181.048,969.168,-88.816
-186.904,985.028,-77.592
-181.292,980.636,-79.544
-179.096,965.996,-84.18
-175.68,966.24,-85.4
-180.804,961.116,-90.036
-172.02,963.556,-89.548
-176.9,969.9,-81.252
-177.388,986.98,-86.864
-177.876,1026.752,-98.332
-195.688,1088.972,-99.796
-270.596,1235.128,-107.116
-419.68,1482.056,-134.444
-598.044,1790.472,-110.532
-786.9,2068.388,-40.992
-847.168,2152.08,-10.736
-720.776,2112.552,-8.54
-481.412,2022.516,-2.196
-275.964,1972.496,39.284
-178.852,1823.412,48.8
-68.808,1637.24,-4.636
-39.04,1490.84,-21.472
-21.716,1293.932,11.956
113.704,1101.416,-56.364
95.404,1112.152,24.644
268.888,884.012,-64.172
227.652,808.86,-66.124
123.464,774.212,-7.808
156.404,606.828,-86.376
264.496,522.404,-157.38
393.084,597.556,-191.784
353.8,652.944,11.224
320.128,405.772,-123.464
69.54,332.084,-109.8
-368.196,342.576,14.64
-323.3,275.476,-9.272
-318.176,294.996,57.096
-315.248,288.896,60.756
-358.192,259.372,-55.388
15.616,360.388,-387.716
-523.136,568.764,291.58
33.428,675.148,20.008
-44.896,679.052,-110.288
-361.364,560.712,-46.116
-436.028,544.608,-69.296
-401.624,620.004,-18.3
-466.528,695.4,-23.912
-500.2,580.476,-34.892
-423.828,651.236,-13.42
-374.052,715.652,-10.004
-487.756,722.972,61.488
-521.184,711.504,24.644
-543.388,672.22,-44.408
-567.788,671.244,-47.092
-566.568,687.592,-18.544
-539.484,698.084,-40.016
-464.088,709.308,-65.148
-466.04,709.308,-48.8
-513.132,732.244,-44.164
-505.812,730.048,-84.668
-392.596,750.788,-96.868
-176.656,786.9,-50.508
-107.848,803.248,-19.52
-163.236,801.784,-45.628
-134.2,814.96,-124.196
-145.424,780.8,-142.74
480.192,699.304,-76.616
1075.308,623.42,-80.276
1135.332,697.84,-70.272
1016.504,516.06,-450.912
871.08,666.364,-84.912
1477.176,1007.232,192.516
1503.284,650.992,359.656
1086.532,10.736,262.788
934.032,-34.892,436.76
991.372,77.592,555.588
1046.76,126.88,473.848
1179.008,173.728,508.984
1119.228,134.2,509.716
864.736,16.348,477.02
670.024,-12.444,464.82
593.652,10.492,454.084
645.868,26.352,379.176
733.22,-13.908,275.232
729.316,-9.028,182.756
766.16,66.124,42.456
773.236,151.768,-109.068
780.068,166.896,-288.652
875.228,199.592,-459.94
934.276,261.812,-578.036
875.716,279.624,-721.02
904.508,275.72,-843.02
973.56,227.896,-888.16
1053.348,151.524,-902.8
1096.78,91.744,-858.88
1115.568,73.2,-800.076
1103.856,81.008,-759.084
1111.176,69.54,-721.508
1120.448,62.464,-670.268
1090.192,58.316,-594.628
1053.104,54.656,-503.128
974.292,44.164,-378.932
878.644,35.38,-255.224
822.28,-24.644,-131.516
805.932,-70.516,16.348
827.16,-104.432,150.304
889.624,-71.98,275.232
873.52,-40.992,340.38
796.904,-40.504,354.776
772.016,-60.268,395.28
810.08,-117.364,456.768
868.396,-164.944,530.212
940.376,-193.736,573.644
998.448,-194.712,618.052
1053.104,-231.556,669.048
1067.744,-286.456,702.476
1097.512,-321.104,716.872
1140.7,-308.416,703.94
1136.308,-309.392,638.792
1171.688,-310.368,503.128
1262.456,-272.06,392.84
1354.932,-185.44,278.404
1331.264,-152.256,168.604
1348.832,-149.572,49.776
1314.428,-140.056,-55.144
1265.384,-81.252,-194.224
1166.564,-29.768,-316.956
1093.852,-54.168,-434.564
1063.108,-57.828,-515.816
1079.944,-13.42,-489.708
1057.74,-10.98,-457.256
994.544,-80.032,-433.832
1004.792,-126.148,-377.468
1096.536,-132.492,-300.608
1200.724,-148.108,-217.404
1235.86,-128.1,-165.676
1186.572,-51.24,-97.844
1143.384,-76.616,-69.54
1106.784,-21.472,-46.604
1095.072,-76.372,-72.468
1071.648,-7.32,-50.996
1056.276,17.568,-67.344
1025.776,87.84,-82.228
994.544,100.284,-113.948
978.44,84.668,-150.304
993.324,92.232,-212.768
996.984,212.036,-263.276
942.816,550.952,-300.608
912.804,693.936,-347.944
759.328,725.168,-407.236
376.004,791.048,-438.468
-111.02,765.428,-132.004
202.764,1072.38,32.452
498.736,1255.624,-257.664
237.168,1295.64,148.596
449.204,1262.944,-126.392
183.976,1115.568,-43.92
-357.46,884.988,44.896
-589.26,874.496,120.292
-313.54,893.04,-33.672
-77.104,941.352,-169.824
-67.832,1058.716,5.856
-281.088,1030.168,-8.296
-355.264,928.664,-91.5
-364.78,939.4,-127.612
-326.96,954.528,-96.868
-287.188,988.444,-68.076
-183.488,964.776,-109.8
-158.356,949.648,-106.872
-282.308,911.096,-107.116
-323.788,880.108,-107.36
-290.848,921.344,-117.12
-269.864,933.788,-108.824
-225.7,915.488,-90.524
-235.46,909.388,-67.588
-290.848,911.34,-96.38
-300.364,920.124,-91.988
-250.1,928.664,-88.816
-246.196,940.132,-82.716
-277.428,960.384,-56.608
-266.448,974.292,-73.932
-268.4,957.944,-89.304
-278.16,956.236,-80.032
-283.284,955.26,-73.444
-264.496,963.556,-76.86
-255.224,968.68,-66.612
-235.704,982.588,-63.196
-252.54,983.32,-58.072
-259.372,958.188,-57.828
-234.484,949.648,-58.56
-246.684,944.768,-51.484
-240.584,959.408,-50.996
-233.996,971.364,-55.876
-242.048,958.188,-57.828
-236.192,942.816,-64.66
-239.852,947.696,-67.1
-224.48,967.216,-63.44
-218.38,1010.404,-66.612
-242.78,1077.748,-54.168
-277.428,1167.296,-45.872
-360.632,1319.308,-34.16
-469.456,1501.088,-47.824
-581.696,1601.128,-41.48
-649.04,1617.232,-52.216
-645.624,1571.848,-30.988
-532.652,1587.22,-62.952
-326.96,1583.56,-100.284
-245.952,1563.796,-34.892
-227.164,1498.404,-22.204
-120.048,1441.308,-64.66
5.368,1383.236,-104.92
189.832,1254.648,-170.8
-2.44,1255.868,-66.124
145.18,1181.692,-101.992
213.5,1123.864,-94.184
145.424,1063.108,-140.788
176.412,1044.808,-65.636
219.6,1003.328,-56.608
114.192,982.588,-12.2
25.132,842.776,-57.584
-125.416,817.888,-15.372
-68.32,741.028,-107.36
-125.172,743.712,-57.828
17.812,537.776,-132.736
-98.576,498.004,-70.516
-174.948,442.86,-62.708
-171.532,309.636,-80.276
-236.436,266.204,-21.96
-259.86,265.472,19.276
-184.952,296.216,37.576
-141.276,385.032,55.144
-141.52,508.984,75.152
-222.772,552.66,78.08
-304.756,600.24,66.368
-279.136,636.84,2.44
-284.016,723.216,3.904
-293.532,813.74,39.284
-281.332,851.804,52.216
-314.76,826.184,18.3
-387.472,824.72,15.128
-366.0,860.344,15.372
-411.384,927.932,7.076
-354.288,958.676,22.448
-318.42,933.544,-2.196
-360.144,905.24,5.124
-374.784,915.244,2.684
-364.048,951.844,-25.864
-344.284,971.12,-18.3
-345.016,964.776,-26.596
-350.872,946.72,-23.18
-336.232,901.336,-15.86
-313.784,878.644,15.372
-317.932,894.016,15.616
-344.772,895.48,-5.612
-348.188,886.208,-20.984
-350.14,869.128,-26.352
-356.728,853.512,-34.404
-388.204,843.02,-59.78
-405.772,832.04,-53.68
-400.16,820.328,-52.216
-412.116,797.148,-43.432
-422.608,779.824,-33.672
-441.152,760.304,-46.36
-458.964,740.54,-57.828
-456.768,710.284,-73.688
-504.348,630.496,-68.564
-541.924,522.892,-79.056
-427.0,429.684,-111.996
37.82,434.32,-172.996
396.256,634.4,89.06
756.4,735.66,30.012
1240.008,764.452,-144.448
1228.296,934.52,-131.028
787.632,654.408,-224.724
668.072,638.06,-174.948
1240.252,821.548,72.956
1819.508,742.004,194.224
1605.032,262.544,238.388
1118.984,98.332,270.108
901.58,95.16,378.932
956.48,120.536,375.76
1004.06,62.952,388.936
1043.1,19.276,419.192
893.04,-64.172,343.308
671.732,-16.348,292.312
612.44,16.104,237.168
612.196,31.476,120.536
560.468,70.76,-43.676
591.7,154.208,-190.076
657.58,284.992,-332.084
724.192,307.196,-470.188
743.956,238.632,-605.12
788.608,259.616,-737.856
839.604,329.888,-856.928
787.632,286.456,-1000.644
760.548,259.128,-1080.188
811.056,273.28,-1095.316
870.592,301.096,-1112.152
959.408,302.56,-1097.024
1015.528,199.104,-1060.668
1053.592,90.768,-986.004
1092.876,56.608,-829.6
994.3,54.9,-711.504
869.372,87.108,-618.54
882.548,82.472,-511.424
912.804,-15.86,-380.396
915.244,-99.308,-199.104
874.496,-107.604,-24.156
844.972,-106.384,109.068
909.632,-115.656,200.812
967.948,-145.18,284.748
1002.84,-164.456,367.708
1001.864,-192.516,453.84
956.724,-229.36,499.712
985.76,-237.412,511.424
1091.412,-191.54,495.076
1125.816,-153.964,438.468
1141.432,-169.824,385.276
1138.748,-196.176,377.956
1146.8,-209.108,343.308
1189.988,-207.4,264.252
1223.172,-191.296,192.76
1248.06,-175.924,120.536
1270.508,-157.136,56.608
1283.928,-150.548,2.44
1278.072,-181.048,-58.804
1313.452,-154.696,-177.388
1282.708,-103.212,-286.456
1237.08,-39.772,-405.528
1168.272,-28.792,-487.512
1139.968,-8.052,-525.088
1102.392,12.2,-562.908
1066.036,43.676,-591.456
1048.956,68.076,-581.94
1086.776,46.604,-539.24
1104.1,-30.744,-444.08
1045.784,-89.06,-363.316
1049.444,-114.436,-288.164
1062.864,-105.652,-225.7
1052.372,-111.508,-173.972
1051.152,-139.812,-143.472
1034.072,-149.328,-115.412
1026.752,-144.692,-98.332
1032.608,-142.252,-98.332
1041.88,-127.368,-101.992
1033.584,-122.732,-114.192
1011.868,-98.576,-127.124
977.952,-87.352,-143.228
955.504,-53.436,-172.752
972.096,-50.996,-201.056
1003.816,-34.404,-222.772
1027.24,24.4,-268.644
887.428,271.816,-308.66
811.3,499.468,-466.284
769.332,604.144,-472.872
509.472,621.468,-437.492
-79.544,893.772,-400.648
443.348,1128.744,55.144
668.072,1244.888,5.612
464.088,1196.332,247.904
391.864,1015.772,53.436
97.356,915.976,25.376
-50.508,893.772,7.808
-103.212,918.66,-78.324
-53.192,974.292,-108.58
-7.564,1078.48,-74.908
-10.492,1075.308,-53.924
-50.996,1024.556,-73.688
-82.716,1006.012,-126.392
-75.396,1032.12,-134.932
39.284,1074.088,-154.696
-12.688,1072.38,-134.2
-59.78,1044.808,-133.712
-50.02,1001.864,-130.052
-37.576,969.168,-153.232
-15.128,953.552,-145.912
-30.012,952.088,-151.036
-56.852,967.216,-145.912
-53.924,992.104,-122.732
-44.408,977.464,-118.584
-37.576,933.056,-113.216
14.152,935.008,-130.54
-19.52,959.164,-117.12
-50.02,977.952,-136.152
-66.612,1007.232,-125.66
-66.612,996.496,-130.784
-58.072,960.628,-144.936
-53.192,955.504,-154.696
-57.584,976.732,-143.472
-62.464,1014.308,-122.976
-56.12,1024.8,-120.048
-57.096,1000.888,-121.268
-63.196,988.688,-121.756
-48.068,980.148,-119.316
-34.892,986.004,-118.096
-52.704,974.536,-120.78
-63.196,978.684,-125.66
-48.068,981.856,-126.88
-43.92,987.468,-111.02
-40.26,965.752,-119.072
-41.968,944.036,-125.66
-41.48,945.256,-128.832
-46.604,968.68,-126.148
-65.88,992.592,-122.976
-72.224,991.128,-143.472
-61.976,962.092,-155.916
-60.512,956.724,-140.056
-73.444,962.58,-139.812
-77.348,980.148,-148.352
-56.12,992.836,-138.348
-53.192,992.104,-133.468
-60.512,987.712,-135.176
-63.44,964.044,-136.396
-51.484,956.236,-139.812
-54.656,967.46,-137.372
-46.116,981.612,-136.152
-40.016,983.808,-137.128
-44.652,983.808,-135.908
-45.628,985.516,-130.052
-38.064,981.612,-128.1
-35.136,981.368,-132.98
-49.288,984.54,-131.76
-62.708,1009.672,-152.012
-51.484,1063.352,-133.712
-63.44,1146.8,-87.108
-88.572,1394.704,-92.964
-255.468,1735.328,-172.752
-421.876,2008.608,-196.664
-476.288,2179.896,-132.248
-441.152,2181.116,-98.332
-246.928,2087.664,-92.964
-121.024,1965.908,-85.156
41.724,1794.864,-114.436
100.284,1642.852,-107.848
156.892,1488.4,-111.264
251.808,1361.52,-125.66
230.336,1261.724,-69.784
207.156,1182.912,-56.12
153.72,1124.596,-13.42
236.924,950.136,-74.908
177.876,887.916,-53.436
150.792,781.532,-117.608
51.728,711.992,-131.028
25.62,571.448,-43.432
50.996,537.532,-17.324
90.524,506.544,-136.884
80.52,479.704,-131.272
279.136,504.104,-147.864
226.676,383.568,-107.36
101.26,344.284,-43.432
-99.064,372.588,80.276
-179.584,259.128,70.272
-182.756,265.472,11.224
-262.788,416.02,68.564
-331.352,462.868,117.364
-271.572,525.088,116.632
-290.36,550.952,238.876
-287.92,559.492,95.892
-309.636,661.728,6.588
-434.32,738.588,146.4
-379.42,755.912,123.952
-399.184,759.572,-16.592
-671.488,676.856,23.424
-747.128,767.38,43.432
-691.984,734.44,31.964
-429.928,644.16,-22.692
-111.508,754.692,-11.224
-51.24,791.048,-118.34
-233.264,771.04,-122.244
-482.632,762.988,77.592
-456.036,763.964,83.936
-354.288,760.304,-5.368
-446.032,679.052,-114.68
-608.292,749.812,-26.108
-396.744,824.476,-72.224
-286.212,852.048,-108.092
-238.388,864.736,-118.34
-87.84,790.072,-243.024
24.888,644.892,-38.552
-534.604,619.272,228.384
396.988,478.728,184.22
1130.208,336.964,-4.392
1502.796,429.196,-95.404
1145.824,640.988,-348.92
844.484,695.888,-391.864
1578.68,1319.796,-109.068
1835.612,810.08,59.292
1553.304,268.888,104.92
1071.404,45.872,172.752
989.42,164.212,347.7
1116.788,320.372,191.296
1291.004,329.888,175.436
1234.64,267.668,233.996
1002.84,122.488,246.684
807.152,60.024,285.48
712.48,69.54,298.412
713.7,93.452,230.092
688.812,150.792,187.88
556.808,145.18,108.58
437.492,104.432,18.056
516.304,138.592,-110.288
629.032,234.484,-261.324
669.78,302.804,-434.076
680.516,261.324,-587.796
690.764,204.228,-689.3
685.152,197.152,-758.84
700.036,199.836,-828.38
765.428,240.34,-909.388
850.096,199.592,-944.768
938.912,202.52,-979.904
978.928,243.268,-1018.456
1019.676,248.148,-1044.808
1041.88,172.996,-993.812
1026.996,119.804,-863.272
995.032,84.18,-725.412
968.924,77.104,-596.092
958.676,98.576,-509.96
993.324,72.956,-430.904
1047.004,81.74,-311.832
1053.592,77.836,-206.424
1005.28,52.704,-121.512
969.9,31.964,-23.668
930.372,3.66,91.5
906.46,-25.62,189.832
879.376,-32.452,259.128
851.56,-84.668,328.424
819.352,-124.684,421.876
814.472,-143.716,504.104
823.256,-181.536,553.392
948.428,-183.488,568.764
1037.976,-195.444,554.856
1077.992,-187.392,557.296
1072.136,-230.092,566.812
1112.884,-270.596,554.856
1278.56,-285.48,522.16
1320.772,-303.78,503.128
1305.156,-356.484,490.196
1229.028,-430.904,455.792
1342.732,-423.584,344.04
1470.1,-318.176,199.348
1439.6,-248.636,46.36
1388.36,-219.844,-103.944
1326.384,-165.188,-250.588
1274.656,-93.696,-386.008
1182.668,-38.308,-488.488
1087.02,-20.984,-551.44
1006.5,-10.248,-585.6
949.892,-1.464,-576.084
871.08,-25.132,-545.34
807.884,-43.188,-509.472
758.352,-3.66,-404.552
823.5,-40.26,-420.168
821.304,154.208,-373.564
835.212,253.028,-369.172
823.012,393.328,-487.024
698.572,820.816,-410.896
657.336,1073.6,-512.888
422.608,827.404,-367.22
31.232,489.708,-41.48
230.824,729.072,-113.948
461.404,1366.888,-13.664
119.804,1385.432,243.024
221.796,1186.328,-216.184
107.604,1076.772,-181.048
-332.816,1091.9,22.448
-332.328,1012.6,-64.172
-390.888,1054.812,-136.884
-302.804,1143.628,-177.144
-331.596,1201.456,-152.5
-346.724,1169.492,-140.544
-343.796,1153.876,-200.324
-387.716,1107.516,-161.04
-268.156,1105.076,-155.428
-220.82,1074.82,-107.116
-207.156,1019.92,-110.288
-164.7,986.248,-139.08
-117.12,965.508,-137.128
-93.94,934.52,-135.176
-99.064,906.948,-105.896
-103.7,882.06,-111.02
-134.444,901.336,-145.424
-150.548,894.016,-114.924
-116.388,906.46,-116.876
-126.88,871.812,-132.98
-194.468,878.4,-155.916
-211.548,877.668,-146.888
-170.556,922.32,-152.5
-177.388,952.576,-132.492
-220.332,1014.308,-177.876
-274.744,987.956,-171.532
-233.508,986.248,-168.36
-159.576,1000.156,-155.916
-156.16,1002.84,-132.736
-189.344,1002.596,-128.344
-168.116,987.468,-153.964
-174.216,963.068,-138.104
-159.576,960.14,-123.952
-143.96,968.436,-118.096
-158.356,981.124,-117.364
-171.044,983.564,-109.312
-165.676,967.216,-109.312
-159.332,950.136,-112.728
-146.156,953.064,-119.072
-150.548,960.384,-115.412
-151.524,967.216,-121.756
-160.064,964.044,-123.464
-146.888,965.996,-133.224
-140.788,975.024,-129.076
-152.988,971.608,-126.392
-161.04,951.6,-133.468
-153.964,941.352,-150.06
-157.38,946.476,-149.084
-155.428,956.236,-149.328
-160.552,981.856,-149.572
-161.528,983.808,-147.132
-156.648,986.492,-140.3
-143.716,971.364,-141.52
-146.156,958.92,-151.28
-152.744,957.456,-147.62
-137.128,959.896,-144.448
-140.544,973.072,-140.3
-150.548,974.78,-138.104
-136.396,971.364,-137.86
-118.584,971.364,-129.076
-130.784,961.36,-128.588
-149.816,952.576,-147.132
-148.352,961.116,-162.016
-136.152,989.664,-155.428
-106.384,1062.62,-126.148
-123.464,1159.732,-74.42
-228.14,1345.172,-79.788
-453.108,1627.48,-133.224
-639.036,1891.732,-188.368
-729.072,2013.244,-132.004
-701.256,2002.02,-33.916
-563.884,1952.976,-16.348
-429.196,1850.496,-16.592
-228.872,1796.572,-56.364
-76.616,1715.076,-121.512
92.232,1547.448,-197.396
167.384,1374.696,-254.492
58.072,1268.312,-227.408
193.492,1171.444,-221.552
186.416,1097.512,-222.528
119.804,997.228,-206.668
149.816,881.572,-189.588
114.436,775.432,-144.692
109.068,651.968,-102.724
96.38,546.804,-153.476
54.412,526.064,-105.652
-17.08,516.304,-11.224
176.656,566.08,-96.624
156.16,442.86,-176.168
-474.824,518.012,39.772
-218.624,488.976,-50.508
-221.552,653.188,38.796
-104.188,618.296,40.504
-172.752,560.956,118.584
-266.936,444.568,70.028
-249.856,464.82,28.304
-269.864,512.644,12.2
-253.272,504.104,-1.22
-194.712,581.452,18.544
-187.88,608.78,34.892
-238.632,663.924,6.344
-301.096,677.344,23.912
-454.572,657.336,103.944
-477.508,713.212,96.868
-458.964,733.22,-18.544
-560.956,740.052,-60.024
-595.116,732.0,-58.072
-555.588,667.096,-1.22
-207.888,603.412,14.884
142.008,614.636,36.356
-397.232,439.444,-84.424
-1352.98,538.996,188.368
-294.02,526.064,68.32
-56.852,570.472,-143.472
402.356,673.928,-248.636
788.608,808.128,-288.652
953.552,772.016,-288.408
955.992,787.144,-370.636
681.248,531.92,-300.364
630.496,482.876,-9.516
1075.064,519.72,254.004
1213.9,344.284,285.968
1244.4,226.92,278.404
1302.228,245.464,320.128
1294.176,292.8,282.552
1187.06,295.728,243.756
1171.932,303.292,249.612
1137.528,287.432,267.912
1112.64,262.056,285.48
1174.86,225.944,313.54
1107.516,186.904,331.352
999.18,148.108,337.208
925.248,107.848,336.964
792.512,69.052,263.764
757.132,181.292,239.608
657.336,186.416,183.244
577.06,86.62,61.244
631.96,74.42,-10.98
673.684,99.064,-130.052
653.676,167.628,-294.996
636.84,299.144,-524.356
615.368,374.54,-711.26
653.676,364.536,-857.172
647.82,269.62,-924.272
672.952,172.508,-916.952
740.54,135.176,-916.22
792.268,167.14,-911.096
835.7,216.428,-926.956
894.748,199.592,-953.308
916.708,89.548,-930.86
917.928,67.344,-861.808
897.432,68.564,-789.34
896.7,113.948,-722.972
849.12,98.332,-650.992
848.632,27.084,-551.928
857.904,-102.968,-387.472
870.348,-178.12,-219.6
876.692,-175.68,-79.788
887.184,-143.96,56.364
927.2,-111.752,138.104
969.656,-138.836,197.884
989.664,-160.308,275.476
1002.352,-126.148,332.816
1017.968,-103.212,374.296
1056.032,-64.904,407.724
1137.04,-52.948,424.56
1203.164,-50.508,470.92
1221.464,-121.512,510.448
1191.94,-197.152,553.88
1243.912,-239.364,552.66
1340.048,-220.82,502.396
1369.572,-241.072,466.528
1317.844,-255.224,387.716
1396.9,-194.468,299.876
1402.756,-96.624,172.752
1400.316,-108.58,30.744
1491.572,-24.156,-129.076
1360.788,-62.22,-215.696
1177.3,-28.06,-325.008
1009.184,24.888,-406.748
940.62,91.012,-561.444
791.78,200.812,-677.832
653.92,230.824,-704.916
731.512,251.808,-761.524
899.14,295.484,-781.532
878.4,269.864,-701.012
1047.98,220.332,-681.492
999.18,205.692,-550.464
985.028,177.144,-462.38
930.616,168.116,-363.072
955.26,170.068,-309.636
1021.384,189.344,-276.94
1060.424,196.42,-266.936
1085.312,233.508,-254.248
1066.768,249.368,-244.488
1040.66,258.396,-238.632
1029.436,302.316,-240.34
1005.524,367.952,-244.488
969.656,472.14,-282.308
933.544,669.78,-380.64
817.4,701.5,-464.332
800.076,615.368,-550.464
287.432,958.92,-528.748
-219.356,903.044,-55.388
11.468,534.848,49.776
394.548,926.712,-295.24
579.744,977.952,-332.816
507.276,1056.276,-36.6
308.416,1026.264,-100.04
-159.82,864.004,156.892
-161.528,832.772,-22.692
-230.824,921.588,-72.468
-226.92,980.636,-30.5
-156.16,1031.388,-17.08
-137.372,1085.556,-8.784
-165.432,1127.036,-57.096
-248.148,1134.844,-41.968
-272.304,1123.864,-55.876
-248.392,1094.828,-88.572
-192.516,1076.772,-106.628
-192.516,1072.136,-105.896
-228.628,1050.42,-93.208
-187.392,1047.736,-122.976
-144.204,1001.62,-113.46
-137.616,970.388,-96.38
-115.9,945.988,-77.104
-113.948,943.06,-89.548
-126.392,933.056,-97.356
-147.376,944.28,-109.556
-138.836,945.988,-94.916
-130.54,948.428,-80.52
-136.396,943.06,-73.688
-140.3,928.908,-88.328
-145.668,951.6,-92.476
-136.64,979.416,-74.176
-131.76,988.2,-77.104
-131.272,978.44,-91.988
-150.06,977.22,-97.356
-163.236,980.148,-92.964
-164.212,990.152,-109.556
-164.7,985.76,-107.604
-151.768,988.2,-104.188
-151.768,982.832,-95.892
-151.036,974.292,-108.336
-157.624,955.748,-103.456
-151.036,962.58,-100.528
-148.108,962.092,-91.012
-129.32,973.316,-85.644
-119.316,962.824,-102.968
-146.156,939.888,-99.064
-137.616,943.304,-110.288
-140.3,957.212,-103.944
-137.616,964.044,-109.068
-132.004,965.508,-99.796
-121.268,984.296,-102.236
-135.664,978.684,-104.188
-139.568,978.44,-102.236
-127.612,977.464,-102.236
-129.564,980.636,-95.892
-139.324,993.568,-97.112
-140.544,991.128,-107.604
-126.88,996.984,-105.652
-127.368,994.788,-102.236
-136.396,983.32,-101.016
-127.856,975.024,-109.312
-124.928,982.344,-103.944
-124.928,983.808,-103.456
-112.972,974.292,-106.628
-109.8,966.24,-103.456
-108.58,969.656,-101.016
-108.58,966.24,-106.872
-109.068,967.216,-117.608
-116.144,961.848,-114.924
-116.876,962.092,-112.728
-117.364,956.968,-125.66
-117.12,951.356,-126.148
-117.852,970.144,-131.76
-116.632,1030.412,-113.216
-171.044,1132.16,-69.052
-290.116,1325.652,-9.516
-449.936,1710.196,-42.456
-704.672,2114.748,-110.044
-908.412,2342.888,-71.736
-899.384,2470.744,-18.544
-662.216,2408.524,2.928
-338.916,2210.152,-69.052
-171.532,1882.46,-187.392
-136.152,1543.544,-231.556
-14.884,1288.32,-214.232
72.956,1122.4,-152.256
77.104,916.464,-127.612
43.92,741.76,-103.212
19.52,717.36,-75.64
25.132,691.496,-80.032
-125.904,647.088,19.276
-40.748,662.948,-23.424
17.08,746.884,-74.42
258.64,671.976,-249.612
186.416,496.052,-235.46
-19.276,468.724,-121.268
81.984,447.74,-141.764
-30.744,498.004,33.672
166.408,462.136,67.344
33.672,303.78,23.668
-236.68,292.8,80.032
-278.16,468.724,122.732
-202.52,490.928,73.2
-241.072,518.256,164.944
-218.38,516.548,158.6
-214.232,581.94,162.016
-312.564,613.66,104.92
-330.62,569.496,-17.324
-434.32,588.284,78.08
-437.736,612.44,85.156
-233.264,688.812,-134.2
-276.94,854.0,-203.984
-365.024,886.208,-122.732
-479.216,850.584,-29.768
-674.66,776.652,86.132
-752.496,730.048,-23.424
-684.176,668.804,-152.012
-642.94,619.516,-88.084
-504.104,587.308,-11.224
-244.0,600.728,-79.788
-127.612,607.804,-223.26
-96.38,587.552,-338.672
25.376,647.332,-423.34
-125.904,757.62,-271.084
-624.396,711.26,444.568
-674.416,726.876,150.548
131.028,623.42,35.868
852.536,363.56,-59.78
1183.4,395.524,-83.692
1288.32,569.008,-173.484
1078.48,806.664,-380.152
1261.236,1043.1,-277.428
1666.764,693.936,-61.244
1796.816,78.324,251.076
1481.812,-26.84,397.476
1208.288,174.46,294.996
1181.692,315.492,120.78
1360.544,401.136,136.64
1366.888,294.752,168.116
1213.656,163.724,214.476
1025.776,133.956,250.832
909.876,131.516,248.636
904.02,155.672,234.728
877.18,116.876,211.304
794.22,50.02,152.744
704.184,29.524,102.48
631.716,38.796,66.124
615.612,97.844,-71.98
615.612,171.532,-254.004
628.544,192.76,-379.908
683.932,186.416,-512.644
757.376,195.688,-630.984
788.608,239.608,-779.336
829.844,227.408,-938.18
897.92,210.572,-1041.392
925.98,166.408,-1101.416
959.652,148.108,-1105.076
979.904,167.384,-1074.332
1005.768,136.152,-1059.936
1011.136,57.828,-1044.808
968.924,4.148,-997.472
933.3,2.196,-890.112
920.856,-40.26,-763.72
922.32,-77.592,-628.544
919.392,-106.628,-505.812
883.768,-134.932,-382.592
835.7,-123.464,-264.252
855.22,-108.092,-146.888
867.908,-114.924,-72.956
864.248,-103.944,10.004
865.224,-89.304,106.872
887.184,-85.156,163.724
891.82,-102.48,220.332
892.796,-113.948,295.484
881.084,-120.78,338.184
855.464,-120.78,396.988
819.84,-154.94,461.892
894.26,-183.0,484.828
1021.872,-169.824,519.964
1027.728,-196.908,528.504
979.66,-243.268,575.352
1036.024,-274.012,624.884
1195.6,-283.772,670.024
1225.124,-387.716,665.632
1199.992,-460.184,617.564
1196.576,-448.472,574.132
1298.812,-405.04,436.516
1384.944,-358.68,239.12
1366.644,-325.252,66.612
1340.536,-296.948,-96.624
1371.036,-255.956,-253.272
1368.108,-169.092,-396.988
1291.98,-98.576,-523.868
1238.3,-94.672,-588.284
1171.444,-96.136,-593.408
1100.928,-51.972,-559.248
1037.488,-25.62,-524.6
975.024,-39.528,-475.8
930.616,-34.404,-421.632
870.836,-35.624,-380.884
953.796,-49.288,-358.68
999.912,169.824,-312.564
952.332,304.268,-277.916
946.72,511.18,-353.068
869.616,698.816,-493.856
515.572,954.284,-387.716
711.992,875.96,-576.816
93.452,682.468,-230.58
117.364,864.98,-69.052
157.38,1214.876,1.464
69.54,1047.98,416.752
180.316,1003.328,-195.688
148.84,988.444,-182.756
-180.804,1001.132,-134.444
-410.408,912.072,46.36
-538.752,961.604,148.352
-483.852,1021.14,-38.552
-485.072,1069.452,-84.424
-533.628,1116.056,15.372
-561.688,1137.04,93.696
-463.6,1143.14,37.088
-409.432,1093.12,-4.88
-381.86,1042.612,-13.908
-343.308,1004.06,23.912
-278.648,985.028,11.712
-226.188,983.564,5.856
-198.372,949.404,-28.792
-219.112,917.684,-12.444
-187.392,903.288,-4.148
-181.048,890.844,-4.148
-194.956,876.448,-14.64
-211.548,878.888,-49.044
-237.168,878.888,-31.72
-235.216,887.916,-42.7
-280.844,916.22,-57.34
-305.976,920.368,-41.724
-278.404,962.336,-39.04
-287.432,978.928,-21.96
-337.94,978.196,-36.844
-332.084,968.68,-51.24
-290.604,969.168,-46.116
-266.692,981.124,-21.228
-261.812,979.904,-6.588
-280.844,984.052,-25.62
-293.044,962.58,-24.4
-257.42,958.92,-25.376
-227.408,940.62,-16.592
-243.024,932.568,-11.224
-260.836,939.4,-23.424
-262.544,938.912,-26.108
-258.64,933.544,-29.036
-261.324,923.54,-34.16
-266.692,929.152,-41.724
-276.208,945.256,-45.384
-279.868,951.6,-48.556
-274.5,954.528,-49.044
-264.008,953.064,-48.312
-260.348,948.428,-45.872
-265.472,955.992,-41.724
-264.74,945.5,-40.26
-248.88,945.012,-33.916
-228.628,954.772,-25.132
-224.968,953.796,-20.984
-239.608,960.872,-25.864
-250.1,967.704,-26.352
-251.32,962.58,-20.008
-230.336,965.02,-25.132
-226.92,967.948,-31.72
-242.048,957.456,-31.72
-254.248,954.528,-33.428
-245.22,957.456,-35.38
-226.432,965.264,-36.356
-219.844,962.336,-38.064
-235.216,951.356,-38.064
-243.512,945.744,-38.308
-233.02,956.236,-38.552
-224.724,960.14,-26.108
-224.724,971.12,-31.232
-240.34,973.072,-44.896
-245.708,989.908,-50.264
-265.228,1014.552,-42.7
-287.432,1047.004,-32.94
-343.064,1125.328,-28.548
-444.08,1219.024,-15.372
-515.084,1363.96,-43.92
-566.568,1510.36,-85.156
-628.544,1587.464,-36.112
-601.46,1540.128,10.736
-466.772,1485.716,-7.076
-335.744,1410.32,-11.712
-219.844,1311.744,-16.836
-148.596,1219.268,-12.444
-103.456,1079.456,-23.18
-145.18,977.952,-20.496
-113.46,895.968,-66.368
-20.496,865.468,-30.256
20.74,871.324,0.244
-52.704,826.428,25.376
-5.124,712.48,-40.992
15.86,692.96,-76.86
6.344,642.452,-57.34
-79.788,605.852,-16.348
-56.608,670.268,-20.74
-64.416,771.772,-10.004
-109.312,806.176,-31.964
-162.504,876.692,-32.94
-181.292,940.864,0.732
-151.524,978.684,-27.328
-164.456,1010.648,-30.988
-209.108,1019.432,-50.996
-188.368,1025.044,-82.472
-176.9,1043.1,-54.168
-153.232,1035.536,-41.236
-186.416,1040.66,-38.552
-213.988,1035.292,-41.48
-190.808,1042.368,-74.908
-179.584,1048.712,-66.856
-193.248,1083.848,-8.296
-123.952,1051.152,-46.116
-38.796,935.496,-159.332
-189.344,861.076,-67.1
-129.564,899.872,-108.824
-67.588,960.14,-128.344
-92.232,951.6,-68.564
-187.392,900.604,-2.44
-178.608,813.984,-38.308
-168.848,806.176,-50.02
-231.068,826.916,-4.148
-266.448,843.02,-6.588
-248.392,852.292,-4.392
-218.624,864.98,-2.196
-203.496,850.34,-21.228
-163.968,819.352,-31.476
-209.596,842.044,4.392
-176.656,825.696,-12.688
-235.948,885.72,13.908
-244.488,840.824,-2.928
-285.236,848.876,18.056
-275.476,854.732,-8.784
-241.56,847.9,-19.52
-243.268,878.156,16.592
-243.024,885.232,50.02
-213.744,879.864,23.424
-199.348,859.612,-5.612
-217.892,872.544,43.188
