acc_x[mg],acc_y[mg],acc_z[mg]
-96.38,900.36,23.668
-93.94,914.024,24.156
-64.416,948.184,3.416
-34.892,985.76,-24.4
-8.784,1016.504,-56.852
12.932,1037.976,-82.716
24.888,1045.296,-104.432
8.54,1036.268,-110.044
-31.964,1013.576,-103.944
-72.956,980.392,-77.592
-107.604,950.136,-42.7
-136.884,930.372,-6.1
-149.084,910.364,15.86
-151.036,904.996,28.792
-133.712,918.416,30.012
-108.336,941.352,14.152
-69.296,970.144,-6.344
-46.604,993.08,-29.28
-41.968,1003.328,-37.82
-49.044,1005.524,-41.236
-56.364,1000.644,-39.528
-61.0,999.424,-33.916
-51.24,996.74,-20.74
-45.872,998.936,-5.368
-38.308,989.42,1.952
-39.772,977.708,10.492
-51.484,965.02,21.228
-70.272,962.336,25.132
-75.64,966.728,24.644
-72.224,973.316,22.204
-68.076,982.344,19.764
-56.608,988.932,19.032
-57.096,992.836,25.132
-61.976,991.616,25.132
-58.316,995.032,21.96
-47.336,1005.524,7.076
-42.212,1014.552,-3.416
-45.14,1016.504,-9.028
-74.908,1014.308,-1.952
-57.096,1002.596,-26.352
-67.832,1000.4,-19.764
-91.988,980.636,-6.344
-102.968,969.412,-10.736
-101.748,969.9,-23.18
-93.696,983.076,-27.084
-123.22,990.152,-47.092
-120.536,984.784,-65.636
-110.044,985.76,-68.564
-94.184,990.152,-59.292
-117.12,964.044,-20.984
-84.912,979.172,-41.48
-62.22,974.78,-36.844
-131.272,982.344,-34.648
-66.856,970.632,-57.096
-103.456,973.072,-36.844
-92.232,972.096,-46.848
-86.376,960.872,-47.336
24.888,966.728,0.0
-149.572,983.564,21.228
-111.508,993.324,-17.812
-160.552,996.008,-47.824
-112.484,1017.724,-105.896
-30.744,1022.604,-19.276
-80.276,990.884,11.712
-112.972,975.268,0.732
-73.688,960.384,4.148
-157.868,963.068,-32.696
-132.492,976.732,-66.124
-85.156,1002.352,-74.908
-75.152,1011.868,-74.42
-83.936,1006.988,-71.98
-98.088,996.496,-69.052
-104.676,986.492,-63.196
-107.848,981.124,-59.292
-111.264,980.636,-58.072
-110.044,980.636,-54.9
-102.48,979.66,-56.852
-105.164,978.196,-54.656
-112.484,974.048,-52.46
-115.9,971.364,-54.412
-116.876,976.0,-55.388
-114.924,983.076,-53.436
-110.532,984.052,-50.264
-116.388,980.148,-46.848
-124.196,975.756,-44.652
-132.248,979.172,-44.896
-124.44,982.832,-48.312
-131.516,985.76,-53.192
-118.096,986.492,-57.828
-125.416,988.2,-51.972
-132.736,988.2,-43.676
-122.732,985.516,-41.724
-124.928,981.368,-43.92
-131.028,978.196,-37.088
-138.592,982.832,-36.844
-114.68,992.836,-41.48
-133.956,998.936,-10.98
-114.192,994.788,-22.692
-130.54,981.124,-23.668
-114.68,961.36,-59.048
-142.984,1020.408,-30.5
-127.124,986.736,-51.484
-161.772,998.448,-57.34
-202.032,999.912,-84.424
-188.856,1001.132,-69.052
-164.944,1006.988,-87.84
-222.772,1021.628,-87.108
-190.32,1013.332,-90.524
-188.124,934.764,-54.412
-80.276,951.356,-81.008
-236.436,927.932,-13.176
-156.892,1025.044,-64.172
-132.004,1070.184,-45.384
-120.78,1133.136,-97.356
-125.904,1018.7,-73.932
-151.768,971.608,37.332
-72.956,1048.224,29.28
-103.7,963.8,-7.076
-156.892,950.136,-28.304
-212.28,921.588,2.928
-164.7,902.312,31.232
-150.548,973.56,16.592
-189.344,940.864,36.112
-182.268,921.588,10.736
-194.956,909.876,11.468
-210.572,925.004,10.492
-237.656,926.712,-12.2
-222.528,971.608,-16.836
-220.576,956.724,-22.692
-247.416,950.38,-33.672
-270.108,981.368,-48.312
-263.52,955.504,-58.56
-268.888,958.432,-50.02
-227.652,961.848,-82.228
-252.784,958.188,-73.2
-305.0,943.06,-63.928
-404.552,902.068,17.568
-251.808,901.092,-124.44
-282.552,861.076,-41.724
-260.592,819.108,-11.468
-286.7,707.356,-59.048
-207.4,604.876,-59.048
-396.988,636.84,93.94
-774.212,618.784,57.828
-18.544,610.0,200.812
392.108,586.576,58.804
822.768,536.068,114.68
854.244,351.604,-7.076
855.22,666.364,-232.532
556.32,728.096,-81.496
672.464,606.584,85.4
1201.7,203.252,315.004
1585.512,3.66,627.08
1289.052,-26.596,834.48
1027.728,114.436,816.668
867.42,-27.328,799.1
910.852,-91.012,910.12
1057.008,-69.784,987.956
964.776,-68.808,929.64
707.356,-96.868,809.104
604.144,-54.412,725.168
577.06,8.784,599.02
604.632,52.216,333.06
706.624,122.0,103.7
708.576,124.44,-34.648
698.572,91.012,-155.672
765.916,126.148,-304.024
822.28,209.352,-442.372
918.416,233.752,-593.408
1068.232,197.884,-757.132
1177.788,143.716,-863.028
1315.892,146.4,-910.608
1362.74,122.244,-878.888
1299.544,95.404,-827.404
1175.592,44.652,-735.904
1040.904,-23.424,-587.552
955.992,-80.276,-430.416
932.324,-84.424,-294.508
923.052,-70.76,-205.936
919.392,-44.164,-134.932
878.644,-29.28,-58.316
840.58,-31.964,1.22
857.172,-64.904,88.572
929.64,-110.044,190.808
967.948,-141.276,314.028
979.172,-166.164,457.5
911.584,-187.148,571.448
899.14,-192.028,668.316
964.044,-201.788,752.74
1023.824,-207.644,818.864
1110.444,-182.024,899.14
1143.14,-172.508,932.324
1209.02,-163.236,900.36
1250.988,-148.352,874.984
1218.536,-180.804,853.024
1188.036,-227.408,815.204
1212.68,-227.408,764.94
1270.508,-203.984,643.184
1239.764,-213.256,530.944
1189.5,-236.68,429.684
1215.608,-215.94,302.072
1277.096,-132.004,133.468
1341.512,-31.72,-40.26
1324.188,-4.392,-179.096
1251.232,-22.204,-303.78
1160.708,23.424,-355.264
1078.968,84.18,-392.596
994.788,107.116,-376.004
944.524,94.428,-345.504
914.512,59.536,-272.304
972.34,13.908,-171.776
1074.332,-19.764,-43.92
1138.748,-34.404,62.22
1126.792,-39.528,129.076
1077.504,-53.192,152.988
1092.144,-28.06,182.024
1097.512,23.668,195.688
1149.972,78.324,180.56
1129.476,105.164,198.616
1168.516,125.172,169.58
1233.176,190.564,161.772
1363.716,340.624,134.2
1462.78,366.244,56.12
1587.952,361.852,-11.468
1317.6,299.632,-85.644
901.58,419.192,-70.028
237.168,108.58,163.48
-441.396,199.104,363.316
-394.792,835.456,99.308
164.944,1298.08,64.904
427.976,1233.664,-17.324
256.2,1003.572,-19.52
54.412,938.912,-8.296
-195.688,881.572,31.476
-155.672,872.056,-38.552
-57.584,911.34,-46.116
-17.568,924.028,-24.888
-2.684,909.876,-31.964
-104.92,938.424,31.964
-96.136,934.764,-53.68
-132.736,917.684,-39.772
-65.636,913.048,-58.804
-14.396,889.624,-65.88
-81.252,923.54,-35.136
-72.956,948.672,-30.988
-55.388,961.848,-53.436
-45.872,953.064,-57.096
-12.688,941.352,-42.944
2.928,953.796,-35.136
-33.184,1009.672,-33.428
-28.304,1030.168,-28.304
-3.904,1014.308,-48.068
2.44,1017.724,-50.264
-7.564,1012.356,-38.308
4.392,1002.84,-63.44
-38.064,964.288,-61.0
-32.696,986.248,-47.58
34.404,995.032,-41.48
25.132,988.932,-36.844
42.456,1002.352,-49.776
28.304,966.728,-74.42
-8.784,1025.288,-53.924
-9.516,1078.968,-31.72
29.524,1026.508,-60.024
-13.176,1016.26,-38.308
-71.736,1047.98,-2.196
-64.416,1012.844,38.064
0.0,1162.416,8.296
231.8,1079.456,-205.936
329.644,798.612,-359.168
70.76,1160.22,-55.388
66.368,1295.396,-98.82
-32.208,1461.56,-44.896
-20.496,1475.956,-152.5
25.864,1553.792,-203.252
43.188,1671.644,-244.488
31.476,1743.136,-217.404
73.2,1709.22,-224.236
83.692,1640.9,-217.404
127.612,1560.868,-116.876
77.348,1488.644,50.264
62.22,1372.012,124.684
69.296,1276.12,167.14
70.516,1174.616,114.924
55.632,1150.948,-30.256
3.66,1081.652,33.916
186.416,1009.184,-40.26
198.128,849.12,13.176
97.112,697.108,-68.076
128.832,539.24,-113.948
152.744,407.48,-59.78
104.432,342.576,-7.564
88.084,246.196,34.892
6.344,227.408,115.656
-101.748,281.332,163.968
-126.392,328.912,113.46
-261.812,425.048,84.424
-269.864,444.08,27.328
-236.436,530.944,-33.184
-306.952,617.564,40.992
-320.86,680.516,0.732
-281.332,728.828,-50.996
-364.048,853.268,-33.428
-290.116,846.192,-29.28
-285.48,890.356,-16.836
-260.348,926.468,-2.196
-239.608,952.576,-15.372
-208.132,969.656,-10.248
-196.908,970.632,-3.66
-207.888,965.508,-2.196
-230.336,952.332,-12.688
-229.604,932.324,-6.1
-235.704,902.312,7.32
-253.028,866.444,11.468
-284.748,844.972,11.956
-321.836,815.448,0.976
-352.824,775.432,-13.908
-361.12,722.728,-21.716
-406.748,657.58,-14.884
-468.724,546.316,0.0
-725.656,415.044,30.744
-78.568,229.36,106.628
690.032,107.36,81.008
1211.46,59.048,64.904
1179.984,-17.324,-26.352
1171.688,142.496,-324.032
1294.664,610.244,-313.296
1798.28,765.428,-24.888
1936.384,110.776,336.232
1522.804,-297.436,549.0
1072.136,-222.528,780.312
1053.348,58.804,616.832
1245.864,117.852,444.08
1393.484,202.764,424.804
1362.008,145.18,415.776
1083.36,20.008,442.616
849.852,-17.324,508.984
770.796,-0.732,563.64
719.556,-8.54,537.776
594.14,-46.36,504.592
564.86,-75.64,491.172
582.184,-66.368,372.588
610.976,-20.496,240.828
580.964,44.408,107.848
537.776,49.776,-66.124
623.42,100.284,-255.712
710.528,158.112,-425.536
780.8,185.928,-599.996
856.684,209.108,-735.66
975.512,194.224,-825.452
1179.496,154.94,-905.484
1344.44,142.008,-956.968
1414.956,121.512,-960.384
1428.62,74.176,-914.024
1379.82,24.644,-820.572
1245.132,-2.684,-730.292
1143.14,-10.98,-628.056
1083.116,-11.224,-517.28
1004.548,-30.5,-405.772
942.816,-78.812,-267.668
951.844,-129.076,-112.972
934.032,-177.144,41.968
938.424,-188.856,178.12
933.788,-214.476,316.712
928.664,-233.508,424.56
893.284,-264.984,539.972
824.232,-286.212,659.044
753.96,-311.344,770.796
783.484,-342.576,872.544
873.52,-328.18,909.144
916.464,-299.632,899.872
970.632,-252.54,867.908
1036.756,-218.136,825.452
1135.332,-193.736,758.352
1190.72,-201.788,716.384
1217.804,-241.072,685.396
1189.5,-284.504,646.844
1157.536,-314.028,567.788
1204.14,-324.276,430.172
1260.748,-237.656,261.324
1343.952,-127.612,61.732
1345.172,26.84,-197.64
1241.716,122.0,-363.56
1138.748,83.936,-437.98
1049.444,41.48,-417.24
1010.892,39.04,-383.324
1051.152,38.308,-392.84
1117.52,-4.148,-351.116
1217.56,-17.568,-267.424
1229.516,-22.204,-164.456
1209.752,-60.024,-74.908
1180.716,-106.628,-6.588
1148.752,-125.172,50.02
1130.208,-105.408,77.592
1108.248,-84.668,78.568
1082.14,-75.884,77.836
1077.992,-63.196,75.64
1057.252,-52.216,72.956
1043.832,-54.656,69.296
1037.0,-47.336,74.176
1020.652,-58.072,70.516
1022.604,-40.992,68.32
1008.696,-43.92,71.736
1012.112,-39.772,72.956
1025.532,-50.264,81.496
1020.408,-50.996,74.664
1015.772,-33.184,61.0
1050.664,-2.684,51.728
1102.636,49.532,38.308
1262.7,139.324,-1.952
1384.944,226.188,-124.196
1555.5,281.332,-149.572
1326.14,319.64,-110.288
403.332,134.688,109.556
-576.572,405.528,319.396
-929.152,801.784,63.44
483.12,1141.676,-680.516
239.364,1169.98,-11.712
224.968,1359.324,-188.612
304.268,1192.428,-8.54
-175.192,940.132,-33.184
-210.816,883.768,7.808
-209.352,923.296,-34.648
-202.764,891.332,-54.656
-123.708,900.848,-88.572
-77.104,975.756,-56.608
-103.456,1017.236,-69.052
-64.416,1027.24,-110.288
-49.532,1027.728,-155.916
-85.156,1048.468,-167.628
-17.568,1016.26,-165.432
25.376,992.104,-154.94
6.344,1005.524,-92.476
99.064,1017.236,-121.024
130.784,1032.852,-111.996
88.816,1001.376,-84.18
17.568,938.668,-73.688
41.724,913.292,-106.384
48.068,959.164,-110.044
-49.532,960.14,-112.728
0.244,998.204,-108.336
32.208,964.532,-115.412
-62.952,970.388,-46.848
-83.692,942.572,-25.376
-76.86,914.512,-40.504
271.572,921.1,-279.38
296.704,952.088,-304.268
-20.252,1009.672,-175.192
132.004,1036.024,-255.956
3.172,1076.04,-186.416
60.024,1021.14,-199.104
-96.38,1015.284,-172.508
21.96,976.244,-210.084
-31.232,955.504,-184.952
57.828,1002.84,-191.54
70.76,1056.764,-161.284
77.348,996.252,-212.28
10.736,967.46,-222.528
-9.516,965.752,-243.512
33.184,970.144,-234.972
73.688,950.624,-227.652
123.22,932.568,-214.232
100.772,941.596,-193.736
72.956,959.896,-192.76
87.596,975.268,-214.964
108.336,987.224,-232.776
106.14,1023.58,-232.288
97.112,1092.388,-214.232
49.044,1176.08,-203.74
11.224,1281.244,-215.696
-135.908,1431.304,-239.12
-174.46,1582.828,-273.28
-235.216,1694.092,-306.22
-258.884,1766.316,-329.888
-244.488,1881.24,-317.444
-160.796,1806.82,-340.624
-110.044,1753.872,-312.564
-107.848,1697.02,-255.712
-44.652,1604.544,-256.688
-17.08,1552.816,-225.944
53.192,1498.892,-178.12
37.82,1385.92,-113.46
66.612,1243.912,-57.584
92.232,1348.588,-13.908
85.888,1092.632,-47.092
-1.22,1151.436,21.716
13.176,894.992,-119.56
63.684,789.34,-98.088
93.696,756.888,-124.928
117.364,697.108,-121.024
95.404,530.7,-51.484
157.624,360.144,10.492
117.608,211.06,85.644
-2.684,168.604,71.492
17.324,214.964,3.416
40.748,287.676,-10.004
2.44,275.72,-9.516
-38.552,298.9,63.44
-53.192,354.776,94.184
-103.7,456.036,135.42
-159.088,512.644,103.456
-218.136,549.244,91.256
-300.12,567.3,81.008
-359.656,648.064,28.06
-396.5,680.76,0.0
-380.396,765.672,-1.464
-375.76,818.376,17.568
-376.492,857.416,11.712
-393.572,866.444,-7.076
-411.628,857.904,-6.588
-394.06,866.2,-16.836
-366.488,876.936,-12.688
-341.356,884.988,-24.888
-366.488,872.544,-34.16
-385.032,850.828,-28.548
-380.884,826.916,-14.64
-349.652,805.444,-1.22
-335.988,793.976,-1.22
-344.284,791.536,1.22
-366.0,783.24,-23.668
-402.356,741.272,-46.848
-385.276,646.356,-71.736
-440.908,516.548,-88.084
-307.44,471.652,-35.38
687.592,394.06,70.272
1016.016,538.996,-63.196
854.244,230.092,-149.084
524.6,128.832,-228.872
896.7,713.212,-188.368
1802.916,1074.576,-69.052
2052.04,530.456,133.224
1567.944,-85.156,397.232
1250.012,-190.32,677.344
1152.168,9.028,633.18
1254.892,138.592,484.584
1269.044,187.148,448.96
1064.572,88.328,429.196
872.788,-32.696,463.844
716.384,-109.068,506.3
733.952,-182.024,412.36
832.772,-101.748,270.108
891.088,-18.3,116.388
779.58,-4.636,-67.344
669.78,19.764,-217.648
696.864,64.904,-391.864
792.756,101.26,-574.132
897.92,127.368,-759.328
917.928,178.852,-959.408
945.988,256.2,-1142.408
1030.168,202.764,-1240.252
1129.232,141.276,-1263.188
1121.668,118.828,-1252.208
1083.36,145.424,-1230.98
1001.62,112.24,-1165.344
903.044,24.4,-1059.692
788.608,10.004,-929.152
714.432,-15.616,-781.288
675.148,-18.544,-656.848
605.608,-43.432,-519.476
628.056,-91.5,-363.56
687.348,-177.388,-191.052
690.764,-220.332,-41.236
691.252,-208.62,121.756
794.22,-180.072,265.228
854.488,-146.156,370.636
812.276,-156.892,433.588
836.188,-175.192,530.212
842.532,-170.068,641.476
835.212,-196.908,734.44
932.324,-231.556,806.176
1095.316,-237.9,837.408
1222.196,-196.42,803.736
1229.028,-193.736,765.428
1178.032,-260.104,769.332
1117.52,-329.156,789.096
1198.528,-362.828,739.808
1360.056,-374.54,641.72
1434.476,-398.696,488.244
1474.492,-346.236,306.952
1501.576,-209.108,82.716
1564.284,-92.476,-104.676
1579.9,-115.412,-240.34
1491.084,-163.968,-339.404
1370.548,-150.548,-384.3
1230.004,-143.96,-405.284
1180.472,-103.7,-463.844
1183.888,-35.136,-553.636
1152.9,57.828,-550.464
1111.42,49.532,-502.64
1039.196,-0.976,-416.752
1000.888,-14.884,-306.952
1025.776,-30.012,-199.836
1040.904,-42.212,-115.656
1000.156,-68.076,-96.136
962.58,-92.476,-77.348
974.292,-97.844,-35.868
1030.168,-54.656,-2.928
1019.676,31.232,6.588
995.764,106.14,-29.036
963.312,127.124,-89.304
1024.068,269.376,-201.056
1042.856,358.924,-264.984
1074.088,328.912,-362.828
650.748,269.376,-405.528
22.448,526.064,-252.296
185.928,801.052,-167.14
482.144,1698.972,113.948
405.04,1474.004,105.896
361.12,1428.62,-87.352
320.86,1156.804,-170.556
-241.072,927.2,-46.848
-325.984,826.428,48.312
-162.26,803.98,-27.328
-80.032,824.72,-105.652
-210.084,858.88,-111.264
-363.56,906.46,-196.42
-336.964,912.804,-274.012
-256.2,945.744,-296.948
-175.436,1007.72,-255.224
-113.46,1090.68,-222.528
-81.008,1144.36,-189.344
-52.216,1143.384,-162.016
-42.456,1086.288,-142.984
-9.028,1065.304,-162.016
11.956,1043.832,-151.524
33.916,1050.42,-132.004
36.356,1020.896,-126.148
24.156,979.172,-119.56
-5.612,944.036,-120.536
-8.052,918.904,-120.292
-8.296,915.732,-124.928
-31.72,931.836,-131.028
-46.604,942.816,-120.536
-25.376,945.012,-131.028
-37.332,936.228,-126.148
-41.236,942.572,-112.24
-47.092,946.72,-103.7
-39.528,959.164,-126.636
-36.844,988.932,-124.44
-35.868,1008.94,-128.1
-38.064,1001.62,-133.712
-50.752,991.128,-133.468
-37.088,993.812,-135.664
-36.356,1011.136,-124.44
-39.284,1007.476,-122.0
-44.164,997.96,-128.588
-38.064,987.956,-138.592
-45.628,986.492,-140.056
-36.356,991.616,-133.468
-27.816,990.64,-130.296
-27.084,969.656,-134.688
-26.108,961.116,-140.3
-31.72,976.244,-141.276
-26.352,980.148,-139.568
-17.324,970.388,-142.984
-13.664,965.02,-139.08
-18.544,971.608,-131.516
-13.176,978.684,-131.272
-10.004,983.564,-138.104
-8.54,982.1,-140.544
-10.248,972.828,-136.884
-27.328,971.364,-139.08
-26.352,978.928,-142.74
-15.616,987.712,-142.008
-10.004,1000.888,-137.86
-29.036,1008.94,-141.032
-21.228,1006.744,-140.3
-14.152,991.616,-137.372
-17.812,988.688,-128.588
-27.572,998.692,-131.272
-22.936,1010.16,-133.224
-23.18,1020.408,-141.764
-39.04,1035.048,-131.272
-56.852,1125.572,-79.3
-169.336,1286.124,-20.74
-383.568,1575.996,-25.864
-644.648,1989.332,-83.692
-747.372,2389.98,-142.496
-682.956,2623.0,-152.012
-480.68,2616.656,-179.584
-151.28,2389.004,-175.192
79.3,2114.26,-170.312
222.284,1792.668,-186.904
258.152,1493.768,-231.068
262.3,1222.44,-250.832
267.424,1027.728,-190.564
241.56,838.384,-211.304
125.172,809.592,-122.244
227.652,739.076,-184.708
117.364,563.152,-176.168
67.1,509.96,-85.4
212.768,360.144,-218.136
175.924,491.904,-125.416
218.38,500.688,-134.444
338.916,598.288,-158.6
193.248,412.848,-112.24
107.604,358.192,-14.64
81.252,339.16,-67.344
-64.904,412.848,60.512
-112.484,347.212,-24.644
-81.496,351.116,-3.904
-76.128,454.084,76.86
-121.268,554.612,53.68
-260.104,589.748,91.5
-241.072,567.3,-38.064
-187.88,596.092,-88.816
-287.92,618.052,-8.784
-326.716,649.772,44.164
-278.16,694.912,23.18
-346.236,725.412,38.064
-331.352,753.228,10.736
-338.916,773.48,30.256
-440.908,689.056,-44.164
-440.42,689.544,-110.532
-480.68,674.66,-78.08
-509.96,641.232,-53.436
-479.216,583.648,-56.608
-474.092,549.976,-42.212
-443.836,526.308,-29.036
-306.952,458.476,-42.456
-151.524,377.956,-21.472
-364.048,265.96,84.668
259.128,32.452,-22.204
1270.752,-148.596,-123.22
1647.0,-24.644,-226.188
1501.088,303.048,-430.66
1232.444,449.448,-632.448
1635.044,825.94,-584.38
2231.868,759.816,-261.324
2076.44,99.552,-28.792
1595.272,-379.176,190.564
1226.1,-315.004,449.448
1110.2,-113.46,366.732
1239.032,20.74,205.204
1327.116,145.18,140.788
1291.248,144.936,131.272
1175.348,12.2,194.712
1001.132,-79.544,301.34
802.028,-151.036,307.196
696.864,-151.524,274.988
732.488,-109.556,190.076
806.42,-68.808,49.044
710.772,-74.42,-82.716
554.124,-42.944,-193.248
501.42,20.984,-336.964
533.628,106.14,-561.2
549.976,158.844,-746.884
635.864,183.488,-911.34
722.484,160.064,-1033.828
831.308,90.036,-1129.232
945.744,7.564,-1169.492
981.368,-90.036,-1183.644
961.116,-111.02,-1176.08
956.48,-46.848,-1132.892
929.64,-81.984,-1078.968
887.428,-170.8,-976.488
858.148,-240.34,-801.54
850.584,-236.436,-609.268
819.108,-263.032,-448.228
708.332,-235.46,-287.188
615.856,-247.904,-116.876
696.376,-263.764,22.936
829.6,-250.1,183.244
845.46,-331.84,326.96
866.932,-392.108,482.388
973.804,-416.264,591.7
1056.764,-364.292,622.2
1119.96,-329.4,560.956
1216.584,-309.88,517.036
1267.824,-306.952,529.968
1284.172,-316.956,559.492
1288.076,-329.888,561.444
1281.488,-381.616,563.64
1331.508,-441.64,542.656
1414.468,-474.58,503.128
1458.144,-468.48,419.68
1492.792,-415.532,269.132
1488.644,-343.064,77.836
1464.0,-218.38,-177.144
1330.776,-69.54,-430.66
1071.648,93.452,-598.776
878.644,160.308,-704.916
819.596,117.364,-768.112
803.98,110.776,-801.052
813.74,59.048,-749.812
873.276,42.212,-681.736
932.08,-4.148,-615.612
983.564,-81.984,-524.844
1009.916,-99.064,-426.024
1066.036,-82.716,-349.652
1115.568,-72.224,-310.856
1074.82,-68.076,-271.572
1030.656,-51.972,-236.192
1025.776,-31.964,-227.896
1013.088,-37.576,-216.672
1028.216,-46.604,-220.82
1055.788,-35.38,-221.796
1038.464,-31.232,-232.532
1012.6,-31.72,-231.068
1006.5,-50.508,-226.676
1035.048,-61.976,-211.06
1070.916,-37.82,-204.96
1160.708,192.516,-274.012
1030.412,250.588,-394.06
969.656,249.368,-526.064
663.924,511.912,-467.748
365.024,514.596,-313.296
18.056,407.968,-188.856
660.996,843.752,-497.76
455.304,1177.788,61.488
177.388,1185.352,233.02
160.308,1096.78,-24.4
96.868,1026.02,-179.34
7.076,923.052,-261.812
110.044,866.444,-274.744
5.612,917.44,-166.896
-58.316,1022.36,-118.34
-80.52,1053.592,-184.22
109.312,1090.924,-222.528
-29.524,1067.256,-194.956
-235.948,982.1,-162.992
-286.944,986.492,-148.84
-187.392,1022.848,-174.948
-80.032,1037.488,-204.96
-110.044,1017.724,-190.32
-152.5,1020.408,-158.112
-177.388,1040.172,-153.72
-172.752,1031.144,-189.1
-126.88,1040.66,-181.048
-66.124,1057.74,-152.256
-83.936,1064.328,-139.568
-82.96,1031.144,-149.328
-63.196,991.372,-164.212
-32.94,982.588,-153.476
-41.236,976.244,-128.1
-38.796,959.408,-131.516
-33.184,963.312,-144.936
-23.18,963.068,-134.932
-10.004,973.072,-128.588
-36.112,946.476,-137.128
-57.34,919.88,-167.628
-64.416,933.788,-172.996
-47.336,941.84,-157.38
-35.38,952.088,-158.844
-59.292,971.12,-153.72
-71.98,975.756,-154.208
-74.176,986.004,-161.772
-64.904,988.444,-152.012
-54.412,983.808,-147.376
-62.22,981.124,-147.132
-79.788,988.688,-147.864
-68.564,998.692,-152.256
-62.22,999.912,-153.72
-68.32,976.976,-159.088
-65.636,969.412,-154.696
-51.728,984.54,-142.496
-43.676,992.348,-137.128
-40.504,989.42,-148.352
-49.776,990.884,-146.644
-39.528,987.224,-137.86
-38.552,982.588,-141.032
-47.824,993.324,-148.108
-41.724,1005.768,-150.548
-46.36,1008.208,-150.792
-46.604,1002.596,-154.208
-47.092,1018.944,-152.988
-44.896,1051.64,-143.228
-61.732,1102.148,-130.052
-121.024,1224.148,-54.168
-130.54,1413.004,-45.872
-259.372,1648.464,-34.648
-396.744,1904.908,-114.436
-535.58,2102.792,-210.816
-562.664,2175.748,-210.084
-378.444,2225.036,-203.252
-185.928,2104.5,-102.724
32.696,1972.252,-84.912
247.904,1793.4,-106.384
328.18,1578.924,-133.956
401.136,1374.208,-152.5
366.976,1329.312,-128.344
366.732,1185.108,-119.316
295.972,1068.72,-127.124
248.636,956.968,-137.128
280.844,813.74,-132.736
208.376,787.388,-71.248
304.512,555.588,-176.168
57.096,608.292,-27.816
150.548,598.044,-74.176
139.568,548.512,-103.456
305.976,323.056,-173.484
281.088,271.084,-328.18
289.14,381.616,-334.768
401.868,383.812,-481.412
75.884,388.448,-185.928
-718.092,303.292,502.884
-425.048,441.64,174.704
-207.888,464.332,-50.02
-220.332,481.412,-26.108
-316.712,550.952,-4.636
-341.356,653.92,22.692
-433.832,567.056,10.492
-532.408,520.94,43.432
-472.872,501.176,101.26
-270.596,567.788,-42.944
-232.532,557.54,-68.564
-85.644,680.516,2.196
-384.3,666.12,130.296
-664.9,647.088,152.012
-565.836,665.876,-72.468
-451.888,658.8,-99.064
-377.224,685.152,-125.416
-347.456,797.148,-282.308
-656.116,719.8,67.1
-580.476,868.396,-163.968
-384.056,808.616,-180.804
-378.688,838.872,-187.148
-425.536,883.036,-175.192
-430.416,881.572,-228.384
-375.272,898.164,-190.808
-310.368,854.488,-139.08
-356.972,753.472,-128.832
-358.68,584.868,-169.824
-329.888,460.184,-12.932
-196.664,373.808,124.928
368.684,184.952,113.948
945.012,102.968,97.6
1047.736,449.936,-57.828
845.46,395.768,-343.552
754.692,459.696,-565.592
1186.816,645.868,-364.048
1624.064,444.812,-78.324
1749.724,-48.312,297.436
1669.692,-115.168,479.46
1376.404,-98.82,433.832
1277.096,139.324,242.048
1326.14,250.1,91.988
1423.496,292.312,102.48
1384.944,179.096,176.412
1302.472,77.104,288.408
1196.332,-7.808,361.852
1093.608,-56.364,388.692
1018.456,-89.792,396.012
929.64,-138.104,397.964
847.9,-143.228,358.924
757.62,-54.412,190.808
748.592,-1.464,-0.488
747.372,59.78,-150.06
738.588,98.332,-256.932
716.628,107.604,-384.3
594.14,14.884,-523.38
497.272,-36.6,-645.868
543.632,-62.464,-742.248
617.32,5.368,-861.564
713.944,1.22,-971.364
798.856,-39.284,-1021.628
888.648,-71.492,-1020.408
964.776,-145.912,-966.24
991.372,-205.204,-899.628
937.936,-188.124,-843.02
851.804,-160.796,-821.792
793.0,-229.116,-761.28
818.132,-270.352,-628.056
835.7,-282.552,-504.348
837.408,-270.352,-381.86
820.816,-316.956,-283.284
811.3,-342.332,-170.312
806.908,-348.92,-20.252
811.056,-362.584,128.344
810.08,-340.624,278.16
808.372,-375.272,454.084
864.492,-399.672,619.76
927.688,-403.088,748.104
1028.704,-387.472,788.364
1156.316,-357.216,793.244
1240.984,-335.256,746.884
1251.72,-302.56,695.888
1255.38,-308.172,664.656
1263.432,-446.032,658.8
1143.384,-464.82,632.692
1108.004,-492.392,623.42
1233.664,-485.804,527.04
1333.46,-461.892,379.42
1331.264,-409.432,251.808
1388.36,-336.72,97.844
1474.004,-193.98,-60.512
1466.928,-126.148,-190.808
1470.588,-12.444,-253.028
1398.608,93.94,-317.2
1373.72,120.78,-358.924
1380.308,79.056,-444.08
1175.836,123.464,-589.016
919.88,263.52,-702.232
757.132,593.408,-687.348
634.156,586.82,-620.004
560.956,508.008,-524.356
661.484,589.016,-410.408
700.524,643.672,-327.936
873.032,691.008,-308.904
995.032,735.416,-271.084
1139.724,798.612,-212.768
1102.148,792.024,-98.088
884.744,855.708,-60.024
753.228,912.316,-26.84
376.248,889.868,6.344
93.208,1027.972,-65.88
-5.856,1349.808,-106.14
180.56,1187.304,-196.176
273.768,1155.096,-183.732
506.056,1028.216,-218.624
245.952,876.936,-86.62
-91.744,651.968,36.6
-241.804,577.792,162.504
-38.796,586.332,-9.272
-5.612,578.036,-172.508
-273.28,587.064,-104.92
-248.148,693.692,-15.86
-133.224,788.364,-83.936
-88.328,855.708,-139.324
-174.46,927.444,-102.968
-192.76,1002.84,-129.32
-193.248,1013.82,-152.744
-151.524,1028.948,-137.372
-137.616,1049.932,-92.72
-140.544,1037.244,-70.272
-157.136,1039.196,-73.444
-159.82,1027.972,-70.028
-96.868,1011.624,-105.896
-141.52,1051.396,-84.668
-134.688,1048.224,-66.856
-123.952,1011.38,-51.24
-152.5,1008.696,-63.44
-168.116,1031.388,-53.436
-137.86,1056.276,-65.148
-115.412,1027.972,-69.784
-139.568,965.752,-56.852
-161.772,937.448,-64.416
-155.672,984.296,-80.52
-96.136,976.0,-88.084
-81.984,1005.768,-80.52
-61.732,977.464,-66.856
-91.744,951.356,-51.484
-141.764,942.328,-51.484
-99.796,952.088,-72.468
-62.708,972.096,-95.892
-61.488,985.76,-87.108
-127.124,987.468,-60.512
-144.448,984.296,-69.052
-131.272,973.316,-79.056
-111.996,964.776,-83.448
-110.288,965.264,-73.932
-123.952,970.388,-75.884
-121.756,963.312,-79.3
-122.244,976.244,-83.936
-127.368,982.1,-78.08
-133.224,972.828,-84.18
-128.588,970.388,-86.376
-127.368,972.34,-79.788
-113.216,973.072,-79.788
-104.676,990.396,-78.08
-100.528,996.008,-80.52
-113.704,992.592,-85.156
-112.972,993.324,-82.96
-95.16,986.98,-82.716
-107.36,978.928,-75.884
-106.872,968.68,-81.252
-119.316,963.068,-81.008
-116.876,958.432,-93.208
-116.388,960.14,-99.796
-122.976,973.56,-99.308
-117.12,992.104,-103.212
-128.344,1006.744,-110.532
-138.104,1004.06,-101.26
-132.98,1017.236,-110.044
-156.404,1009.916,-106.628
-172.264,1039.44,-113.704
-198.372,1111.664,-91.256
-244.488,1241.228,-114.924
-398.452,1432.768,-135.42
-529.48,1662.616,-209.84
-581.452,1892.22,-261.324
-637.816,2100.596,-310.612
-711.26,2139.88,-188.856
-396.256,2103.036,-211.548
-153.232,1999.092,-218.868
-10.248,1834.88,-180.316
32.452,1652.856,-133.468
89.792,1469.124,-116.876
131.76,1354.444,-95.16
169.336,1209.752,-49.532
171.776,1060.424,-40.504
225.212,917.196,-74.908
108.824,744.444,-55.876
113.948,582.916,-196.176
88.084,477.752,-177.876
26.108,440.908,-71.248
23.912,335.5,-129.808
40.748,344.284,-36.844
-0.244,369.416,29.036
-5.368,353.312,15.86
33.916,356.484,35.624
42.212,378.2,1.464
-79.544,378.932,16.592
-129.076,422.12,33.672
-99.796,460.916,-6.344
-135.42,518.5,16.836
-195.444,592.188,50.752
-251.564,615.612,-41.968
-308.904,614.392,-31.964
-300.12,669.536,74.908
-309.88,669.048,10.004
-406.748,651.968,-21.228
-471.896,617.564,13.664
-431.148,602.192,2.44
-372.832,577.304,-22.448
-342.332,570.472,-27.084
-598.532,559.004,-24.644
-602.436,552.66,-54.412
-535.824,515.328,48.068
-399.428,454.572,-127.124
-373.076,381.86,-187.148
-336.476,265.228,-120.048
274.256,96.136,-100.04
959.896,82.228,-147.376
1258.552,228.14,-164.944
1195.112,276.452,-284.016
826.672,325.252,-626.348
1025.776,559.736,-641.476
1952.244,676.856,-459.696
2428.776,219.6,-215.696
2204.052,-159.088,50.264
1604.788,-187.392,142.74
1314.672,46.604,38.796
1321.504,163.236,-22.448
1407.88,221.064,-5.612
1288.564,152.744,-29.28
1085.312,62.952,29.28
917.928,27.816,137.616
787.632,-32.94,249.856
683.688,-80.764,264.496
652.456,-65.148,183.976
607.316,-25.864,47.092
577.548,-43.92,-52.948
664.412,-49.288,-170.312
722.728,7.564,-372.1
695.888,66.124,-576.816
713.7,72.468,-729.072
769.332,96.868,-871.08
777.384,106.628,-1011.868
810.568,105.896,-1159.732
850.828,77.348,-1248.304
892.552,29.768,-1286.124
931.836,-30.256,-1252.696
951.356,-96.624,-1162.172
925.004,-153.476,-1024.556
885.964,-206.18,-862.052
859.124,-266.448,-683.932
802.028,-281.576,-525.332
761.28,-224.48,-369.416
756.156,-185.44,-216.428
794.952,-179.096,-93.208
841.8,-200.568,12.932
906.948,-223.992,121.024
984.784,-219.112,252.784
1037.732,-218.624,365.512
1046.76,-213.256,420.656
1059.692,-174.216,456.524
1095.316,-149.572,475.312
1165.1,-142.252,506.3
1256.844,-143.716,545.096
1347.124,-145.668,575.108
1350.296,-203.252,569.984
1328.58,-251.076,549.732
1279.048,-296.948,526.552
1189.256,-349.896,460.672
1143.872,-361.364,350.14
1179.008,-349.164,197.152
1174.86,-289.14,12.932
1133.624,-214.964,-151.036
1092.388,-210.572,-272.792
1057.496,-284.748,-326.96
1103.368,-347.456,-365.024
1179.984,-358.68,-437.248
1179.74,-294.264,-558.76
1144.36,-210.084,-621.956
1135.088,-176.9,-619.76
1092.388,-199.348,-564.86
1083.604,-206.424,-468.48
1096.78,-203.984,-382.592
1044.32,-206.912,-320.616
1000.156,-212.28,-282.796
1016.016,-219.6,-211.792
1087.264,-233.02,-139.568
1094.584,-255.956,-76.616
1057.496,-256.2,-43.432
1016.26,-255.956,-39.04
970.388,-227.164,-52.704
995.032,-196.176,-59.78
1013.332,-166.896,-41.48
1027.728,-161.772,-58.316
1016.992,-231.312,-87.84
1019.188,-193.248,-91.988
955.992,-174.948,-96.624
969.9,-100.528,-99.064
1167.296,13.664,-130.052
1217.072,63.196,-154.696
1161.196,183.976,-265.716
757.132,133.712,-366.488
480.924,354.288,-377.712
134.444,240.584,-414.556
-301.34,323.544,-123.952
672.22,1191.696,-215.452
460.428,1386.408,147.132
289.628,1313.452,152.012
132.492,1167.052,-126.148
-17.08,1156.316,-153.72
-107.36,1035.78,-202.276
-152.256,1073.844,-48.8
15.616,1110.444,-64.172
58.804,1158.268,-65.148
-46.604,1128.988,-112.728
-156.404,1063.596,-177.876
-306.22,1028.704,-205.204
-255.956,1052.128,-198.372
-140.788,1064.084,-212.28
-125.66,1038.22,-164.944
-155.916,994.3,-141.032
-96.624,951.6,-174.948
-80.032,949.892,-158.6
-79.544,964.776,-129.808
-62.22,964.532,-116.876
-51.728,960.628,-117.364
-48.312,963.312,-117.608
-40.992,945.988,-108.336
-10.492,934.52,-116.388
-53.924,942.572,-118.096
-66.368,947.94,-115.168
-40.748,960.628,-126.636
-38.796,953.064,-111.996
-45.872,954.04,-116.144
-53.68,962.336,-110.532
-66.612,982.344,-119.072
-73.2,988.688,-118.34
-77.836,991.616,-112.972
-71.248,974.536,-132.004
-86.132,966.972,-130.54
-83.448,973.56,-135.176
-84.668,975.512,-123.464
-68.076,993.812,-130.296
-62.464,1006.012,-118.34
-63.928,995.032,-120.048
-72.224,975.512,-123.464
-64.172,992.348,-131.76
-60.756,1008.696,-117.852
-51.24,1005.524,-115.168
-61.244,961.36,-116.144
-60.512,943.792,-127.856
-55.632,955.504,-130.296
-56.608,964.776,-124.684
-50.752,972.584,-125.66
-62.952,972.096,-129.076
-55.144,975.024,-140.544
-42.456,975.512,-132.248
-30.012,985.516,-122.0
-41.968,992.592,-111.996
-43.676,985.516,-120.536
-51.972,966.484,-127.856
-61.0,965.508,-141.276
-54.9,970.632,-136.396
-50.752,979.172,-140.788
-52.948,981.612,-132.736
-59.536,977.464,-129.076
-58.804,974.536,-134.932
-48.8,971.12,-140.056
-47.092,976.244,-136.884
-46.36,986.248,-129.808
-38.064,989.42,-131.028
-41.48,988.932,-134.444
-42.212,996.008,-140.3
-42.456,994.544,-143.472
-43.188,986.98,-141.276
-37.088,984.54,-140.056
-31.476,981.856,-139.568
-40.016,1004.304,-149.572
-71.004,1054.324,-128.832
-125.172,1159.0,-80.276
-270.352,1346.636,-87.84
-548.268,1630.164,-182.756
-817.888,1935.896,-263.276
-944.28,2181.604,-228.14
-874.252,2274.568,-158.844
-657.824,2248.948,-84.18
-454.084,2140.368,-37.088
-214.964,1974.448,-25.62
-1.708,1819.508,-46.604
188.612,1624.064,-63.684
356.24,1370.548,-70.272
301.34,1181.936,-95.892
392.108,1051.884,-124.196
397.72,901.824,-174.46
317.688,809.836,-116.876
323.788,675.88,-131.028
408.212,505.324,-159.088
474.092,394.304,-221.796
293.532,434.32,-162.748
376.248,302.56,-143.96
458.232,251.564,-126.636
289.14,384.056,-49.288
335.012,319.152,-15.128
86.376,255.468,-17.568
-53.924,323.3,41.724
-44.652,387.96,41.724
-191.296,397.964,1.952
-264.496,468.48,-3.416
-254.492,540.704,21.472
-271.084,618.296,32.696
-300.852,595.116,2.44
-367.952,560.224,-94.184
-416.508,559.492,-6.344
-332.816,599.752,22.448
-259.372,626.348,-50.02
-258.152,632.204,-27.816
-337.452,604.144,17.812
-350.14,575.596,33.672
-314.76,506.544,-92.964
-333.06,477.508,-110.288
-174.948,467.748,-93.94
110.776,420.9,-254.248
-137.616,518.744,-111.752
-259.128,734.928,188.368
1001.132,375.76,-94.428
1720.2,584.868,-333.792
1490.596,1091.9,-529.968
484.828,562.908,-668.804
1283.684,847.656,-541.924
2252.852,387.96,-236.68
1738.744,86.864,-64.66
1090.436,113.46,42.456
936.96,248.88,68.076
1034.316,234.972,33.672
1162.172,253.028,54.656
1119.96,237.168,84.912
1005.28,158.844,133.956
958.432,82.716,237.412
939.156,19.276,327.692
918.904,-52.216,350.384
877.18,-98.576,263.52
842.288,-80.764,156.892
808.86,-18.788,-7.808
735.416,5.612,-124.44
693.692,8.54,-240.584
645.868,-69.54,-316.956
637.816,-88.572,-441.396
576.572,-42.456,-553.636
545.34,59.536,-705.404
618.784,121.024,-886.696
787.876,155.672,-1101.904
897.432,179.584,-1297.836
953.064,180.316,-1409.1
1008.452,140.056,-1404.22
1040.66,56.608,-1310.768
997.96,-33.672,-1163.636
944.768,-108.092,-991.86
883.768,-134.2,-822.036
742.248,-150.304,-636.596
675.88,-146.888,-449.692
707.356,-131.516,-264.74
792.512,-127.856,-115.168
859.612,-144.204,20.008
926.956,-181.292,157.624
985.516,-197.64,315.98
1062.864,-216.916,451.888
1074.576,-232.044,536.556
1078.968,-247.66,567.3
1173.396,-228.384,588.772
1262.212,-211.304,614.636
1310.28,-187.636,600.484
1301.74,-161.528,552.172
1270.264,-162.26,493.856
1267.58,-231.8,488.976
1245.864,-349.408,501.664
1205.36,-462.868,494.588
1195.112,-509.472,423.096
1251.232,-443.836,217.404
1312.232,-296.46,-108.336
1233.664,-134.932,-380.64
1117.276,-26.596,-613.172
1086.532,54.412,-813.008
1083.848,86.62,-891.82
1025.532,78.568,-929.64
980.148,72.712,-952.332
931.104,39.04,-925.98
906.704,28.06,-859.368
960.14,-18.788,-765.672
1027.972,7.076,-645.136
1045.296,-33.672,-540.46
1029.68,-93.696,-449.204
1022.848,-131.028,-359.412
1077.748,-126.148,-276.696
1084.824,-101.748,-232.532
1051.64,-88.816,-211.304
1026.752,-53.436,-203.496
1003.084,-47.092,-220.088
1011.868,-12.444,-225.212
1012.844,-22.692,-229.848
1028.948,-5.124,-245.22
1013.82,40.26,-233.508
992.592,57.096,-221.064
894.26,96.136,-249.368
883.768,-40.504,-416.508
635.62,154.452,-388.448
686.86,312.564,-393.816
377.712,423.34,-437.248
163.968,632.448,-613.904
288.652,818.132,-518.012
371.368,1086.044,-321.104
99.552,1260.992,150.792
255.712,1335.656,-109.8
-32.94,1191.94,-138.348
-8.296,1069.452,-251.32
-4.392,978.196,-235.948
-217.648,933.544,-76.86
83.692,955.748,-132.004
-85.4,969.656,-47.092
-52.948,994.3,-53.68
-81.496,1043.344,-122.244
-169.336,1070.916,-115.412
-325.74,1014.064,-154.696
-317.688,1015.772,-118.34
-161.528,1055.3,-119.072
-162.504,1071.648,-85.4
-242.048,1040.416,-146.888
-293.044,1017.236,-161.04
-271.328,1004.792,-163.236
-202.032,993.324,-145.912
-174.46,1001.62,-147.62
-198.616,980.392,-137.128
-170.068,962.336,-136.64
-120.292,991.86,-162.504
-120.292,983.564,-112.972
-89.06,974.78,-118.34
-99.308,956.724,-126.148
-102.724,938.912,-114.924
-82.96,937.204,-127.368
-84.668,929.396,-130.052
-86.864,943.548,-124.684
-89.792,968.924,-122.0
-115.412,957.456,-133.956
-124.928,939.4,-135.908
-109.068,943.792,-127.856
-103.944,964.044,-124.196
-104.92,960.628,-116.388
-126.392,962.092,-131.516
-148.596,953.308,-131.76
-143.716,962.58,-142.008
-131.516,975.024,-135.176
-138.836,989.908,-126.88
-134.932,1010.16,-130.052
-148.596,1004.548,-142.496
-152.988,985.272,-145.912
-128.588,986.736,-130.296
-105.164,1004.304,-108.336
-109.068,1016.26,-106.872
-126.88,1005.28,-125.172
-121.024,989.664,-135.176
-110.532,971.12,-135.664
-101.748,959.164,-133.956
-102.724,965.02,-134.688
-107.604,970.144,-133.468
-104.676,972.584,-143.228
-112.484,978.44,-146.4
-118.828,998.204,-142.252
-150.792,1041.392,-132.98
-193.736,1105.808,-122.0
-283.772,1184.376,-93.94
-441.152,1302.472,-80.032
-566.812,1407.148,-99.064
-681.248,1550.864,-149.084
-669.78,1655.052,-184.708
-670.268,1738.5,-92.72
-603.656,1843.42,-45.384
-470.92,1881.24,-22.936
-292.8,1852.936,-31.476
-140.788,1798.28,-58.072
84.18,1693.848,-103.212
151.524,1617.964,-55.144
254.736,1504.016,-69.052
382.592,1357.86,-119.316
482.876,1158.024,-122.732
185.684,1063.596,-7.564
236.192,997.228,-55.144
260.104,944.768,-35.624
219.844,855.708,-56.608
446.276,717.604,-159.332
554.856,629.032,-336.232
290.848,663.68,-236.192
330.132,605.852,-241.316
212.768,635.864,-215.208
185.684,353.8,-182.756
159.088,111.264,-158.6
-172.508,290.36,51.972
-144.692,321.592,75.152
-203.008,214.232,-21.228
-241.804,256.2,-36.844
-232.776,471.408,-53.436
-160.552,508.496,-38.552
-227.896,670.512,42.944
-67.1,621.712,-368.196
-265.716,713.7,-149.572
-368.928,719.8,237.412
-251.808,752.984,5.612
-214.476,817.4,-186.416
-361.608,703.696,-136.396
-517.28,720.532,-13.908
-408.7,895.968,-10.98
-228.14,850.096,8.54
-44.408,920.856,93.452
179.34,1021.14,-94.672
25.376,946.232,-178.364
-638.548,607.316,-225.7
-634.644,826.428,-147.864
-437.98,856.44,-129.564
-268.156,860.344,-130.296
-349.652,864.736,-60.756
-365.268,894.016,-47.58
-313.54,872.788,-96.136
-303.048,868.64,-131.272
-286.456,902.8,-151.036
-263.764,916.22,-160.796
-252.54,907.436,-173.728
-255.956,893.04,-160.552
-257.42,855.22,-167.384
-292.8,829.356,-180.316
-289.14,782.02,-192.76
-231.068,706.136,-209.352
-195.688,525.088,-183.0
-14.64,348.676,-112.972
31.232,374.052,146.644
1039.196,269.864,179.584
1529.636,569.984,91.988
1476.2,857.66,-135.908
1041.88,655.384,-801.052
805.688,580.232,-498.736
1510.36,720.532,45.872
1993.724,233.752,473.116
1623.576,-231.068,619.272
1051.64,-217.404,705.16
914.512,-17.568,611.22
1012.844,88.328,475.068
1192.916,143.228,543.632
1082.628,-15.128,547.292
812.276,-199.348,573.156
633.668,-226.92,580.72
592.676,-188.124,440.42
603.656,-178.852,294.752
739.564,-130.54,64.904
757.132,-22.692,-161.04
697.84,4.636,-364.78
661.24,-33.916,-543.144
753.716,35.136,-687.348
837.408,100.528,-821.792
874.008,125.904,-995.032
950.868,93.452,-1114.592
1025.532,76.86,-1171.444
1084.824,62.464,-1191.452
1151.192,70.028,-1175.348
1200.48,45.628,-1132.648
1200.48,-58.56,-1066.768
1133.38,-117.12,-938.912
1016.992,-93.696,-776.896
919.88,-43.432,-590.724
809.348,-62.952,-396.5
736.148,-126.88,-219.6
698.816,-164.7,-10.492
724.68,-155.184,210.816
792.268,-184.464,396.5
868.884,-213.988,511.424
930.616,-212.768,584.38
978.928,-185.196,672.464
950.868,-230.336,749.324
966.728,-293.288,793.732
1057.984,-267.424,828.624
1073.112,-239.852,811.788
1025.044,-215.696,781.044
975.512,-230.336,769.576
970.144,-256.688,753.96
1063.84,-276.94,711.016
1168.516,-264.252,620.248
1218.536,-209.596,379.664
1362.74,-156.16,131.028
1563.064,-0.488,-56.12
1582.34,61.976,-176.656
1407.88,79.788,-247.416
1211.948,66.856,-314.272
1159.976,81.74,-459.452
1197.064,146.156,-644.648
1160.952,67.588,-701.988
1127.28,110.776,-649.284
1196.82,251.076,-672.952
1118.984,339.16,-613.416
897.188,321.348,-557.052
936.716,282.552,-522.16
992.104,274.744,-427.0
994.056,188.856,-410.652
980.148,194.468,-370.636
1031.876,248.148,-311.832
1063.596,323.544,-233.752
974.292,324.52,-268.156
959.896,270.596,-282.796
969.656,245.22,-288.652
1002.596,249.124,-287.188
996.008,245.708,-259.372
965.508,232.776,-229.848
995.764,243.268,-216.428
1011.136,233.508,-213.744
1000.644,213.256,-202.764
986.98,197.64,-223.016
961.604,198.616,-232.532
938.424,212.524,-243.268
981.368,239.12,-244.0
994.788,210.328,-254.736
947.94,190.076,-233.996
953.552,193.004,-231.556
939.156,187.636,-217.16
946.232,205.936,-235.46
986.736,232.532,-254.736
999.912,251.076,-258.884
970.388,223.992,-258.884
912.56,210.572,-235.948
919.88,200.568,-236.924
971.12,203.252,-235.704
1002.108,199.836,-253.272
983.076,218.136,-251.32
957.7,213.012,-250.588
952.576,209.352,-263.276
979.66,212.28,-278.892
1006.256,211.06,-269.132
988.2,207.4,-254.004
991.86,219.356,-254.004
977.464,203.74,-255.224
988.2,213.256,-269.62
986.004,236.68,-269.132
1031.388,276.208,-286.944
1132.16,373.808,-351.116
1223.66,531.676,-371.856
1240.008,562.42,-403.088
826.428,668.316,-349.896
510.936,564.372,-371.612
282.064,745.664,-421.388
497.028,774.212,-349.896
294.752,1088.972,-209.84
230.336,1078.48,-104.676
57.828,1074.576,-43.432
29.28,947.452,-193.492
-23.912,924.272,-144.936
130.052,877.424,-10.004
-46.116,849.364,-58.804
-83.448,745.42,-182.024
-61.488,785.192,-178.12
-126.636,890.844,-162.504
-32.208,948.184,-112.24
99.064,944.768,-91.988
-106.14,945.988,-97.356
-101.016,948.916,-146.4
-162.992,963.556,-162.26
-120.292,963.8,-166.896
-50.264,984.052,-135.176
-125.416,994.056,-137.128
-157.868,989.908,-151.768
-161.772,985.028,-153.476
-146.644,966.972,-152.744
-123.708,957.7,-149.084
-142.984,977.708,-125.66
-100.284,977.708,-153.232
-107.848,957.944,-144.936
-124.928,961.848,-130.296
-103.944,966.972,-129.564
-99.552,980.392,-126.636
-89.548,994.788,-122.0
-114.436,1000.156,-111.264
-82.96,980.636,-105.164
-73.688,970.388,-105.652
-96.868,961.848,-114.436
-114.192,978.44,-123.464
-121.024,985.028,-128.832
-81.496,991.372,-129.808
-61.0,995.764,-122.488
-74.664,977.22,-115.656
-88.816,958.188,-118.34
-98.088,960.872,-118.584
-104.92,972.096,-114.924
-114.924,965.02,-124.928
-111.264,947.208,-139.568
-110.288,951.844,-137.616
-71.736,978.684,-136.152
-38.308,986.004,-148.596
-35.868,985.76,-157.136
-52.704,986.736,-148.596
-40.016,993.324,-142.984
-40.748,985.028,-143.96
-70.516,960.384,-143.472
-89.06,957.7,-152.744
-65.148,979.172,-157.624
-91.256,1029.436,-135.42
-109.556,1024.556,-143.228
-117.608,1046.76,-117.364
-105.652,1085.312,-100.772
-134.2,1186.328,-84.424
-127.368,1288.076,-148.84
-224.48,1428.62,-160.796
-240.828,1569.896,-262.544
-511.912,1796.328,-185.196
-552.66,1978.84,-201.544
-513.132,2108.404,-219.844
-432.124,2138.66,-192.028
-164.944,2212.836,-144.692
131.516,2115.724,-149.084
254.248,2031.3,-91.012
196.42,1873.432,-53.192
311.588,1678.72,-54.168
384.3,1537.444,-135.908
311.832,1359.324,-35.38
347.7,1141.188,-183.976
317.932,991.128,-123.708
318.42,769.82,-156.404
281.332,663.192,-137.128
399.428,502.64,-207.644
420.412,310.368,-235.46
302.804,168.36,-134.932
105.164,30.988,2.684
15.616,-48.8,32.452
123.464,-97.112,-32.696
44.652,-29.524,43.188
130.052,78.812,117.364
36.356,187.148,131.516
-174.216,223.504,107.116
-310.124,255.712,-35.868
-336.72,355.508,-83.448
-350.14,476.288,-85.888
-343.308,579.744,-84.912
-373.564,619.028,-76.86
-416.264,605.608,-125.66
-428.22,625.616,-162.26
-485.56,585.112,-145.912
-528.992,565.104,-152.256
-445.544,530.212,-174.704
-383.568,473.116,-120.78
-277.428,461.648,-73.2
-428.708,421.876,-86.132
304.268,231.556,74.908
-381.128,81.008,12.444
-428.708,321.348,117.12
904.996,173.24,56.852
1627.48,365.024,-11.956
1481.812,476.776,-84.424
927.444,534.36,-606.584
1257.088,851.56,-477.02
2246.508,846.436,43.188
2541.016,375.76,134.2
1790.716,-77.592,154.452
1323.7,0.732,346.236
1201.7,97.844,345.26
1236.348,84.912,305.488
1151.68,62.708,284.26
995.276,71.98,228.384
847.9,27.084,122.732
733.22,-34.892,74.176
676.612,-67.1,-0.976
676.612,-32.696,-195.444
649.528,24.4,-331.596
624.64,35.624,-447.74
594.384,47.824,-590.48
618.784,114.192,-767.38
664.9,149.572,-930.128
712.724,187.636,-1113.616
709.796,150.548,-1217.316
749.08,127.612,-1271.728
789.584,78.568,-1238.3
844.972,72.224,-1183.888
870.592,-19.032,-1098.732
919.148,-122.976,-995.276
934.276,-257.42,-850.828
965.264,-312.076,-663.436
886.696,-329.4,-458.72
779.336,-342.576,-301.828
729.072,-359.412,-158.356
751.032,-304.756,-23.668
763.72,-247.66,147.376
794.464,-311.344,347.7
881.084,-393.084,539.24
975.756,-455.304,722.24
1098.0,-499.224,837.652
1181.692,-504.348,904.508
1271.484,-449.936,914.512
1336.876,-359.412,914.512
1402.756,-344.528,881.084
1526.464,-345.016,832.04
1607.96,-322.568,762.012
1584.048,-315.004,646.844
1519.144,-352.58,518.988
1527.196,-368.684,337.696
1546.716,-303.536,47.092
1469.856,-155.916,-183.244
1344.196,-23.18,-363.56
1201.944,-26.84,-515.084
1087.996,-99.552,-670.268
1000.156,-115.9,-759.572
920.856,-98.576,-823.5
895.236,-72.712,-811.056
869.616,-100.772,-733.22
861.808,-175.436,-616.1
911.828,-261.812,-488.244
972.34,-297.436,-341.356
1017.968,-269.62,-229.36
1037.0,-228.628,-166.164
1052.372,-180.804,-135.42
1080.92,-141.032,-126.392
1081.164,-99.796,-122.0
1068.72,-73.688,-128.588
1059.448,-62.708,-118.584
1053.104,-47.58,-116.876
1063.352,-84.18,-120.78
1039.44,-106.384,-123.464
1023.092,-118.584,-122.0
1020.652,-114.436,-124.928
999.668,-94.428,-141.764
992.836,-96.38,-169.092
1000.644,-106.628,-168.36
991.86,-115.656,-161.284
977.708,-112.484,-150.304
978.928,-115.412,-151.524
993.08,-88.816,-161.772
1034.072,-69.052,-146.888
1084.336,-14.396,-141.52
1158.756,65.88,-145.668
1203.652,218.136,-197.884
1226.344,357.704,-256.688
1355.42,392.352,-418.46
904.996,317.444,-381.372
-80.276,435.54,87.352
-837.164,-9.516,109.8
80.52,981.612,-805.688
295.24,1280.756,135.42
-86.62,1431.06,158.112
298.412,1465.464,-179.096
267.668,1176.08,-196.176
-174.948,977.22,-211.06
-316.468,1007.72,-79.544
-480.192,941.352,29.036
-387.472,908.656,-54.656
-304.512,935.984,-57.584
-202.032,1022.604,-57.34
-301.584,1063.352,-78.324
-340.38,976.0,-176.412
-383.324,949.648,-177.876
-373.076,944.036,-134.444
-283.772,966.972,-149.328
-233.02,986.736,-113.216
-215.94,978.196,-112.24
-218.38,958.188,-101.748
-180.56,949.892,-101.504
-154.208,964.776,-93.94
-151.768,948.916,-72.468
-137.372,955.504,-83.204
-135.908,950.38,-69.784
-149.328,976.244,-71.004
-166.652,969.656,-67.588
-154.452,956.724,-82.96
-144.692,969.412,-80.764
-144.692,949.648,-67.344
-124.928,954.284,-78.08
-142.74,952.576,-77.348
-168.848,957.456,-84.912
-186.904,957.944,-101.26
-189.344,962.58,-104.432
-187.88,979.172,-98.82
-183.0,992.348,-96.624
-181.048,978.44,-102.724
-173.728,957.212,-98.82
-174.46,954.04,-102.724
-183.976,956.968,-107.604
-173.24,965.264,-106.384
-164.212,964.288,-104.188
-163.724,954.284,-105.164
-158.356,961.36,-108.824
-153.232,963.8,-103.7
-158.356,959.652,-102.968
-148.352,943.06,-117.12
-144.692,949.16,-125.172
-140.788,966.728,-120.048
-132.004,983.076,-115.9
-135.908,981.612,-120.78
-141.276,950.38,-122.244
-148.352,947.696,-121.024
-159.332,961.36,-120.048
-176.656,975.756,-124.196
-173.728,971.12,-126.636
-165.676,978.44,-131.028
-167.384,975.512,-120.78
-155.672,973.072,-120.048
-143.472,967.46,-124.684
-125.66,964.044,-132.004
-122.732,944.036,-133.224
-130.052,918.416,-143.472
-136.152,925.98,-148.108
-135.908,947.94,-148.352
-163.48,990.152,-157.868
-227.896,1089.46,-162.26
-346.968,1253.184,-143.96
-468.968,1409.1,-152.5
-634.644,1597.468,-189.1
-751.764,1805.356,-193.736
-814.228,1969.08,-190.076
-778.116,2176.48,-193.736
-624.396,2247.24,-189.1
-459.208,2247.24,-184.708
-424.072,2088.152,-104.92
-192.272,1989.576,-87.108
-65.148,1841.224,-36.112
114.192,1692.14,-125.66
-59.292,1450.824,-143.716
677.1,1195.112,-605.608
453.596,1023.336,-460.916
641.964,796.172,-534.36
675.148,610.488,-484.096
778.116,533.872,-554.612
264.008,313.296,-293.532
-421.144,289.872,-13.176
16.104,462.136,-193.736
38.308,342.576,-38.308
139.812,231.556,-135.908
129.564,145.18,-98.82
-235.948,74.176,65.636
-370.148,244.0,49.288
-275.72,326.228,55.144
-38.552,419.68,37.576
-135.42,462.868,73.2
-182.268,525.332,60.756
-217.892,530.7,24.888
-219.844,531.188,-60.756
-368.44,504.104,-306.952
-471.896,569.252,-71.98
-597.8,732.488,261.568
-478.484,835.212,200.08
-261.324,827.16,32.452
-20.008,807.884,-1.464
-284.748,716.628,93.696
-522.892,574.864,111.996
232.044,284.748,-68.076
-795.684,996.496,73.444
-716.872,569.252,-170.312
-831.552,739.564,-82.472
-524.112,730.292,-80.276
-488.244,694.424,-141.032
-513.62,620.248,-154.452
-476.776,587.796,-133.224
-461.648,559.004,-106.14
-483.364,498.736,-95.648
-475.312,443.104,-115.168
-360.876,389.912,-108.092
-245.464,285.724,-81.252
-306.22,258.884,-119.072
-77.348,203.74,-169.336
549.0,128.1,-129.808
1167.296,158.112,-66.368
1548.668,378.2,23.668
1265.384,361.608,-298.168
1119.228,694.912,-803.004
1656.76,745.42,-532.652
2426.58,563.64,-11.468
2301.652,-85.644,301.584
1622.356,-297.436,490.684
1261.724,-111.264,452.376
1187.548,34.16,283.04
1400.072,219.356,307.44
1391.532,239.852,296.948
1127.28,38.796,289.872
954.04,-133.956,419.436
851.56,-234.24,454.572
790.072,-252.296,373.808
862.052,-214.476,190.808
934.276,-160.552,-33.916
782.508,-119.072,-240.096
703.452,-71.248,-401.136
698.328,-84.424,-555.1
739.808,-20.74,-782.996
753.96,62.464,-967.216
748.592,78.812,-1116.544
753.716,98.332,-1291.98
765.672,103.456,-1400.804
796.904,156.648,-1456.68
841.556,97.844,-1448.628
880.596,-46.604,-1360.788
897.92,-169.336,-1180.228
886.208,-284.26,-957.7
890.356,-337.696,-739.564
847.9,-404.064,-528.504
801.784,-396.988,-351.848
775.92,-366.0,-200.324
833.26,-326.228,-50.996
912.072,-367.708,102.724
962.092,-394.06,284.504
966.972,-414.068,440.664
991.616,-392.84,572.668
1023.58,-369.172,712.724
1040.904,-406.992,824.964
1112.64,-463.112,887.184
1202.92,-443.836,869.616
1230.736,-321.104,818.864
1257.332,-243.512,796.66
1302.228,-278.16,828.868
1289.052,-374.784,845.46
1237.812,-424.072,848.632
1199.016,-494.344,819.352
1253.916,-563.64,751.276
1400.316,-572.912,607.56
1564.04,-384.056,294.752
1545.252,-247.416,29.524
1419.348,-159.088,-214.72
1249.524,-212.768,-379.664
1191.452,-205.692,-471.164
1170.468,-185.196,-589.748
1159.732,-121.024,-705.648
1109.468,-110.044,-764.452
1088.972,-150.792,-737.856
1067.256,-166.164,-618.784
1046.028,-159.82,-462.868
1006.5,-204.716,-347.456
974.292,-202.276,-262.788
976.732,-200.324,-205.204
1021.872,-153.72,-133.956
1040.66,-64.66,-79.3
1060.668,-102.968,-73.444
1040.416,-72.468,-64.66
1049.2,-121.756,-59.536
1047.736,-41.968,-28.06
1072.624,-22.448,-26.84
1012.844,20.008,-29.28
975.268,23.912,-44.164
987.712,57.34,-79.3
1061.644,140.544,-99.308
1134.112,216.916,-162.992
974.292,465.796,-363.56
769.576,451.4,-370.148
-14.152,313.052,-142.496
-472.872,660.02,-75.152
347.944,696.132,-470.92
1089.948,1467.416,-496.052
374.54,1562.576,242.292
271.084,1559.404,-3.66
-127.124,1173.884,-169.092
-230.336,963.8,-312.076
-314.516,895.724,-274.256
-190.564,909.388,-224.968
-52.948,1015.528,-110.044
-34.16,1055.788,-89.06
-111.752,990.396,-159.332
-152.012,941.84,-202.764
-237.9,929.64,-169.092
-94.428,938.18,-197.64
-72.956,1041.88,-132.736
-47.092,1080.188,-130.784
-114.436,1026.264,-167.872
-163.724,956.968,-205.936
-150.548,974.292,-198.372
-84.424,997.716,-177.632
-86.62,988.2,-174.216
-110.288,957.456,-173.484
-142.74,956.236,-181.292
-133.468,939.4,-160.552
-88.084,957.212,-150.304
-66.612,958.92,-142.496
-92.964,974.78,-128.1
-90.28,976.976,-122.732
-87.352,989.176,-136.152
-89.06,986.98,-114.192
-79.788,1004.792,-112.24
-81.496,1016.504,-109.068
-86.376,1009.672,-103.7
-85.4,997.472,-96.624
-81.74,982.588,-99.796
-93.94,975.268,-100.528
-105.652,964.044,-103.7
-120.292,970.144,-107.604
-126.88,993.08,-116.144
-111.996,1004.06,-114.436
-80.764,970.144,-129.564
-95.892,954.528,-125.904
-70.272,964.288,-125.416
-59.048,971.608,-124.928
-73.2,974.78,-126.88
-85.4,981.856,-128.588
-75.64,972.828,-125.66
-78.08,958.92,-128.588
-88.084,962.336,-129.564
-92.476,973.316,-138.592
-93.696,982.588,-145.18
-109.556,1000.888,-128.1
-108.092,993.324,-125.172
-118.584,972.34,-128.832
-119.072,961.604,-125.904
-100.284,963.556,-124.928
-101.748,964.532,-119.316
-105.408,960.628,-115.9
-109.068,956.724,-125.904
-102.724,949.892,-119.316
-84.18,961.36,-109.8
-71.004,967.46,-102.236
-79.544,966.728,-97.844
-85.888,967.948,-102.48
-86.864,970.632,-102.968
-84.912,963.312,-118.828
-86.864,956.724,-127.368
-102.236,959.164,-131.516
-133.712,956.236,-146.4
-150.06,953.064,-150.792
-161.284,968.68,-145.18
-158.6,987.468,-131.272
-148.352,996.008,-124.684
-136.396,976.0,-117.852
-127.612,962.092,-120.78
-110.532,959.652,-125.66
-98.82,986.248,-135.42
-100.04,1002.84,-134.688
-101.992,1008.94,-138.348
-107.116,994.3,-131.516
-110.044,974.536,-122.732
-111.996,960.628,-121.756
-110.776,946.232,-116.632
