acc_x[mg],acc_y[mg],acc_z[mg]
-25.132,981.124,15.616
-14.884,995.276,-10.736
-29.28,988.932,6.588
-29.768,998.692,9.028
-20.008,984.784,-10.248
-24.644,989.664,2.196
-39.772,987.712,9.272
-32.94,988.688,4.88
-38.552,989.176,-4.88
-34.648,987.224,-5.856
-33.672,983.808,-1.952
-35.624,995.52,-2.196
-24.4,992.836,-16.836
-30.988,981.124,-6.832
-43.676,980.88,-11.468
-52.948,987.956,-16.348
-49.288,994.3,-12.2
-32.452,1006.012,-23.18
-25.864,994.3,-15.616
-14.396,992.836,-18.056
-22.936,995.764,-10.492
-45.14,986.004,5.612
-19.764,977.464,-4.148
-24.156,986.736,0.488
-31.964,995.52,-0.976
-30.988,992.348,-3.66
-39.04,982.588,8.052
-26.84,988.2,-13.664
-26.352,995.032,-21.228
-39.04,987.224,-4.148
-41.236,978.196,17.324
-30.744,990.64,0.976
-32.94,1004.304,-20.008
-33.672,1005.768,-19.52
-37.576,994.3,-9.272
-29.28,985.76,-2.684
-28.792,984.784,3.66
-28.304,985.028,0.488
-25.376,994.056,-11.224
-32.696,984.296,-11.712
-37.332,988.2,-8.052
-35.624,973.804,-3.172
-30.988,969.168,-4.392
-36.6,985.272,-17.08
-46.36,992.348,-13.42
-39.284,984.54,-10.736
-39.04,986.98,-23.424
-31.72,999.912,-38.796
-30.012,993.568,-19.52
-30.744,989.42,-19.276
-36.844,999.18,-37.332
-31.72,982.832,-31.964
-39.284,965.264,4.392
-41.236,972.096,9.516
-33.672,985.516,-10.736
-26.596,986.248,-10.248
-15.86,995.764,-18.788
-26.108,1003.816,-26.108
-26.84,998.448,-21.228
-24.644,984.54,-12.932
-29.524,982.1,-7.808
-26.108,988.444,-11.224
-33.428,998.936,-22.936
-39.772,1005.768,-40.26
-37.332,1000.156,-32.696
-33.428,986.98,-11.224
-22.692,975.268,-0.732
-25.376,984.052,-3.66
-18.544,991.86,-14.64
-39.04,1003.816,-23.424
-23.668,1005.768,-41.724
-21.228,996.74,-26.596
-20.252,990.884,-20.984
-36.6,980.392,-14.64
-49.044,983.564,-10.736
-38.796,982.344,-13.176
-20.252,993.568,-20.74
-27.084,997.472,-17.568
-29.28,992.348,-15.86
-35.38,985.516,-9.272
-36.6,981.612,1.464
-32.696,981.368,-9.272
-36.356,979.904,-8.784
-29.036,991.128,-12.688
-16.104,991.372,-19.032
-23.668,983.32,-6.344
-28.792,986.004,-9.272
-35.136,979.172,-5.368
-41.724,983.32,-5.612
-34.404,987.956,-16.592
-31.232,991.616,-29.28
-36.6,991.128,-17.08
-21.96,989.42,-11.468
-47.58,987.468,11.956
-35.136,1005.036,-18.056
-40.504,1003.328,-26.352
-24.888,1012.112,-32.452
-11.956,1005.768,-36.112
4.392,1014.552,-8.784
6.588,978.928,16.348
25.132,975.512,10.736
-7.808,987.224,47.824
1.464,978.196,45.628
38.796,1024.8,-18.544
95.892,974.536,-113.704
155.428,998.936,-96.624
105.164,1016.016,-73.932
140.056,972.34,-29.036
144.204,980.148,-8.54
130.052,994.056,-10.98
136.396,966.24,-3.904
130.296,984.296,-14.396
191.296,1006.744,-113.948
179.584,984.784,-85.644
144.204,965.264,-18.544
95.404,1000.644,-8.296
147.864,1019.676,-55.876
202.276,999.18,-110.776
144.448,1010.892,-80.032
152.988,1023.336,-26.596
214.232,1075.064,-0.976
257.176,895.968,-80.032
130.296,1034.072,39.528
273.524,1087.996,72.224
453.84,823.256,-108.58
569.74,865.956,-236.436
422.12,878.888,-126.392
373.808,824.964,22.448
450.424,663.68,115.656
732.732,553.636,141.276
778.604,500.688,65.392
894.26,458.964,-2.44
936.716,384.3,-4.392
1125.084,400.404,54.9
1240.252,357.216,-44.896
1147.288,194.712,3.66
997.716,196.908,225.456
1078.236,205.448,180.804
985.028,219.6,65.148
983.32,198.128,55.876
911.828,119.56,126.88
832.772,120.536,80.52
783.972,161.284,109.068
757.376,173.484,73.444
682.468,144.448,96.38
656.848,189.588,104.676
646.844,155.184,71.492
619.76,147.376,83.692
621.956,158.6,48.068
668.316,134.2,-19.52
557.784,103.944,7.808
505.568,99.796,41.48
572.424,93.696,-18.3
560.468,86.62,-101.992
590.48,2.928,-64.416
589.26,8.784,-112.972
663.436,4.392,-208.864
709.308,-70.76,-254.736
656.116,-107.116,-197.152
697.352,-132.98,-176.9
782.264,-209.108,-228.384
846.924,-238.876,-347.944
869.86,-281.088,-332.816
941.596,-351.848,-267.18
1035.536,-432.612,-324.032
1085.068,-481.412,-363.316
1180.472,-527.284,-361.852
1196.088,-610.976,-316.712
1201.944,-610.0,-359.412
1255.136,-665.876,-423.096
1267.58,-717.848,-369.172
1313.452,-721.508,-359.9
1358.592,-786.9,-318.176
1434.72,-802.028,-307.928
1545.496,-820.328,-365.268
1487.668,-848.388,-297.68
1447.164,-830.82,-254.98
1509.14,-856.928,-221.064
1509.14,-852.048,-222.772
1463.512,-858.392,-153.72
1389.824,-834.236,-108.336
1423.74,-835.7,-81.252
1466.44,-863.516,-49.776
1393.484,-880.352,11.956
1333.216,-839.848,81.984
1282.708,-816.668,111.264
1267.58,-757.62,99.796
1297.836,-735.172,70.76
1317.6,-703.696,19.52
1196.576,-722.24,120.292
1095.316,-692.716,185.44
1076.528,-631.96,131.76
1014.308,-601.216,125.416
1004.548,-524.356,65.88
877.18,-436.516,-32.696
699.06,-404.308,14.152
547.292,-338.184,91.744
479.704,-191.296,4.636
337.696,-45.628,-127.124
235.216,-13.908,-88.816
219.356,8.052,-11.224
332.084,71.98,-110.532
440.176,61.732,-155.672
501.664,63.684,-158.6
635.62,60.024,-162.748
687.104,2.196,-102.724
745.908,-33.184,-15.128
960.384,-50.264,-88.328
1055.056,-51.972,-127.368
1138.504,-74.664,-57.828
1167.784,-97.112,1.952
1253.184,-145.18,3.66
1265.628,-217.16,-34.16
1202.432,80.764,142.496
1149.728,59.048,181.292
1012.6,-41.236,-67.588
1027.972,147.62,104.432
978.684,71.492,135.664
946.476,95.404,152.744
843.996,187.148,179.34
760.792,219.844,49.532
878.4,440.42,-135.908
823.5,406.748,-161.528
855.952,251.564,3.66
871.568,346.48,0.488
841.8,335.988,3.66
821.06,343.552,-25.62
729.56,441.396,-64.172
791.78,416.508,-88.328
1033.828,590.724,-51.728
1018.212,451.4,-216.672
751.032,751.032,-168.848
685.64,604.388,-240.584
452.62,628.3,-171.776
481.412,727.12,-132.248
640.256,713.944,-137.86
678.564,757.376,-277.672
515.328,902.8,-275.72
453.108,996.008,-315.98
597.068,898.652,-240.828
657.092,710.284,-1.464
624.396,790.56,-78.812
522.648,928.664,-91.988
435.296,901.336,-14.396
318.664,913.536,0.0
270.352,899.872,18.056
393.572,861.076,43.676
382.104,891.332,53.192
238.388,927.2,48.8
192.272,970.144,-13.664
205.936,995.276,17.324
229.848,960.872,52.216
226.432,978.684,35.136
170.556,957.456,6.344
125.904,1008.696,-4.88
126.392,1037.732,-44.408
122.244,1039.684,11.224
158.112,1011.136,-2.684
142.252,1045.052,12.2
86.864,963.8,42.212
123.952,943.548,37.088
61.976,1008.208,18.3
83.692,1039.928,-13.908
127.368,958.188,25.132
139.08,980.636,41.236
117.12,990.152,25.132
98.332,981.368,20.252
56.852,1010.648,35.624
148.352,982.344,31.476
101.992,1001.62,36.844
58.316,1001.132,18.788
37.82,979.172,40.992
54.9,979.66,32.696
103.944,986.736,28.792
108.58,987.712,41.968
82.472,957.944,51.728
45.628,971.852,49.532
13.176,986.004,31.476
89.06,996.252,37.82
82.716,1010.16,18.788
32.94,984.784,27.572
41.236,961.36,46.848
44.652,974.048,42.456
69.052,975.268,42.7
-25.62,951.6,73.688
92.476,1009.428,13.664
69.784,993.812,36.356
31.476,993.568,19.52
62.22,1026.752,1.708
50.508,974.78,45.14
16.592,980.88,34.404
14.152,973.804,39.04
-4.392,990.152,53.68
54.656,988.2,7.808
43.432,967.948,45.628
37.576,976.976,48.556
67.588,988.444,50.508
57.828,987.712,55.632
30.5,985.76,68.808
46.848,1003.084,59.292
49.776,1027.484,41.48
55.632,1007.476,41.236
46.36,1000.4,44.652
49.288,980.636,57.828
26.108,963.556,80.764
4.148,963.8,66.856
48.068,997.228,45.628
15.616,992.836,44.164
39.528,975.512,58.56
63.44,997.228,52.704
41.968,973.072,59.292
2.196,962.092,62.464
11.468,998.448,38.308
14.396,1003.328,34.16
15.616,1007.72,34.892
11.956,1015.04,21.472
21.96,1003.572,33.916
33.184,993.812,48.312
3.416,977.464,44.408
-1.952,966.24,53.924
10.248,944.28,63.196
21.228,957.7,52.704
24.156,973.072,42.7
25.376,996.008,29.28
26.84,982.588,36.356
8.784,976.488,40.016
13.176,985.272,40.992
17.08,1003.816,35.624
17.812,1001.62,27.328
38.796,1021.14,27.572
55.144,1031.876,24.156
24.644,1029.192,30.988
15.616,1006.012,38.552
4.636,981.368,50.996
-8.784,984.296,52.704
-0.244,998.448,46.848
38.064,999.668,67.1
48.068,1007.476,79.056
26.352,987.468,98.576
-10.736,1011.624,105.164
20.984,1008.452,85.888
-6.1,1037.488,82.96
-38.308,997.472,102.968
-32.208,1000.888,97.844
-4.392,992.836,112.728
-6.1,943.304,163.236
22.692,976.488,146.156
24.644,1000.644,148.352
-11.956,947.696,161.772
-27.572,977.464,126.148
-34.648,1008.208,106.628
-49.288,1036.024,81.496
-61.732,1061.644,56.608
-60.268,981.612,84.18
-46.116,1006.5,49.776
-81.496,1021.872,33.184
-108.824,977.952,33.916
-115.656,1017.724,1.952
-146.4,1025.532,-8.052
-112.484,987.224,6.344
-63.928,1007.72,6.832
-99.308,1006.5,-4.148
-127.368,957.944,-17.08
-123.464,928.176,-7.076
-111.752,940.132,-20.74
-136.152,942.328,-40.26
-117.608,972.096,-75.396
-138.104,1005.524,-95.404
-180.316,938.912,-92.476
-175.68,936.96,-95.648
-163.236,938.18,-101.016
-133.956,917.196,-109.556
-149.328,904.508,-136.396
-195.444,928.664,-175.924
-214.476,927.444,-194.956
-216.428,917.684,-198.372
-237.9,926.712,-207.4
-257.908,884.256,-195.688
-195.444,901.092,-186.904
-184.708,922.564,-175.192
-231.068,918.416,-172.752
-249.856,920.124,-169.58
-252.052,972.584,-181.292
-256.932,1016.748,-183.732
-218.136,976.244,-146.888
-180.804,987.224,-125.172
-152.744,1031.632,-122.976
-146.888,1047.736,-113.704
-132.492,1001.132,-105.652
-75.64,1045.052,-137.86
11.224,1087.996,-161.04
68.076,1083.36,-100.772
78.08,1184.376,80.52
377.712,1047.98,-124.196
506.056,1117.52,-136.64
427.976,1149.484,-166.164
314.272,939.4,-122.244
192.028,694.912,55.876
376.248,688.324,156.404
613.172,657.092,109.8
720.776,585.356,19.276
730.78,684.908,-109.068
737.368,829.356,-126.636
797.636,744.444,49.776
509.96,-193.004,32.208
627.568,8.052,320.86
731.268,131.516,212.768
692.228,233.508,-23.668
599.264,187.148,29.524
462.868,263.52,241.316
376.004,127.124,242.78
303.048,-40.748,243.756
482.388,64.172,-43.92
522.16,151.036,-128.832
575.596,-16.348,-47.092
650.992,-90.768,-79.3
644.404,-60.268,-200.324
589.26,-4.392,-220.576
508.252,-132.004,-66.368
635.62,-250.588,-149.328
886.94,-333.06,-329.156
1017.724,-387.716,-396.744
970.632,-366.976,-427.488
870.348,-380.396,-384.3
869.128,-546.316,-223.992
1114.348,-723.46,-248.636
1223.66,-776.652,-350.628
1244.156,-684.908,-444.568
1245.864,-645.38,-463.112
1332.484,-719.8,-447.252
1421.788,-911.096,-364.048
1414.712,-988.2,-364.292
1368.84,-922.564,-359.9
1384.456,-774.212,-476.776
1394.46,-824.72,-411.384
1431.792,-1007.964,-229.116
1486.448,-1023.092,-215.452
1485.472,-987.712,-215.452
1508.408,-978.684,-164.944
1584.536,-972.34,-180.804
1537.444,-983.808,-111.752
1464.488,-998.448,2.196
1423.252,-998.936,67.832
1419.592,-985.76,122.244
1413.004,-958.92,98.576
1265.384,-936.716,168.604
1166.32,-866.2,196.176
1213.168,-826.184,147.864
1189.744,-767.38,115.9
1212.192,-768.112,88.572
1094.34,-713.944,20.74
834.48,-644.648,97.356
638.548,-541.436,139.08
402.356,-376.492,107.116
244.244,-232.532,84.912
245.464,-160.308,24.4
206.668,17.812,-79.788
66.856,144.448,-98.088
14.884,140.056,-14.884
176.412,138.592,-48.556
353.312,151.524,-158.6
446.764,124.684,-139.08
568.276,97.112,-122.732
744.2,56.852,-132.248
926.956,7.808,-173.484
1047.492,-41.236,-186.416
1094.096,-93.208,-115.9
1080.188,-98.576,-59.292
1067.5,-122.244,-13.664
1089.704,-134.2,-1.708
1203.896,-115.9,-41.724
1237.568,-124.928,-35.38
1228.052,-118.584,-31.72
1130.94,-99.552,-36.6
1184.132,-56.608,-8.296
1218.78,-40.016,11.956
1090.192,-3.904,0.976
908.168,45.872,10.004
882.548,129.32,2.196
802.028,183.732,-18.3
803.736,284.26,-52.216
901.824,310.124,-54.656
941.108,341.112,-54.9
999.18,408.212,-108.824
874.008,418.46,-77.104
853.512,487.512,-95.404
860.588,508.74,-91.5
836.92,542.9,-84.668
844.24,549.0,-27.572
806.664,567.056,41.968
769.332,588.772,70.028
778.36,631.716,14.884
748.592,691.496,-13.176
720.776,682.468,-0.976
635.376,751.032,44.896
547.048,749.08,65.636
534.116,793.0,32.452
542.168,846.192,11.468
532.652,872.056,14.64
519.72,909.388,9.272
468.236,898.652,19.276
390.644,915.976,10.736
318.176,917.684,23.18
262.056,920.612,38.796
257.908,903.044,67.344
277.428,885.232,75.64
225.456,937.204,99.308
189.1,980.392,26.108
131.272,961.36,44.652
130.296,922.076,61.0
125.416,1009.428,48.556
103.944,978.684,31.232
82.472,1005.768,49.044
80.032,1042.612,41.236
61.976,1022.604,43.92
33.916,974.048,62.952
51.24,972.096,82.716
112.484,1031.632,59.78
91.012,1046.516,42.944
67.588,1019.432,54.412
36.356,1008.94,57.34
19.032,996.008,44.896
25.132,991.616,37.82
48.068,984.784,28.06
77.592,1021.872,49.776
63.928,1007.476,66.124
49.288,992.348,55.876
18.3,977.952,39.772
2.684,949.648,50.264
35.38,986.98,45.872
71.98,1016.016,34.648
77.836,975.512,54.412
48.068,963.556,55.632
15.372,973.072,41.48
22.204,988.932,35.868
31.232,985.028,43.188
35.38,953.552,43.188
60.268,991.616,42.212
44.652,1008.208,30.5
21.96,997.96,30.5
19.52,987.712,30.744
-5.124,969.656,32.208
13.664,956.968,38.796
40.504,980.88,37.82
48.068,1013.82,34.16
33.428,1034.316,21.716
26.352,1017.236,20.008
26.84,1001.132,32.208
15.616,968.924,32.208
10.98,960.384,38.796
29.524,983.076,37.332
18.056,987.224,27.572
18.788,971.364,29.524
42.944,995.52,32.696
27.572,1010.648,9.76
9.028,1007.476,15.128
18.056,990.884,24.4
17.324,988.444,25.376
22.204,968.192,18.3
25.132,971.364,37.576
13.908,980.636,23.912
1.22,1005.036,15.372
15.616,1000.4,16.104
16.836,1000.4,14.884
8.296,982.1,22.936
17.324,978.928,18.788
4.636,1008.94,13.664
1.952,1007.72,11.712
2.684,976.488,24.888
11.468,951.112,36.112
17.324,981.856,28.792
3.172,988.444,26.352
14.884,983.32,31.232
31.964,990.884,30.5
21.472,1010.648,15.86
-3.172,1010.892,7.32
10.004,1018.456,11.712
15.86,1006.744,23.18
10.004,976.0,26.108
11.712,973.804,27.572
15.86,982.588,27.084
14.396,970.388,32.94
3.904,954.528,41.48
5.124,989.176,31.72
18.544,1026.508,18.056
27.084,1023.58,19.52
21.228,997.472,31.72
18.788,990.396,40.016
29.28,989.908,39.284
15.616,977.952,33.916
-3.904,981.612,32.452
-7.808,984.784,25.376
-0.976,985.76,29.524
17.08,998.692,26.108
17.324,987.224,33.916
3.172,969.168,36.844
-11.712,976.732,22.692
-16.592,982.832,23.18
-3.904,998.936,21.96
11.224,1003.816,26.84
20.252,984.784,30.256
-4.392,979.904,26.352
-21.472,984.052,25.376
-1.708,1004.06,26.108
20.74,1003.816,23.668
-1.464,958.676,34.16
-28.792,943.548,34.648
-16.836,965.02,25.376
2.684,983.564,27.328
3.172,981.124,31.232
-7.564,977.708,38.796
6.1,977.708,47.336
19.764,989.664,50.752
8.296,1013.82,41.48
13.176,1027.972,42.456
18.788,1033.34,47.092
18.056,1041.392,46.604
13.176,1032.364,54.412
5.612,1004.792,77.348
8.052,1011.624,97.844
9.76,1009.672,96.868
15.616,998.204,76.616
13.908,976.244,86.132
12.2,978.684,117.608
24.156,1012.6,118.828
39.528,1024.556,117.852
54.168,993.812,124.684
32.94,956.968,135.664
2.196,960.14,123.464
-0.488,955.016,97.112
-13.908,965.752,92.72
-23.668,989.176,68.32
-39.528,971.852,64.172
-63.684,954.284,73.2
-69.052,974.536,59.536
-81.74,976.0,62.22
-78.324,961.116,50.508
-53.924,907.924,2.44
-31.232,966.728,60.024
13.664,1020.652,43.432
-15.616,1027.484,27.572
-51.728,1013.332,27.084
-61.244,999.912,36.356
-45.628,1039.928,23.912
-34.892,1029.436,17.324
-38.064,1011.136,24.4
-43.432,1023.092,10.004
-51.728,1027.24,-0.244
-61.244,996.74,-0.976
-104.432,955.992,-4.88
-109.068,965.264,-18.544
-83.448,1004.792,-38.308
-88.816,998.692,-38.552
-103.456,953.308,-27.816
-106.14,966.728,-37.576
-95.404,971.852,-47.58
-97.356,957.944,-45.628
-109.8,955.016,-54.9
-109.312,979.66,-67.344
-107.848,990.396,-75.152
-146.644,934.764,-69.54
-152.744,925.492,-63.44
-117.608,952.576,-61.0
-100.772,977.708,-58.072
-136.884,973.072,-57.096
-131.272,996.984,-58.316
-98.82,1009.916,-48.312
-104.676,990.884,-31.476
-121.512,975.024,-17.568
-77.104,1002.108,-12.444
-41.48,1023.092,-2.928
-82.716,995.52,7.076
-120.292,969.168,7.808
-110.776,985.76,14.884
-86.864,1041.148,23.668
-59.292,1049.444,10.98
-34.404,1080.188,22.692
22.936,1115.324,6.1
85.4,1093.364,-15.128
30.012,1213.656,-100.772
25.62,1233.664,-108.336
197.396,1204.872,-67.588
424.072,1037.488,65.392
467.504,834.724,177.144
545.34,635.376,89.06
331.84,709.552,99.552
350.628,802.028,9.516
578.036,718.336,-49.044
692.228,516.792,0.732
838.384,255.712,75.152
826.916,132.736,123.464
640.012,122.732,150.792
622.444,218.868,116.144
823.256,195.444,83.204
883.524,42.7,127.124
690.52,14.884,136.152
575.84,55.632,168.116
543.632,-30.012,118.096
545.096,7.564,77.592
525.82,16.348,-10.004
489.708,-6.344,67.832
460.672,-34.892,20.008
527.04,8.54,-157.868
680.272,-59.292,-230.824
745.908,-212.524,-192.516
642.452,-229.848,-122.976
638.06,-216.428,-154.208
671.244,-279.624,-221.064
752.74,-379.908,-198.616
846.192,-413.092,-276.452
909.388,-458.476,-322.08
883.036,-491.904,-348.676
1000.4,-548.268,-338.428
1087.508,-640.988,-412.604
1121.668,-679.296,-445.056
1066.036,-749.812,-398.208
1160.464,-736.392,-444.08
1310.036,-819.108,-477.508
1328.58,-898.896,-453.596
1277.584,-869.86,-392.596
1332.728,-897.432,-363.56
1486.692,-957.212,-400.404
1537.688,-932.324,-459.452
1432.524,-916.952,-393.328
1353.712,-904.508,-312.076
1296.372,-895.968,-245.22
1251.232,-949.648,-164.212
1257.82,-902.312,-167.872
1267.092,-901.58,-110.776
1371.28,-953.796,-75.884
1389.824,-1003.816,-26.108
1318.332,-959.164,13.908
1288.076,-947.94,40.748
1218.536,-895.48,47.58
1137.772,-817.4,59.048
1076.284,-811.3,92.476
1082.14,-791.292,71.736
1071.892,-722.972,18.3
1070.428,-644.16,-63.44
999.18,-598.044,-32.94
852.78,-535.58,3.416
766.404,-524.6,115.168
791.78,-566.812,106.14
789.828,-474.336,8.296
643.428,-349.164,-22.692
368.196,-170.068,-51.24
273.28,30.256,-64.66
292.556,36.356,-99.552
265.716,51.728,-98.82
168.116,118.34,-46.36
224.236,152.744,-69.052
369.66,105.652,-108.58
538.264,85.644,-152.988
742.248,87.84,-220.576
867.42,37.332,-256.688
953.064,-4.148,-221.796
1061.4,-26.352,-187.88
1156.316,-62.22,-131.516
1156.804,-56.364,-122.244
923.784,-29.524,-138.592
884.988,170.312,-158.356
892.308,273.524,-89.792
1352.98,531.188,-237.9
1165.588,299.144,-228.628
1016.504,431.636,-224.236
922.32,448.96,-211.548
809.104,596.092,-30.988
719.068,648.064,45.628
669.292,596.58,59.536
650.992,675.636,20.984
678.564,699.792,-46.848
677.832,742.004,-84.424
623.908,878.888,-4.392
538.264,925.492,-6.588
482.632,906.704,0.732
441.396,933.544,65.636
419.436,852.536,-60.268
416.752,1014.552,66.368
342.82,956.48,15.616
320.86,924.028,65.88
279.624,923.54,77.836
183.732,889.136,60.024
138.104,945.012,74.176
226.92,1053.836,25.62
120.048,1001.376,33.184
109.556,923.54,48.556
54.412,964.532,80.52
40.748,986.248,68.808
54.412,985.028,64.904
37.088,952.82,81.496
-0.976,911.34,55.876
-80.52,912.804,49.044
-89.792,965.264,45.628
-62.464,999.18,26.108
-25.132,972.584,26.352
-34.648,977.708,33.916
-62.952,999.912,7.808
-82.228,1014.552,15.616
-46.116,1009.184,57.34
-4.392,1041.392,58.56
-45.872,1022.604,30.5
-98.088,969.9,28.548
-86.132,965.996,27.816
-61.732,976.244,33.184
-59.292,956.236,32.452
-67.588,970.632,35.38
-65.88,1013.82,52.216
-42.212,1000.156,39.528
-58.072,973.072,37.088
-73.2,980.392,19.52
-71.004,994.788,27.084
-61.0,956.724,46.604
-50.264,972.828,41.724
-70.028,996.252,24.888
-91.5,986.98,28.304
-68.076,1016.748,22.204
-40.504,993.812,20.496
-62.952,965.752,24.156
-97.844,966.972,8.54
-82.716,982.344,13.664
-76.616,962.58,19.764
-51.484,962.336,29.524
-64.66,957.944,22.448
-106.14,987.956,3.66
-90.768,1017.724,6.832
-35.868,1036.756,20.984
-27.572,1007.476,26.596
-48.068,978.928,33.916
-57.096,984.54,31.964
-74.42,991.128,25.376
-76.372,985.028,22.936
-74.664,982.1,20.008
-92.72,973.316,13.42
-81.008,1000.888,4.636
-60.024,1016.748,15.616
-57.096,972.096,26.596
-87.352,980.88,24.156
-81.252,1019.188,15.86
-74.42,991.616,28.548
-68.076,953.064,40.748
-54.9,964.532,38.796
-56.12,979.172,30.988
-75.152,973.56,24.644
-80.764,980.392,21.96
-72.712,971.364,24.4
-81.008,947.452,22.936
-83.204,990.884,7.564
-79.056,1023.092,7.564
-67.1,990.884,25.62
-61.732,965.508,42.456
-62.952,982.832,32.94
-64.416,1017.724,12.444
-84.18,990.152,15.616
-85.156,965.996,29.768
-67.344,947.452,37.82
-64.172,939.156,51.972
-64.416,949.16,50.508
-70.272,986.98,33.916
-66.368,996.74,26.352
-55.632,1014.064,20.252
-75.884,1003.328,20.252
-85.888,1007.964,27.084
-49.776,997.228,40.748
-44.652,968.436,53.192
-62.22,968.68,43.188
-88.328,999.912,27.572
-82.716,1033.828,25.132
-55.876,1037.0,35.624
-27.816,1031.632,54.412
-24.156,1014.308,65.392
-58.56,964.288,72.956
-74.664,958.188,85.4
-71.004,963.556,98.088
-50.508,975.756,107.116
-17.812,977.464,86.864
-21.96,962.092,90.768
-73.2,973.072,78.08
-112.728,1000.644,58.804
-82.228,1011.38,59.048
-39.772,1042.612,58.56
-31.232,1023.824,50.508
-45.14,1026.996,64.172
-36.6,1029.68,65.636
-42.212,1030.656,71.004
-53.436,1019.92,62.22
-52.216,979.172,76.616
-35.624,942.572,80.52
-21.716,935.008,102.48
-19.032,935.252,101.992
-33.428,931.836,100.04
-50.996,932.324,91.012
-46.116,966.24,72.224
-58.316,948.672,65.148
-71.98,894.748,80.276
-63.684,913.292,72.956
-64.904,965.752,44.896
-53.436,981.612,40.992
-57.096,992.836,32.208
-43.676,991.86,33.428
-14.884,1005.036,20.008
-39.772,984.052,8.052
-50.752,999.18,6.1
-58.56,993.812,-1.952
-69.052,1000.4,-7.808
-85.4,1008.452,-10.248
-72.956,1020.652,1.464
-25.132,982.832,-28.792
-26.352,961.604,-38.064
-52.704,1019.432,-34.892
-49.532,1038.952,-46.36
-46.848,1034.072,-42.456
-55.632,1034.072,-50.996
-21.228,1034.804,-58.804
-16.348,996.984,-50.508
-61.732,953.552,-61.488
-100.528,938.18,-89.792
-132.492,933.056,-107.116
-162.26,925.492,-111.264
-162.504,936.716,-117.608
-143.228,957.944,-105.652
-126.392,965.02,-87.108
-139.568,974.292,-67.588
-125.416,982.832,-55.144
-77.348,1031.144,-41.724
-48.8,1049.2,-26.108
-64.904,1016.016,-0.244
-72.956,1001.864,6.588
-64.172,1034.072,8.296
-60.024,1028.46,6.344
-33.184,1042.124,2.928
1.464,1098.732,-4.636
14.396,1094.828,-14.152
64.66,1148.996,-34.404
61.244,1174.86,-38.552
95.404,1140.944,2.684
293.288,1138.504,-2.44
397.72,1127.524,51.24
485.804,1137.284,162.016
537.532,904.02,166.408
573.644,629.032,-58.56
399.672,803.248,18.788
280.844,839.604,224.968
417.24,775.92,180.56
599.02,631.472,104.432
742.492,513.864,52.948
731.268,503.616,14.884
679.052,486.78,46.36
711.016,387.96,-18.056
694.424,257.176,-44.408
715.164,208.376,86.132
608.048,-49.776,247.904
624.884,1.952,229.116
619.272,4.148,153.232
558.516,-19.764,166.652
560.468,49.776,99.796
605.364,3.172,13.176
545.828,-18.788,-46.36
480.68,-18.056,-18.056
510.204,-17.812,-73.932
660.508,-25.376,-216.672
653.92,-85.888,-213.744
601.46,-138.348,-144.204
612.196,-230.092,-178.852
686.86,-264.496,-242.536
686.372,-314.76,-183.244
688.812,-312.808,-184.952
849.852,-373.076,-333.06
1021.384,-521.184,-386.252
1026.02,-615.368,-372.588
976.976,-686.616,-296.948
1057.252,-762.5,-343.064
1150.704,-712.236,-467.016
1124.596,-709.064,-467.26
1214.876,-858.88,-341.6
1359.568,-1071.16,-333.06
1368.596,-1148.264,-315.004
1289.296,-1091.656,-259.128
1363.716,-1047.736,-292.8
1531.344,-1101.904,-373.32
1508.408,-1076.284,-372.1
1346.392,-1077.016,-233.508
1316.868,-1077.748,-110.776
1335.9,-1145.092,-68.076
1333.948,-1082.872,-46.604
1237.08,-1057.496,41.236
1223.172,-1075.308,149.816
1274.9,-1106.296,160.064
1277.584,-1055.056,178.608
1201.7,-1011.38,231.312
1143.872,-988.2,276.94
1104.1,-954.284,288.652
1135.82,-946.964,297.68
1125.328,-943.792,249.612
1131.184,-883.768,217.16
1020.164,-839.604,172.508
813.252,-679.296,151.524
597.312,-551.928,167.872
529.48,-422.12,154.696
507.764,-334.036,90.768
406.504,-244.244,52.46
325.252,-120.292,5.856
239.12,-34.16,-10.492
221.552,44.408,8.296
197.884,30.744,52.948
259.372,46.36,46.36
435.296,33.916,-4.148
580.964,0.488,-52.216
695.156,-80.52,-31.476
848.876,-81.74,-54.9
947.696,-87.352,-96.38
1021.14,-99.064,-97.356
1086.288,-95.404,-60.512
1103.612,-124.196,-44.408
1119.96,-107.116,-29.28
1102.148,-40.504,-30.744
1024.556,98.576,-47.58
1002.596,208.132,-69.296
1040.904,150.548,-79.544
1042.612,61.0,-48.556
972.828,121.268,103.456
871.324,208.62,206.912
856.196,353.068,206.424
824.476,541.192,117.608
722.484,679.54,43.188
740.052,768.112,5.368
701.256,743.224,-4.148
647.332,738.588,9.516
533.872,793.0,-25.132
426.024,860.832,-29.768
355.264,905.972,9.272
311.344,971.608,79.3
395.28,945.012,108.336
419.68,931.592,126.392
348.92,943.06,105.652
266.448,893.284,100.04
185.684,899.628,164.944
114.924,895.968,164.7
157.624,928.908,145.668
155.428,935.496,141.276
178.852,1012.356,115.656
144.692,1028.948,72.956
71.492,983.32,86.62
54.168,971.12,124.684
54.412,960.628,120.78
114.924,975.756,85.888
96.868,976.976,101.504
44.652,967.704,119.072
31.964,1047.492,78.324
8.052,1012.6,60.024
4.392,965.996,85.4
21.716,992.592,81.008
9.028,1005.524,71.248
9.272,974.78,75.396
0.488,960.14,89.06
4.392,999.424,75.64
-0.244,1025.776,61.488
-31.964,963.312,64.416
-24.888,956.724,80.276
9.516,1012.844,61.976
18.056,1013.576,63.196
0.976,955.748,76.86
-38.064,974.292,59.048
-55.144,995.764,36.6
-46.604,992.592,39.772
-26.84,985.028,42.456
-12.444,1003.572,43.676
-28.792,1005.036,35.624
-46.604,994.056,30.5
-50.508,958.676,45.628
-45.872,963.556,61.0
-31.476,988.932,51.972
-15.86,1021.14,52.216
-24.888,1007.964,47.824
-30.5,1012.844,52.704
-23.424,1001.132,59.536
-24.156,966.728,65.392
-33.672,948.184,66.856
-36.112,971.12,52.704
-53.436,991.86,45.628
-57.096,1003.084,35.136
-57.828,985.028,43.676
-44.896,975.024,45.872
-48.8,983.076,42.212
-43.432,987.468,34.16
-34.892,973.316,47.092
-40.992,971.12,57.096
-50.264,986.004,52.216
-55.632,986.492,39.772
-58.316,990.396,32.452
-57.096,1000.644,30.5
-53.436,988.444,44.164
-38.552,971.852,61.732
-28.06,946.476,74.908
-48.312,954.772,73.2
-70.516,998.692,50.264
-50.264,1024.8,38.308
-35.868,1003.328,51.972
-13.908,987.224,58.316
-41.236,982.832,54.412
-54.9,989.908,45.628
-67.588,996.74,44.408
-38.308,1006.988,50.996
-35.38,1019.188,42.212
-47.58,981.856,47.092
-52.46,973.56,43.92
-58.804,996.984,34.16
-56.364,981.124,37.332
-34.892,970.144,51.972
-47.824,968.192,45.872
-76.128,968.436,45.14
-60.268,979.904,46.36
-34.16,1015.528,46.848
-51.484,1015.284,44.164
-62.464,984.54,47.824
-80.52,949.892,69.296
-59.536,961.848,74.664
-45.384,974.048,57.828
-61.244,964.044,72.956
-62.22,969.168,71.004
-44.408,1020.652,66.612
-38.064,1025.044,65.88
-52.948,999.18,88.816
-60.756,967.46,112.728
-38.552,961.116,102.968
-46.36,980.636,101.992
-47.336,969.168,88.328
-20.496,942.328,71.004
-43.92,958.676,96.624
-42.456,953.064,79.056
6.832,1068.232,74.42
-16.592,974.292,67.588
-31.964,1006.988,94.184
-31.964,970.876,105.896
-40.016,971.852,114.924
32.696,1033.34,113.704
51.728,1034.072,127.612
36.112,999.424,139.08
24.888,981.124,136.884
33.916,1014.796,129.32
17.568,1014.552,137.372
34.16,982.832,142.984
32.696,936.716,163.48
50.752,944.768,164.212
29.28,977.708,133.468
-3.904,998.448,110.776
10.004,984.052,103.7
22.692,980.88,108.336
15.86,934.276,105.652
32.696,947.452,89.548
22.692,1006.012,46.604
-40.992,1036.756,16.592
-54.656,1074.332,-10.004
-35.136,1083.604,-16.348
4.148,1036.756,8.052
48.556,1018.7,33.916
110.776,1099.22,-31.964
59.78,1083.848,-7.076
-79.544,846.436,109.556
-2.44,952.332,46.116
12.932,965.02,10.492
-105.408,896.7,32.208
12.688,888.648,16.104
134.444,1015.04,23.912
71.248,911.828,42.7
39.284,909.388,75.64
31.72,928.42,14.884
-61.244,952.576,-16.348
-1.464,1021.384,-51.728
81.984,1049.2,-24.4
51.728,1013.332,-14.884
27.572,1066.524,-39.528
0.488,1064.328,-71.492
-19.764,1051.64,-71.248
-23.912,989.42,-46.848
-47.092,925.248,-27.328
-85.888,934.52,-42.212
-64.416,1019.92,-68.808
-51.484,1055.3,-95.16
-58.072,979.416,-60.512
-70.272,946.964,-34.16
-52.216,966.728,-41.48
-51.24,996.496,-43.432
-54.9,987.468,-38.796
-33.184,972.828,-20.984
-47.336,951.844,12.2
-32.208,1004.792,11.224
9.516,1057.984,0.0
22.204,1050.664,6.832
-7.564,1027.728,29.28
-16.104,992.104,39.528
14.152,980.636,65.88
73.444,1017.968,66.612
59.536,1034.072,62.952
35.136,1037.976,47.092
64.416,1036.268,53.68
92.232,1023.824,68.808
113.704,1004.304,86.132
106.872,994.788,105.408
101.748,994.056,76.372
111.996,1004.304,60.756
132.004,1052.86,24.888
196.176,1070.184,-48.8
218.38,1037.0,-20.984
427.732,1086.776,7.32
384.3,1041.88,157.136
358.192,864.736,176.412
508.984,669.78,-27.816
527.284,651.968,-4.636
549.976,656.604,-50.508
604.876,675.392,-3.904
481.656,614.148,170.312
514.84,416.752,200.324
780.556,80.032,235.704
800.076,-94.428,66.368
788.852,42.7,40.748
808.616,159.332,130.296
831.308,52.948,124.196
719.8,-36.6,81.252
584.38,-4.636,71.98
648.064,-49.288,115.9
574.62,-123.952,83.936
508.984,-32.94,17.324
529.724,30.988,-44.652
528.992,-98.332,-17.324
619.76,-188.124,-54.412
635.62,-224.724,-159.576
478.972,-194.468,-133.712
402.6,-202.032,-91.5
544.364,-251.076,-176.9
690.52,-293.288,-372.1
840.824,-251.808,-510.692
878.644,-413.824,-398.208
1024.556,-667.828,-313.052
1225.612,-804.468,-389.912
1333.216,-736.148,-488.244
1348.344,-708.82,-525.576
1368.84,-763.232,-514.352
1348.344,-897.432,-481.656
1272.216,-934.764,-430.416
1192.672,-851.072,-431.148
1231.956,-810.324,-453.84
1296.86,-894.992,-467.26
1292.224,-872.788,-440.176
1302.716,-886.94,-410.896
1319.308,-869.372,-389.424
1337.608,-943.304,-278.892
1280.756,-991.616,-162.992
1224.636,-967.46,-65.148
1233.42,-996.008,12.932
1289.296,-1029.192,32.208
1231.468,-1013.332,62.464
1200.48,-965.996,120.78
1236.348,-924.272,99.796
1277.34,-919.636,103.7
1251.72,-914.024,152.988
1155.096,-907.68,200.08
1170.224,-854.488,173.484
1267.092,-855.464,142.984
1246.596,-843.264,129.076
1101.416,-776.896,157.136
972.096,-754.936,195.932
956.968,-721.02,186.416
973.316,-663.192,125.904
731.512,-564.616,138.836
518.5,-425.78,183.244
393.816,-288.896,128.1
253.516,-161.284,70.272
150.304,30.744,9.76
98.82,141.764,-33.672
122.976,84.912,1.708
249.368,57.828,-17.812
375.516,84.912,-86.864
520.696,79.3,-130.052
694.912,39.772,-152.5
852.536,11.712,-172.02
867.908,-3.904,-167.872
910.852,18.3,-176.412
1014.552,13.908,-138.348
1100.44,27.084,-72.956
915.976,-34.16,-18.3
877.424,61.732,-55.876
899.384,164.456,-61.0
1059.204,335.988,-116.632
1103.368,336.232,-146.888
1163.88,384.788,-205.204
944.036,420.168,-177.632
808.86,517.524,-70.76
802.76,622.688,27.816
775.188,607.804,94.184
682.468,648.796,58.072
571.448,636.352,-1.952
589.016,710.528,10.248
597.312,790.56,8.54
618.784,948.184,13.908
555.344,989.664,3.416
432.124,960.872,-21.716
372.1,930.86,-39.284
356.972,989.664,-33.184
324.764,945.988,-6.1
234.728,933.788,41.724
168.604,920.856,34.648
181.78,947.696,20.008
179.34,1027.728,-5.856
133.712,1008.696,-21.228
110.288,993.568,8.052
56.364,954.284,53.68
49.776,960.384,68.076
58.56,1031.388,53.68
66.368,1040.172,35.38
88.328,1033.584,26.352
35.38,1006.5,50.264
-10.492,972.584,73.444
14.884,930.372,84.18
40.504,958.676,68.808
18.056,1003.572,51.24
2.44,1006.5,35.136
-40.992,988.688,36.844
-84.912,919.392,39.772
-44.408,930.372,46.36
-3.904,969.9,26.108
-27.084,997.472,22.936
-20.984,1014.796,23.424
-17.324,1038.952,24.644
-42.944,1000.644,25.62
-60.024,940.864,26.352
-33.428,963.8,39.284
-14.884,989.664,37.82
-12.688,1026.264,29.768
-43.432,1001.62,24.156
-72.224,974.536,25.376
-71.248,982.1,26.596
-53.436,988.688,19.52
-29.768,1000.4,23.912
-37.82,1002.596,25.376
-54.168,979.904,41.236
-57.828,985.76,36.844
-40.992,1003.328,23.18
-42.212,999.668,30.744
-72.468,976.0,28.304
-67.1,989.176,32.696
-35.38,1008.94,34.404
-38.308,1002.84,30.5
-34.648,1002.84,28.548
-72.468,966.728,29.768
-97.844,949.892,24.156
-71.736,984.54,15.86
-44.408,1006.256,22.204
-60.268,986.248,37.82
-56.364,993.08,31.476
-61.488,1002.108,22.692
-71.004,976.488,28.548
-55.388,960.14,33.916
-64.904,967.216,27.816
-77.348,966.484,25.62
-62.952,987.224,31.72
-51.728,996.496,20.74
-60.512,1000.644,16.836
-74.42,990.64,16.836
-74.42,978.684,26.352
-62.952,978.44,38.796
-56.608,984.54,44.652
-54.168,971.364,43.188
-52.216,986.492,39.284
-56.852,1019.432,24.156
-75.396,1005.768,25.62
-74.664,971.364,37.82
-58.804,963.8,42.944
-54.168,973.804,36.356
-76.372,983.32,23.912
-79.544,990.64,22.204
-76.128,1000.156,24.644
-65.148,984.54,35.136
-51.972,976.488,40.504
-66.856,975.268,30.012
-73.2,987.224,30.744
-62.464,969.412,40.992
-54.656,998.936,38.552
-60.024,1013.82,29.036
-72.224,986.736,23.18
-76.372,962.58,38.796
-68.808,993.324,27.572
-81.252,994.3,21.228
-73.2,979.416,25.376
-66.124,991.128,31.72
-83.936,997.472,36.6
-64.172,998.692,51.24
-52.216,990.64,67.344
-62.952,981.856,78.08
-72.224,968.192,94.916
-44.896,994.3,109.8
-13.42,1024.068,116.632
-12.2,1026.996,146.644
-19.52,976.244,132.736
-36.844,987.712,137.616
-35.868,1003.084,110.776
-46.604,987.956,110.532
-29.768,950.38,95.892
-28.548,964.288,127.612
-0.488,1013.82,136.884
2.44,1011.624,134.444
-17.324,1000.4,134.444
-15.86,971.364,128.1
-32.94,956.48,122.976
-20.252,961.848,126.148
-2.928,997.96,107.604
-2.684,992.104,100.528
-39.528,971.12,84.912
-75.884,986.98,65.88
-104.92,990.64,48.556
-49.776,977.952,50.264
-25.62,971.852,68.564
-56.852,934.032,68.076
-77.836,910.608,74.176
-23.668,942.328,77.104
4.392,1024.556,71.492
-20.252,1010.892,42.212
-53.436,987.712,55.632
-30.012,982.588,49.776
-34.892,1008.452,32.94
-56.364,996.984,28.548
-30.012,989.42,31.476
-34.648,1019.432,19.764
-82.716,1013.088,21.96
-81.984,1021.14,18.3
-84.912,990.396,15.372
-74.664,1000.644,1.464
-26.352,1018.944,-4.148
-31.476,948.672,16.836
-43.432,908.168,18.056
-88.572,915.0,11.224
-111.996,913.536,0.244
-112.24,931.104,5.368
-34.16,976.976,-43.92
-16.592,1024.312,-28.792
-45.872,1000.4,-50.508
-108.336,1002.596,-70.028
-138.348,984.052,-74.42
-134.688,972.34,-69.784
-105.164,998.692,-68.076
-93.94,984.296,-55.144
-103.7,992.348,-53.436
-109.8,1053.348,-70.272
-124.44,1023.336,-65.636
-132.248,970.388,-40.992
-97.356,973.804,-24.156
-47.824,1019.432,-24.644
-63.44,1013.82,-20.984
-116.388,988.444,-11.468
-131.516,991.128,-12.444
-114.192,1006.988,-11.956
-75.152,1001.864,-7.808
-30.988,1043.588,-4.88
-67.344,1056.032,4.392
-84.424,952.088,-13.908
-125.66,936.472,70.272
-61.0,967.704,26.596
-65.88,963.8,37.088
-57.34,979.904,53.436
-10.004,1031.388,54.9
25.864,1034.804,49.776
15.372,1005.524,76.86
44.164,1004.304,58.072
51.24,1054.08,72.712
135.176,1143.872,48.068
213.744,1145.336,8.296
241.316,1087.264,28.548
326.96,1053.348,56.364
441.396,1366.4,239.364
463.356,797.392,-138.836
578.524,692.716,31.964
732.976,698.328,101.016
634.4,573.888,89.792
554.856,594.628,68.564
554.368,687.592,45.628
694.668,599.752,79.544
696.62,388.204,90.768
623.908,186.904,87.84
639.28,237.9,128.588
689.544,244.976,50.752
729.072,179.096,35.38
624.884,122.244,98.332
653.432,-55.876,234.24
548.756,-123.22,212.036
556.076,-1.464,68.564
563.884,-42.7,50.264
534.36,-85.644,96.136
570.472,-23.18,-41.236
635.62,-59.292,-62.22
496.54,-169.58,-5.124
498.492,-176.9,23.424
629.52,-288.408,-71.248
670.024,-373.076,-96.624
693.448,-383.08,-115.412
714.432,-360.144,-279.136
745.42,-384.3,-317.932
773.968,-515.328,-311.588
726.144,-502.64,-361.852
708.82,-564.86,-302.316
847.656,-769.088,-325.74
1036.756,-854.976,-421.388
1114.348,-820.816,-551.44
1065.304,-864.736,-524.6
1044.076,-988.688,-427.0
1100.44,-1057.984,-386.496
1136.796,-1064.328,-413.336
1198.04,-1059.448,-460.672
1282.22,-1114.592,-468.48
1270.508,-1143.14,-444.08
1205.116,-1092.144,-414.8
1208.776,-1102.88,-364.292
1288.564,-1154.608,-326.228
1358.836,-1192.428,-292.556
1342.976,-1187.304,-264.252
1257.088,-1158.024,-194.468
1192.672,-1175.104,-94.916
1141.188,-1133.38,-40.26
1143.384,-1092.632,-39.528
1143.628,-1058.228,-49.044
1087.996,-1019.432,-34.648
1038.952,-943.304,-22.448
1050.176,-931.348,10.004
1078.968,-979.416,29.768
1037.244,-934.032,26.596
990.152,-869.372,24.888
1029.436,-834.236,-34.648
972.096,-785.192,-60.756
826.916,-705.892,2.44
792.756,-666.608,-4.88
785.68,-589.748,-66.124
667.828,-499.956,-53.68
570.472,-428.952,-22.692
554.368,-357.948,-20.008
496.296,-295.972,-19.276
451.888,-255.224,-28.792
368.684,-162.016,-29.036
294.752,-47.58,-40.992
273.524,33.916,-37.576
328.424,22.936,-34.404
381.372,20.496,-39.528
534.116,4.636,-95.16
690.276,-37.088,-176.9
738.588,8.296,-206.668
775.432,5.612,-186.416
860.344,-14.396,-193.98
969.656,-61.0,-214.964
1034.316,-28.792,-263.032
1171.932,-68.32,-234.24
1220.244,-134.2,-219.356
1120.936,-94.184,-194.224
979.172,42.944,-140.3
1057.984,132.492,-155.672
1037.488,174.46,-153.476
1013.576,233.264,-183.732
1072.868,102.48,-268.888
1149.972,157.868,-199.104
1052.616,404.552,-156.648
898.164,466.284,-122.976
784.46,493.124,-33.672
722.972,479.948,-9.272
709.308,533.628,13.176
738.344,540.948,-12.932
683.2,661.972,-22.204
620.248,750.544,-57.096
617.32,847.9,-64.66
650.748,988.444,5.368
616.832,925.004,-10.248
449.936,870.592,-31.232
328.668,904.508,0.244
309.636,857.172,66.856
368.684,841.556,114.436
343.552,884.012,90.768
281.576,948.184,62.464
262.3,965.996,25.376
188.612,964.776,38.552
159.332,967.704,70.76
203.252,968.924,71.492
216.428,925.248,101.26
179.096,932.08,99.552
111.996,965.996,85.644
64.416,991.616,55.388
21.228,982.344,48.556
10.492,986.492,50.996
131.76,1126.548,-83.692
122.732,1029.436,-73.688
-23.668,862.784,156.892
16.104,1028.46,40.504
36.6,984.54,-8.54
-38.552,934.276,30.012
25.864,946.476,14.152
55.144,1047.492,1.708
51.728,1060.668,-25.376
46.116,995.764,-2.44
29.524,974.78,10.492
14.884,995.276,12.444
14.884,1002.84,-4.392
33.672,1014.796,-16.592
68.808,1014.796,-8.784
36.356,974.78,11.224
-24.156,953.796,2.196
-39.04,965.508,-8.54
18.788,998.448,-19.276
46.604,1005.28,1.708
47.336,991.372,14.396
20.74,991.128,13.664
-2.928,1007.476,-10.98
-20.008,1006.5,-10.736
-4.88,976.976,3.66
37.82,977.708,10.492
38.064,967.704,20.496
6.344,970.144,20.74
-22.692,958.92,17.324
-8.052,970.388,11.468
0.732,984.296,7.808
8.052,974.048,9.516
-7.808,995.032,7.564
-18.056,1003.572,10.736
4.148,1000.156,15.128
-3.904,987.468,23.668
-10.248,986.98,24.156
2.44,1021.14,10.248
10.004,1027.24,14.152
13.664,1009.672,21.472
0.244,976.488,28.792
-8.296,958.188,35.624
0.488,978.684,30.012
9.516,996.496,19.764
-2.928,996.74,20.984
-19.764,966.484,18.544
-54.9,941.596,28.792
-42.944,965.996,16.104
-31.72,1001.62,11.468
-6.832,997.716,31.476
9.516,984.052,48.068
1.952,988.444,58.804
-11.956,990.152,67.344
-4.88,1032.852,71.248
38.552,1051.884,80.032
33.428,1024.312,103.944
-10.492,981.124,112.24
5.124,975.512,132.248
36.6,974.048,175.192
56.608,932.324,168.848
54.656,922.808,168.116
26.108,918.904,140.3
-36.356,912.56,122.976
-57.584,989.42,89.548
8.052,1064.328,58.072
29.768,1035.048,62.464
22.936,986.004,101.016
-53.436,1042.124,102.724
-31.72,998.448,50.508
7.32,1079.212,56.364
-20.984,1010.404,46.604
-53.436,979.66,64.416
-15.128,1011.136,84.668
21.96,971.12,97.6
-30.012,946.476,102.724
-52.948,965.996,101.504
-16.348,985.028,105.896
20.74,988.688,129.076
39.04,966.728,107.848
-13.42,950.624,111.996
-33.184,958.188,115.168
-1.952,1008.696,85.644
33.428,1041.392,50.02
15.86,1029.924,73.688
-9.272,984.784,90.28
5.368,995.276,87.596
-35.868,1015.772,66.612
-72.468,993.568,50.02
-34.648,1000.156,43.676
-21.716,974.78,37.576
-35.624,935.252,55.388
-45.628,967.216,46.604
-44.164,1000.644,38.308
-44.896,1019.92,32.208
-54.656,1014.552,32.208
-107.116,1014.552,20.008
-118.34,1067.012,-4.148
-81.252,1080.188,-20.496
-88.572,1021.384,-6.832
-111.996,994.544,-6.832
-91.744,949.16,3.416
-79.3,894.504,20.984
-79.056,879.132,17.812
-77.592,872.056,3.416
-101.992,853.024,3.172
-114.192,853.024,5.612
-100.772,896.944,-4.148
-110.532,926.224,-21.472
-128.588,922.808,-25.864
-138.592,945.988,-22.936
-131.76,973.072,-16.836
-132.004,1005.036,-16.104
-97.6,1031.144,-1.952
-46.116,1046.516,22.448
-43.188,1014.796,41.968
-77.348,999.912,36.844
-94.672,1020.652,38.064
-70.272,1045.296,34.648
-32.452,1038.952,45.872
-47.336,1019.432,50.752
-39.284,1014.064,52.704
-4.148,1020.896,47.336
-32.452,1043.588,30.012
-52.216,1067.744,7.808
4.636,1075.552,-39.04
55.144,1190.72,-72.468
101.992,1114.836,-71.248
81.984,1090.192,55.388
206.424,1113.128,128.588
334.036,1018.944,54.656
369.172,1034.56,30.988
445.056,939.156,-13.42
363.804,586.332,-113.46
396.988,542.656,23.912
643.184,548.756,132.736
735.66,503.372,47.58
771.284,502.64,75.152
821.548,340.136,70.028
846.192,310.368,104.92
683.444,244.488,284.26
482.632,222.772,334.036
484.584,199.348,380.64
494.832,33.916,293.776
531.676,52.46,167.384
695.888,5.612,167.872
731.512,61.244,184.22
556.808,-26.352,130.052
528.992,48.556,73.932
554.124,-12.688,-5.856
455.548,-87.84,-88.084
411.14,-71.736,-154.452
518.744,114.192,-54.9
748.836,-127.856,-192.028
806.176,-249.612,-314.272
822.768,-243.512,-356.972
796.904,-283.284,-402.844
813.74,-413.092,-394.792
953.552,-511.668,-291.824
1179.252,-660.264,-290.604
1245.62,-639.524,-444.08
1206.58,-649.528,-349.164
1369.572,-851.072,-197.884
1537.2,-906.216,-248.88
1544.764,-907.192,-241.072
1543.056,-980.636,-110.532
1864.892,-1103.368,-32.208
2040.084,-1138.016,23.424
2122.8,-1120.692,31.476
2161.108,-1237.568,186.172
2044.72,-1311.988,336.72
1865.136,-1269.776,416.752
1622.356,-1192.184,536.8
1615.524,-1161.684,585.6
1684.088,-1170.224,546.072
1489.132,-1100.928,442.86
1145.824,-993.812,452.864
982.588,-908.9,468.236
789.828,-817.4,340.38
537.288,-651.724,348.432
319.396,-495.076,286.212
172.02,-304.512,122.732
129.076,-231.8,71.492
88.328,-145.18,19.764
94.672,-64.172,-77.104
25.376,36.112,-116.632
27.084,90.524,-97.356
184.708,145.668,-138.836
332.328,163.48,-205.204
550.952,146.644,-235.704
754.936,29.768,-173.24
853.024,-30.744,-68.564
897.92,-41.968,-10.004
994.3,-48.556,56.12
1104.1,-82.472,100.528
1106.54,-56.608,75.152
1021.384,-19.032,79.544
1014.308,-1.708,111.02
1149.972,94.916,114.68
1237.08,95.16,68.564
1118.252,87.352,-73.932
980.88,184.708,-10.004
1015.528,212.524,-37.332
1011.624,162.992,-25.132
984.784,227.896,0.976
955.992,244.488,36.6
861.808,318.664,-2.196
779.336,438.956,-12.444
832.284,676.856,-162.26
873.032,630.496,-158.356
885.232,548.268,-68.808
855.952,586.332,-56.852
767.38,657.824,-67.832
608.536,615.612,-51.24
543.144,918.66,-18.3
532.652,851.316,-78.812
508.496,855.464,-120.292
536.068,871.08,-136.884
541.436,934.032,-87.108
472.384,1012.844,-75.152
354.532,980.392,-72.956
266.448,976.488,-53.192
216.916,966.728,-69.54
222.284,974.048,-70.028
230.824,954.04,-67.588
207.156,956.48,-65.148
140.3,958.432,-22.448
92.72,967.704,-32.208
32.208,932.324,-34.648
32.208,935.008,-19.764
93.696,993.324,-48.312
114.924,986.004,-55.632
93.696,1013.576,-44.164
16.348,951.112,-29.524
-15.372,957.456,-2.684
22.692,972.34,-6.344
40.504,992.348,-7.076
26.84,974.292,-12.444
47.824,1037.976,-16.348
57.34,1000.156,-12.2
24.888,960.872,-12.444
-22.936,967.216,-13.42
37.088,1010.892,-23.912
55.388,1008.452,-7.808
43.92,1011.624,9.028
-3.172,996.984,-13.664
-22.936,981.856,-27.572
2.44,966.24,-6.588
33.184,986.98,-0.732
49.044,1012.6,-11.468
31.232,1004.548,-19.276
10.492,1013.576,-31.72
-3.416,990.884,-32.208
-19.52,949.648,-17.568
17.812,962.824,-6.832
43.188,1002.84,-7.32
35.868,1006.744,-20.984
5.612,1000.4,-31.476
-9.516,981.368,-23.668
9.028,997.96,-27.084
10.248,980.88,-21.96
14.396,957.212,0.732
13.176,972.096,1.464
24.888,996.984,-13.664
14.396,1012.844,-36.844
1.464,1007.476,-35.38
13.664,975.512,-14.152
8.052,965.264,2.196
18.3,974.292,-3.172
18.056,1006.5,-11.468
16.836,1020.164,-17.324
7.076,1017.48,-32.94
-1.22,982.832,-16.836
14.884,995.764,-8.54
31.72,1013.088,-4.636
24.888,991.616,-4.392
8.296,964.044,5.368
5.612,976.732,-3.66
5.368,1009.672,-19.52
8.296,1007.476,-28.548
15.616,1000.4,-17.324
7.076,976.976,-10.248
-3.172,964.288,4.88
15.128,975.024,12.932
29.036,1007.964,3.416
19.032,1009.184,-20.008
-7.32,986.492,-24.4
-15.372,984.784,-15.372
2.44,997.472,-9.76
24.4,997.472,0.244
9.76,981.856,4.88
-7.076,976.0,1.952
-8.784,990.884,3.172
3.172,1007.476,-1.22
0.976,1010.892,1.952
1.22,1010.404,1.464
14.152,1001.62,19.276
27.816,1009.184,29.768
17.08,1007.72,21.228
-12.444,993.08,6.344
-20.984,976.244,2.684
2.928,991.86,9.272
-7.32,961.36,28.548
-12.688,964.288,46.36
15.128,1022.116,38.552
11.468,1020.408,25.62
-13.908,1006.012,39.772
-6.344,988.932,39.772
-13.176,994.544,64.416
14.396,1005.036,52.216
-4.148,999.18,41.48
-39.772,996.008,84.912
-36.844,988.2,112.484
48.556,968.192,21.472
31.72,979.172,0.488
-12.688,973.072,8.052
-32.208,1003.084,26.596
-62.708,990.64,32.208
-49.288,1003.084,8.296
-19.764,1001.62,26.108
34.404,1012.356,30.012
51.972,1005.768,34.404
20.984,1002.84,26.108
-21.716,958.676,43.188
-39.528,957.7,42.944
5.856,991.372,0.488
13.664,998.936,12.688
7.32,980.392,18.788
-28.06,938.668,19.032
-46.848,901.092,27.328
-29.28,972.096,3.416
0.244,1045.54,-25.376
-4.148,1030.412,-28.304
-26.84,993.812,-29.524
-30.744,963.556,-12.932
-31.72,980.636,-15.616
-34.404,1023.092,-26.352
-30.012,1050.176,-31.72
-35.38,1001.132,-27.816
-37.088,989.908,-39.772
-45.14,969.168,-31.476
-28.06,949.16,-15.128
-67.344,952.332,-13.42
-83.936,983.076,-61.732
-49.776,1025.532,-84.912
-60.756,989.908,-71.736
-73.2,957.7,-67.832
-67.344,996.984,-85.156
-74.42,998.448,-90.768
-88.084,986.736,-87.352
-81.496,1017.236,-110.288
-90.28,991.616,-126.636
-151.524,899.628,-125.66
-182.512,862.54,-128.344
-157.624,918.172,-139.08
-120.048,934.52,-130.784
-98.576,910.852,-116.144
-136.64,904.996,-108.336
-162.016,917.196,-125.904
-150.548,996.984,-131.76
-125.66,1054.324,-138.836
-120.536,1028.948,-115.412
-75.64,1021.14,-95.404
-54.9,1055.544,-86.62
-93.208,1077.748,-83.692
-17.812,1140.212,-89.06
129.564,1241.716,-119.804
77.836,1282.952,-65.148
-29.524,1209.02,13.664
80.276,1188.768,20.008
335.256,1059.448,-126.636
409.432,913.292,-172.02
376.98,1011.136,-26.596
402.356,1002.84,52.704
418.948,1036.756,72.956
504.836,912.56,146.644
719.068,708.576,76.128
1035.78,626.348,18.544
591.212,611.22,-8.784
-2.44,915.488,108.092
297.436,423.828,175.192
356.728,289.384,221.064
353.8,327.692,204.472
541.68,262.056,130.784
569.252,238.388,131.272
546.072,231.068,187.88
513.376,163.48,77.836
448.716,195.444,-7.076
389.18,302.804,-93.208
545.584,188.368,-87.108
596.092,58.316,-87.108
532.164,88.816,-54.9
527.284,90.768,-52.216
563.152,12.932,-182.268
615.612,-24.644,-277.672
759.572,-18.788,-270.352
836.676,-128.832,-178.12
742.736,-250.832,-72.956
817.644,-324.032,-67.588
936.716,-380.396,-161.528
1038.952,-391.132,-278.16
1072.624,-460.916,-197.64
1169.004,-548.268,-189.588
1195.112,-643.428,-135.176
1181.692,-713.7,-73.444
1217.804,-738.588,-93.696
1343.708,-761.28,-184.952
1506.212,-788.364,-205.692
1538.908,-831.064,-135.176
1461.072,-851.316,-67.588
1479.128,-882.548,-22.448
1628.212,-935.496,23.668
1724.836,-928.664,-26.108
1768.512,-946.232,25.376
1795.108,-989.42,149.084
1780.956,-1027.972,285.724
1609.424,-1034.316,391.132
1494.744,-964.288,393.572
1458.388,-911.096,423.34
1502.552,-910.364,457.744
1595.028,-900.604,370.636
1549.888,-877.424,321.104
1380.552,-851.072,298.9
1190.72,-760.548,238.632
1087.02,-724.436,261.324
868.884,-647.82,262.056
657.824,-507.52,166.652
434.808,-445.056,203.252
252.296,-359.9,237.656
220.088,-210.816,168.116
211.792,-126.392,85.644
213.988,-49.288,57.34
263.276,21.472,-32.452
297.192,58.072,-87.596
333.548,51.728,-54.9
334.524,69.052,-25.864
344.284,94.916,-10.736
436.028,107.36,-19.52
653.188,136.64,-158.844
794.464,101.992,-172.264
878.156,68.564,-81.008
991.616,24.644,-27.572
1043.832,0.244,0.976
1127.524,6.1,0.732
1204.384,34.892,29.524
1236.104,53.436,-28.06
1241.228,20.984,23.18
1257.332,37.088,16.592
1260.016,77.348,-10.736
1274.168,85.156,-28.304
1179.496,52.704,-98.088
1065.06,2.684,-124.196
1031.876,122.732,-63.44
990.884,150.06,-82.716
987.468,247.172,-89.304
919.148,293.044,43.92
764.696,345.016,138.836
713.944,472.872,78.568
683.688,458.964,114.436
654.652,472.872,97.844
585.112,585.112,-16.592
883.036,975.268,-132.736
792.024,683.688,-130.54
674.904,730.536,-92.964
440.908,810.324,-6.344
357.948,791.78,50.02
351.116,812.764,45.628
471.652,817.888,-35.136
489.952,898.652,-133.956
366.976,981.612,-146.888
210.816,964.532,-111.508
87.596,918.172,-47.58
142.984,931.348,-94.672
178.364,978.928,-93.452
176.9,987.468,-112.972
93.208,1013.576,-118.096
71.004,1015.772,-99.796
47.824,961.116,-84.424
-23.668,939.4,-91.012
-60.512,980.392,-111.996
-35.868,1030.656,-162.26
41.48,984.54,-152.744
17.324,989.908,-97.844
-36.112,1032.12,-83.448
-30.988,1006.5,-112.728
-35.136,979.66,-94.916
-15.616,996.252,-84.18
-9.76,1001.132,-84.912
8.296,1002.108,-104.432
14.152,997.472,-95.892
-31.476,971.364,-58.316
-36.6,958.188,-69.54
-24.888,1013.82,-94.916
-30.744,994.3,-87.596
-12.444,980.636,-77.104
-15.128,1010.892,-69.296
-12.688,966.972,-71.492
-17.324,978.196,-50.264
-26.84,991.86,-55.388
-17.324,990.884,-58.804
-24.644,984.784,-38.308
-22.448,992.348,-64.416
-41.724,983.32,-76.128
-30.988,987.468,-74.664
-9.516,1015.04,-68.32
-14.884,1027.24,-69.052
-27.816,987.224,-55.632
-37.332,959.896,-44.164
-33.672,969.9,-40.016
-17.568,996.74,-66.368
-37.332,992.592,-76.86
-45.384,979.66,-66.124
-33.672,986.98,-59.048
-29.768,989.176,-64.416
-44.164,974.048,-67.1
-31.72,960.384,-43.676
-20.496,984.54,-44.652
-30.5,998.204,-61.244
-50.264,986.736,-80.276
-62.464,994.544,-85.4
-40.26,974.048,-68.076
-31.476,956.968,-52.948
-36.844,955.26,-35.624
-36.112,1005.28,-59.292
-51.24,1037.732,-82.716
-64.66,987.712,-66.368
-62.464,964.776,-61.976
-47.336,973.316,-58.56
-28.304,986.98,-48.068
-33.428,991.372,-35.136
-37.82,1000.4,-36.6
-43.432,1006.5,-58.316
-50.752,1005.036,-49.532
-43.92,1030.412,-45.14
-23.912,1029.924,-30.5
-27.084,997.228,-6.832
-45.14,965.752,6.1
-37.576,976.976,7.32
-19.276,1009.672,4.88
-34.404,1003.328,-5.368
-45.872,999.668,-3.904
-28.792,1016.992,-7.808
-33.428,1007.232,-3.416
-41.724,977.952,-7.808
-72.224,948.428,-17.324
-72.468,956.724,-27.328
-44.652,995.032,-28.06
-37.332,1011.868,-20.008
-35.136,1016.992,-32.696
-52.704,1013.088,-42.944
-69.052,1019.92,-54.412
-57.828,1059.204,-70.76
-41.48,1037.244,-56.364
-50.02,1009.428,-40.504
-75.396,1004.792,-50.02
-68.076,1018.456,-61.976
-58.804,1022.36,-56.364
-74.176,966.484,-42.212
-86.864,938.668,-29.524
-83.692,984.296,-46.848
-70.516,1002.596,-49.288
-76.128,989.42,-37.576
-56.364,1037.0,-49.532
-60.024,1048.712,-60.512
-84.912,1008.94,-45.872
-89.304,992.836,-36.112
-54.168,992.348,-22.448
-52.46,943.304,7.076
-79.544,923.54,-12.932
-93.696,925.004,-58.804
-127.124,888.648,-95.16
-176.412,817.4,-128.1
-176.9,858.88,-176.656
-151.036,946.964,-222.284
-151.036,970.144,-250.832
-170.8,968.436,-263.276
-187.636,952.82,-257.176
-178.608,957.212,-251.808
-166.164,991.372,-251.808
-180.316,1006.256,-250.1
-191.54,979.904,-218.624
-172.508,993.812,-183.732
-146.888,1099.464,-155.184
-88.572,1139.48,-153.476
-20.252,1083.36,-144.692
-52.948,1124.596,-104.676
-28.792,1136.064,-75.396
0.976,1093.364,-63.44
71.248,1112.884,-37.088
222.284,1130.94,-53.924
249.368,1093.852,-32.94
289.384,1051.152,-4.148
378.688,1084.092,46.116
484.34,1074.332,61.488
589.26,744.444,-57.34
438.468,670.756,-34.16
300.608,698.816,80.032
281.576,594.628,71.492
377.224,746.64,62.464
613.66,634.644,10.736
599.02,372.832,-66.612
483.608,376.492,91.5
435.296,275.476,103.456
483.12,204.472,195.688
524.844,111.02,172.02
653.92,100.772,102.724
777.384,115.9,-19.276
708.088,50.996,-37.332
603.168,22.448,70.028
488.732,5.124,124.684
489.464,23.912,0.976
524.112,19.032,-95.404
638.06,-91.012,-48.556
717.36,-201.3,-65.392
464.332,-116.876,-137.86
425.78,39.284,-243.268
627.08,-145.668,-250.832
634.4,-326.228,-194.956
802.76,-342.332,-217.648
971.12,-523.136,-241.56
939.156,-520.94,-266.692
1005.28,-536.068,-221.064
1165.344,-707.6,-227.164
1347.368,-802.028,-294.264
1503.284,-794.708,-411.384
1461.072,-739.32,-409.432
1419.104,-780.068,-304.512
1654.564,-950.868,-305.488
1743.38,-1043.588,-359.9
1452.044,-881.328,-326.96
1273.68,-717.116,-269.62
1511.092,-878.4,-186.416
1791.936,-1036.756,-227.408
1592.588,-993.08,-215.94
1318.088,-894.748,-93.208
1271.972,-861.32,-40.016
1276.852,-834.236,-22.692
1299.3,-861.32,27.572
1318.332,-833.504,3.172
1290.028,-844.972,50.02
1251.476,-880.352,131.272
1072.868,-775.188,152.012
1040.172,-638.792,159.82
1148.264,-664.412,114.192
1110.688,-650.748,98.332
1085.8,-618.296,101.504
1073.844,-631.716,97.112
969.9,-559.98,85.888
808.372,-434.808,79.788
743.712,-370.392,80.52
793.732,-353.312,43.92
761.036,-356.972,-2.196
488.732,-199.836,8.052
233.508,-33.916,58.56
200.324,42.944,73.444
295.972,41.48,-20.252
322.08,109.556,-75.64
368.928,155.428,-82.716
523.136,61.244,-103.7
667.828,50.996,-160.552
745.42,85.888,-195.688
855.952,67.588,-152.744
930.86,-13.664,-162.748
968.192,5.124,-227.652
1020.408,61.976,-207.4
1078.236,50.508,-136.64
1160.464,-3.416,-74.42
1118.252,20.984,-56.608
1040.904,145.912,-94.184
1060.18,261.568,-187.392
1010.892,228.384,-195.2
1007.476,315.736,-200.812
1057.252,366.976,-203.496
1025.288,413.824,-216.672
894.504,464.088,-142.252
850.828,514.108,-133.956
870.592,515.084,-120.048
827.648,512.4,-40.016
744.932,511.18,29.524
679.784,559.492,63.684
670.512,669.292,35.868
701.744,762.744,-61.976
692.472,856.44,-69.296
655.384,884.744,-92.72
580.476,880.84,-63.44
487.756,880.352,-35.868
399.184,849.12,24.156
380.64,819.108,55.388
340.624,911.34,31.964
330.62,937.204,-5.612
290.36,893.284,20.496
287.188,916.708,37.576
285.968,966.728,40.504
277.672,960.14,48.556
233.996,933.788,52.948
180.316,912.804,69.784
183.0,935.496,3.66
165.676,996.496,6.1
124.684,988.2,-10.98
73.932,965.752,0.244
63.44,936.228,21.96
62.464,934.032,47.336
57.584,919.636,32.452
44.164,922.076,5.124
42.456,983.076,14.396
53.192,1020.164,0.0
58.316,1026.02,-11.956
74.664,1014.308,-11.468
83.448,1019.432,12.444
63.928,1001.62,12.932
30.744,1001.132,5.612
35.38,1003.328,9.272
34.892,1019.676,11.468
48.068,993.324,-9.272
45.628,997.472,-7.32
32.452,1009.184,-7.32
40.504,1020.896,-16.592
35.868,1032.12,-19.276
27.572,1022.36,-13.908
6.588,979.904,-20.496
10.98,972.096,-12.932
18.788,972.584,-12.444
28.792,1016.016,-23.912
25.132,1005.524,-28.304
17.812,954.284,-17.812
-14.64,960.384,-13.42
-2.44,989.908,-29.28
27.084,994.788,-30.988
33.916,982.344,-14.884
19.276,986.98,-23.668
-10.248,1008.452,-39.528
-4.636,1018.456,-43.676
-27.328,974.292,-34.404
-37.088,958.676,-19.032
11.712,985.028,-23.668
37.332,1017.724,-16.836
21.716,1001.132,-28.06
-4.636,986.492,-29.28
-22.204,969.656,-27.816
-32.696,975.512,-20.496
-30.012,988.688,-30.5
-8.052,997.228,-37.088
-10.248,978.196,-33.916
-19.764,987.712,-38.308
-3.172,1007.964,-39.284
-19.276,976.0,-23.668
-30.256,956.968,-25.132
-36.6,978.196,-40.992
-35.136,984.296,-48.8
-21.96,987.224,-36.6
-25.132,979.66,-20.984
-15.372,977.464,-17.08
-10.248,970.876,-10.004
-13.176,980.636,-11.712
-11.468,1025.532,-26.84
-36.6,1020.896,-36.6
-32.208,998.204,-23.424
-20.252,974.048,-6.832
-9.028,990.396,4.88
-14.152,997.96,-7.076
-42.212,987.224,-20.008
-50.02,1004.06,-31.964
-39.284,1006.988,-29.036
-36.6,964.532,-10.492
-19.764,969.656,10.248
-4.148,1018.212,0.732
-14.884,1051.884,-17.812
-45.14,1010.892,-14.152
-48.068,972.584,5.124
-27.572,995.52,12.932
-24.156,993.08,18.3
-16.836,991.372,38.308
-18.056,994.544,58.316
4.88,1040.66,53.192
16.348,1058.96,42.456
-2.684,1015.04,33.916
-32.452,992.348,42.456
-21.228,959.896,38.552
-19.032,923.784,33.184
-63.928,973.56,22.204
-78.08,995.276,-21.472
-59.78,1031.876,-25.62
-58.316,1040.416,-27.572
-72.712,1003.328,0.976
-51.24,1019.188,14.64
-15.128,1046.272,23.18
-11.224,1033.584,33.184
-41.48,1016.504,35.136
-42.212,1033.34,8.052
-35.38,1031.876,0.0
-41.48,994.056,6.588
-71.736,974.048,14.64
-67.1,997.716,-15.86
-43.676,1036.024,-38.064
-74.42,998.692,-54.9
-113.46,950.38,-40.016
-123.22,991.86,-40.504
-83.692,1024.312,-53.192
-62.22,1007.476,-31.232
-63.928,928.42,-21.96
-85.156,928.664,-31.964
-95.16,910.852,-69.784
-139.08,897.676,-88.084
-160.552,873.032,-111.508
-155.916,882.06,-143.228
-148.108,920.124,-161.528
-221.552,899.384,-168.604
-251.076,872.3,-164.456
-187.392,965.264,-179.828
-168.604,989.176,-193.004
-211.304,934.764,-185.928
-196.42,927.688,-161.528
-183.244,951.356,-137.86
-154.208,964.776,-115.168
-112.972,1003.328,-84.912
-119.072,1066.036,-66.612
-77.104,1062.376,-67.1
-89.792,1056.764,-68.564
-66.856,1056.032,-82.228
-50.264,1136.552,-47.58
7.564,1124.108,0.0
79.788,1123.864,21.472
147.864,1211.704,14.884
203.008,1194.868,-40.016
157.868,1164.612,13.908
172.996,1200.48,66.612
347.212,1083.848,46.36
593.896,784.948,-76.372
673.196,584.136,-10.492
609.268,670.268,53.924
476.776,746.884,-34.892
437.736,787.876,51.972
572.18,485.072,161.04
557.296,382.104,95.648
469.456,242.536,178.12
260.348,245.464,275.964
501.664,241.56,37.332
701.5,162.26,217.648
727.852,-17.812,252.784
685.396,2.684,163.236
448.472,71.248,20.74
449.692,160.064,46.848
505.08,60.756,41.968
495.808,50.752,-45.14
526.552,25.376,-35.868
530.944,-29.036,-132.248
541.924,-62.22,-193.492
525.576,-41.968,-233.264
517.524,-163.236,-163.48
665.876,-301.828,-167.14
686.372,-349.896,-272.792
746.396,-382.348,-211.304
820.328,-469.7,-346.968
804.468,-484.34,-364.536
805.2,-529.968,-327.692
1037.732,-695.4,-349.164
1180.716,-866.932,-378.688
1111.176,-794.708,-392.84
1180.472,-820.572,-414.556
1507.92,-962.58,-477.508
1687.016,-1042.368,-632.692
1431.548,-918.172,-611.22
1163.392,-767.38,-479.46
1382.992,-905.24,-389.912
1646.268,-1135.332,-376.736
1473.76,-1063.84,-296.704
1317.112,-961.36,-232.776
1366.156,-960.384,-206.18
1445.456,-991.372,-201.788
1469.368,-989.42,-139.812
1360.056,-997.472,-73.2
1209.264,-928.664,40.016
1273.192,-940.864,43.188
1386.896,-981.124,-13.908
1227.564,-906.704,9.028
1112.152,-833.992,61.0
1174.86,-880.108,41.968
1204.872,-883.28,30.988
1171.444,-790.072,-26.596
1085.312,-715.896,-68.076
1088.972,-717.36,-9.028
1202.676,-791.78,-71.98
1126.792,-752.496,-62.708
986.98,-683.688,-16.592
898.164,-574.864,-91.5
735.66,-469.944,-58.804
566.08,-399.184,-11.224
506.788,-329.156,-4.392
443.348,-259.128,-63.928
273.036,-111.752,-61.244
172.264,-32.94,-36.844
58.804,-30.744,-0.976
-70.76,133.956,80.032
21.228,157.136,54.9
239.608,143.716,-89.06
468.968,182.512,-251.32
508.74,217.16,-255.224
673.684,241.56,-213.256
960.14,183.732,-192.76
1053.592,111.996,-155.184
932.812,138.592,-110.532
873.52,301.34,-138.836
948.428,313.784,-172.02
1074.332,416.264,-243.512
1102.88,691.008,-211.548
1081.896,822.524,-193.736
1063.108,889.868,-154.452
988.2,871.812,-50.264
733.464,878.4,116.388
502.152,795.684,149.816
386.252,764.696,146.4
374.296,809.104,101.016
347.456,919.148,81.496
405.04,1035.536,-11.468
306.952,1057.496,-21.228
140.3,957.212,77.592
12.444,943.06,50.508
-56.364,931.592,-18.544
-84.912,889.136,-36.112
-23.424,878.888,5.612
-47.336,930.128,2.928
-121.512,925.492,-17.812
-171.532,952.82,-50.752
-178.852,1012.112,-33.916
-128.1,966.484,-48.312
-123.708,971.12,-20.74
-126.636,1004.06,-5.368
-150.06,905.728,4.88
-162.504,899.14,9.76
-145.18,993.568,-18.3
-158.356,1036.512,-30.256
-189.344,962.336,-33.916
-235.704,911.584,-32.452
-178.608,939.644,-36.112
-163.724,1041.636,-23.668
-178.364,1009.428,-55.876
-191.296,977.708,-48.312
-178.364,1005.524,-25.376
-200.568,985.028,-26.352
-217.892,926.712,-43.676
-203.496,933.544,-30.988
-164.212,960.872,-20.496
-158.844,980.148,5.124
-167.872,977.952,12.444
-189.832,941.352,-0.976
-201.056,945.012,-14.64
-191.296,950.38,-38.308
-170.068,975.268,-34.404
-208.376,967.216,-32.208
-218.624,950.136,-44.896
-222.04,928.664,-30.5
-207.888,899.628,-21.472
-171.288,953.552,-12.2
-196.908,1000.4,-32.696
-204.716,1010.892,-85.156
-195.444,1007.72,-46.36
-216.184,939.4,-33.672
-216.916,924.516,-39.04
-225.7,961.36,-36.112
-217.16,984.052,-50.752
-190.564,1002.596,-42.944
-186.172,970.144,-26.596
-167.14,985.516,-12.2
-184.22,992.348,-22.204
-237.9,928.176,-47.336
-235.216,930.86,-53.68
