acc_x[mg],acc_y[mg],acc_z[mg]
-79.544,997.472,-34.648
-113.216,991.372,-18.544
-146.4,947.94,35.38
-132.98,918.416,93.94
-100.04,930.86,63.684
-46.116,944.036,-2.196
-57.828,955.26,10.004
-69.052,955.016,34.16
-118.584,936.96,71.98
-121.512,966.24,30.256
-130.296,1019.432,-57.828
-107.848,1032.852,-121.024
-166.408,1041.88,-68.808
-188.612,950.38,22.936
-139.812,1014.308,-19.764
-184.464,1043.588,-24.888
-196.664,1055.544,6.1
-148.596,1047.248,-20.008
-215.452,1061.644,-68.076
-279.136,1049.444,-24.4
-162.992,1019.432,17.08
-93.94,977.464,41.724
-168.604,974.78,63.196
-256.444,940.62,53.192
-293.776,902.068,57.34
-257.908,910.364,-30.744
-241.804,976.976,-145.424
-335.5,989.42,-123.952
-320.86,964.044,-77.104
-225.944,902.312,-7.32
-175.68,921.1,-19.276
-223.748,1028.46,-103.212
-167.872,1052.86,-146.4
-194.956,1015.284,-43.188
-153.476,975.756,11.468
-195.688,980.148,-4.148
-199.348,977.464,-18.544
-203.74,930.86,-16.592
-270.108,950.868,-51.484
-304.512,1028.216,-92.72
-249.856,1026.508,-86.132
-205.692,968.68,-27.816
-117.364,944.524,-9.516
-208.864,942.084,61.976
-228.384,975.756,39.04
-203.984,971.364,-25.376
-210.084,977.952,-51.484
-246.684,968.68,-59.78
-230.58,938.912,-111.508
-257.42,976.976,-110.776
-301.584,993.08,-59.048
-254.004,967.46,-48.8
-214.964,931.836,-56.852
-235.46,915.732,-18.3
-283.528,939.644,-14.884
-299.632,966.728,-74.908
-263.032,990.152,-138.348
-221.796,987.468,-120.292
-201.788,954.284,-62.464
-127.368,947.696,-93.452
-137.128,941.596,-66.124
-175.192,917.44,-12.444
-150.304,853.512,32.94
20.496,850.34,-48.556
-32.208,854.488,21.472
-110.532,874.496,47.824
-101.748,868.64,32.94
-100.284,878.888,7.564
-114.436,915.732,-65.392
-156.16,926.712,-80.52
-233.02,923.296,-37.576
-236.924,934.764,-43.676
-245.952,928.176,-26.108
-232.532,943.06,-51.972
-233.02,958.432,-75.152
-236.68,950.38,-52.704
-216.916,945.5,-57.584
-261.568,929.64,-6.832
-225.456,933.788,-21.472
-208.376,932.568,-29.036
-221.064,943.304,-17.812
-235.216,953.796,-19.52
-213.988,947.696,4.88
-213.744,949.404,30.256
-206.18,954.04,29.28
-196.176,955.504,15.372
-218.868,963.8,20.252
-231.8,983.076,44.652
-226.188,1008.208,22.936
-208.132,1044.076,-44.408
-244.0,1041.636,-30.744
-292.312,982.1,46.116
-241.804,977.708,25.376
-84.424,1009.428,-91.988
-153.232,970.876,-93.94
-287.432,995.032,-8.296
-195.688,1134.6,-113.704
-78.324,1016.26,-216.672
-81.496,809.592,-113.948
265.716,894.992,-50.996
415.776,510.936,-203.984
504.104,96.624,211.792
831.796,249.856,461.404
1321.748,315.98,-59.048
1539.396,463.112,-505.324
1396.9,449.204,-298.9
1367.864,580.232,-96.38
1228.052,508.496,-170.556
1116.056,397.232,2.684
997.96,356.484,149.572
979.904,295.484,166.164
947.94,251.32,151.524
913.292,257.42,138.104
796.416,245.22,189.1
801.784,219.844,172.752
754.692,212.28,145.424
714.432,184.708,162.748
684.42,166.164,134.932
588.772,209.596,141.276
547.048,199.104,154.208
538.02,188.612,138.592
584.624,154.452,84.424
474.824,69.784,70.516
330.864,81.252,104.432
142.252,68.808,253.76
285.968,6.832,265.228
343.308,118.584,90.524
244.732,95.404,-74.42
267.668,-48.312,45.384
576.328,-203.008,3.904
524.356,-209.84,-137.128
240.584,-203.008,-59.78
339.648,-373.076,4.636
885.72,-545.584,-260.104
1220.0,-476.288,-712.236
1213.9,-511.424,-672.464
1263.92,-704.672,-408.212
1473.272,-806.42,-475.556
1606.496,-819.84,-540.216
1509.14,-862.54,-368.684
1526.708,-975.024,-92.476
1901.248,-1103.612,-205.692
1999.336,-1046.028,-367.22
1703.364,-882.06,-344.284
1708.976,-978.684,-81.984
1864.16,-1069.452,-5.368
1848.3,-1115.08,77.592
1606.252,-1076.772,182.756
1427.888,-1000.644,296.216
1482.544,-948.184,302.072
1573.556,-957.456,310.612
1531.588,-946.232,351.848
1440.576,-911.096,406.748
1480.836,-896.456,467.26
1566.724,-867.42,459.208
1555.012,-861.076,427.488
1464.0,-863.028,538.264
1410.564,-866.932,570.96
1319.308,-850.584,542.168
1070.428,-812.276,546.316
910.12,-734.44,541.436
643.916,-561.932,421.388
361.608,-500.2,428.708
123.952,-401.136,366.488
-82.228,-125.904,59.78
-194.468,91.5,-177.876
-124.196,191.052,-283.772
-9.028,222.284,-359.168
103.456,188.124,-349.896
249.612,185.928,-363.56
419.924,206.424,-410.408
525.576,210.816,-374.54
701.744,162.748,-325.496
853.756,126.148,-265.96
1022.36,109.556,-166.896
1102.148,58.56,-81.74
942.328,38.064,-97.844
997.228,88.328,-15.128
1227.808,92.72,10.98
1335.412,91.988,-24.156
1135.088,-33.916,-40.26
1003.572,364.78,-1.952
830.088,429.928,8.052
694.912,541.68,175.436
669.048,641.232,136.64
607.56,595.36,167.872
734.684,754.936,120.78
802.516,704.184,-33.184
580.964,710.528,49.288
558.516,848.144,32.208
582.428,819.352,-38.308
511.18,832.528,-26.596
350.14,849.12,28.304
320.86,1004.792,-101.26
203.496,859.124,-183.0
260.836,871.568,-148.352
25.864,1000.156,23.912
-92.476,1051.64,17.568
1.708,1127.768,-149.572
-177.388,1113.128,-117.852
-196.176,990.64,-69.784
-42.212,968.436,-41.236
-86.864,939.644,7.076
-153.476,957.456,1.22
-134.2,977.464,-64.172
-120.78,974.048,-77.836
-200.08,999.424,-84.18
-157.624,1033.096,-170.556
-132.248,1002.352,-192.272
-120.536,990.152,-126.148
-134.2,977.708,-73.688
-122.0,965.752,-71.248
-97.112,959.164,-79.3
-113.704,976.244,-73.444
-145.18,986.004,-116.876
-144.448,972.096,-120.048
-118.096,960.628,-87.108
-88.084,966.972,-66.368
-60.512,990.396,-108.336
-86.864,978.928,-98.82
-84.18,978.44,-69.296
-80.764,968.192,-47.092
-93.208,988.932,-47.58
-60.024,980.392,-78.812
-31.476,970.876,-77.836
-60.268,986.736,-72.712
-105.896,993.568,-64.416
-122.244,975.512,-46.116
-103.212,966.728,-40.016
-78.568,965.752,-59.292
-49.288,977.952,-88.816
-61.0,989.42,-82.96
-99.796,999.668,-60.512
-72.224,998.448,-64.66
-70.516,995.764,-59.536
-64.904,986.736,-56.12
-44.896,988.932,-67.832
-60.512,979.416,-64.66
-55.632,982.344,-70.272
-50.752,981.124,-59.78
-57.584,985.272,-54.656
-87.596,1000.888,-63.928
-95.16,977.952,-61.488
-88.328,972.096,-69.54
-110.044,969.412,-49.044
-92.476,964.776,-43.92
-52.216,975.512,-57.584
-51.972,992.592,-84.668
-81.252,1000.156,-80.276
-98.576,998.204,-77.836
-97.112,978.196,-62.464
-69.784,967.948,-59.292
-50.752,975.512,-67.344
-69.54,986.98,-64.416
-65.88,977.22,-50.02
-75.152,980.392,-49.776
-64.416,985.028,-81.74
-57.828,982.588,-80.276
-68.564,976.0,-50.264
-61.0,981.856,-49.776
-73.2,970.876,-36.6
-56.364,970.632,-23.424
-61.0,966.972,-10.004
-75.884,978.196,-20.008
-63.196,998.204,-38.552
-38.796,996.496,-50.752
-31.964,991.372,-33.916
-26.596,999.424,-29.036
-58.804,989.176,-2.684
-46.116,995.764,-18.788
-58.56,990.396,-31.72
-54.656,996.252,-41.48
-56.852,978.684,-13.908
-33.184,976.732,6.588
-30.988,977.952,27.816
-49.044,992.836,33.184
-35.868,1006.012,-1.464
-35.136,983.076,9.516
-38.796,982.1,35.624
-45.14,989.42,46.36
-14.396,982.832,22.692
-19.764,991.372,10.736
-43.432,998.936,7.564
-39.528,1002.108,-7.808
-42.456,991.128,-1.952
-47.336,992.348,-1.22
-59.292,1003.572,-0.244
-11.468,1023.092,-29.28
-12.932,1011.868,-22.204
-30.744,1007.964,0.976
-53.436,1004.304,21.472
-43.92,1009.428,-3.904
-23.424,1008.452,-34.648
-10.98,1009.916,-28.548
-7.32,1006.5,-10.004
4.636,1014.552,-25.864
-15.128,1005.768,-28.792
-42.456,995.032,-25.376
-49.288,983.076,-26.596
-29.28,991.372,-35.868
-26.596,979.416,-29.768
-39.284,968.924,-15.372
-63.928,975.268,-2.928
-60.024,990.64,-15.616
-35.38,1007.964,-47.336
-21.228,1009.672,-65.392
-23.424,1010.16,-59.536
-27.328,993.08,-47.092
-22.204,986.004,-43.676
-27.572,970.632,-32.696
-40.26,948.672,-34.404
-64.904,933.3,-45.14
-94.428,928.664,-62.464
-128.344,953.064,-86.864
-106.872,1005.28,-145.668
-86.864,1038.22,-172.508
-69.296,1041.148,-132.248
-19.032,1015.04,-87.352
-29.524,991.86,-66.124
-81.984,988.444,-50.752
-70.516,995.276,-58.804
-31.72,1019.432,-71.98
-24.644,1026.02,-66.368
-19.276,1016.992,-55.144
-41.724,998.936,-41.236
-63.684,992.592,-39.528
-48.312,991.616,-55.144
-39.772,974.048,-67.344
-73.2,965.752,-52.46
-87.352,965.02,-65.636
-82.472,964.044,-80.764
-67.588,965.996,-54.412
-23.424,964.776,-48.556
-29.768,974.292,-58.804
-48.8,979.172,-51.24
-58.316,994.544,-41.968
-35.38,996.74,-64.172
-27.572,987.712,-77.104
-53.436,985.516,-38.552
-50.264,1002.596,-24.156
-12.2,1007.964,-65.636
-20.008,1003.328,-69.052
-31.476,993.324,-47.092
-52.46,978.44,-19.276
-44.164,982.832,-41.724
-66.124,973.072,-57.584
-85.888,984.54,-62.464
-57.584,991.86,-86.376
-48.068,993.08,-81.74
-68.32,987.468,-74.908
-93.208,983.32,-53.436
-73.688,984.052,-61.732
-52.46,990.396,-69.54
-19.764,1010.892,-90.768
-45.872,1003.816,-78.812
-71.492,991.616,-50.02
-53.924,968.436,-33.428
-56.852,961.36,-5.368
-31.476,966.484,-10.736
-12.2,975.756,-24.4
-7.564,980.392,-33.916
-27.084,984.296,-10.736
-32.208,986.736,-11.712
-31.476,979.172,-18.3
-31.476,987.956,-36.356
-31.232,1010.404,-56.852
-42.944,1007.476,-63.928
-41.968,999.18,-46.116
-30.5,983.564,-34.892
-53.192,980.88,-11.224
-56.364,978.928,-30.5
-56.608,966.484,-51.972
-66.856,970.388,-33.672
-50.264,985.76,-30.256
-88.328,985.028,-22.936
-95.648,1016.992,-26.596
-27.328,1031.876,-89.548
-56.364,1014.064,-49.044
-61.0,994.3,-39.284
-121.756,1009.916,-48.312
-84.912,968.192,-127.124
-4.636,1013.332,-101.26
61.976,950.38,-26.352
30.5,818.132,42.944
169.58,708.332,18.544
503.86,659.288,-20.74
827.648,490.44,-166.408
985.028,199.592,-377.224
1128.012,371.368,-256.2
1268.8,474.824,-223.504
1167.54,343.796,-89.792
1067.744,273.768,134.688
1146.8,317.688,145.18
1198.528,207.888,38.064
1210.972,114.436,38.796
1144.848,98.82,62.464
1161.928,81.496,69.052
1126.06,81.252,82.228
1085.8,183.488,98.332
1012.844,96.624,67.344
967.704,64.904,180.56
958.92,82.96,161.04
989.42,120.536,107.116
897.432,101.748,99.064
914.756,85.644,138.592
878.4,54.656,119.56
815.204,71.736,130.54
758.596,61.976,173.24
699.304,65.148,186.66
655.384,93.452,142.496
624.64,66.368,156.648
596.336,60.024,120.292
516.06,28.548,78.08
400.16,26.596,94.428
440.42,44.896,110.532
399.916,46.848,65.88
432.368,44.896,26.108
464.332,-1.22,-68.32
403.088,-64.172,-69.784
370.636,-120.536,5.612
261.812,-129.808,38.796
372.344,-132.492,-120.536
612.684,-116.876,-336.72
709.308,-203.74,-427.976
810.812,-368.44,-347.456
896.944,-451.644,-315.98
1079.944,-545.096,-395.28
1332.484,-698.328,-431.88
1516.46,-844.728,-484.828
1564.772,-904.752,-457.988
1543.788,-897.676,-474.092
1513.532,-931.836,-436.028
1662.86,-1006.5,-349.652
1727.032,-995.276,-385.032
1659.932,-920.856,-392.84
1674.084,-884.744,-339.892
1770.464,-951.112,-286.7
1813.164,-1010.404,-203.252
1694.58,-1004.304,-123.952
1589.904,-960.14,-12.2
1525.976,-965.508,50.264
1587.464,-960.628,86.864
1669.204,-1001.132,130.296
1698.972,-1047.248,220.82
1590.392,-1045.54,248.88
1457.9,-1000.644,310.612
1404.952,-980.636,279.38
1297.836,-944.768,278.648
1163.148,-877.668,227.896
961.848,-782.752,184.708
697.108,-652.456,167.14
500.688,-508.74,122.732
288.652,-401.868,86.132
42.944,-258.152,76.128
-14.396,-107.604,44.896
-55.632,-0.488,31.72
-10.98,64.66,10.736
76.128,115.656,-53.924
178.852,166.896,-100.284
334.768,193.98,-125.172
463.356,187.636,-140.788
642.94,151.28,-89.548
912.56,126.148,-103.212
1081.164,-57.096,-201.544
1054.568,225.212,-50.996
928.908,93.452,-44.164
1054.08,99.308,6.344
1170.712,125.904,33.184
1107.76,147.62,77.836
964.044,187.148,187.636
992.348,267.424,194.712
1032.608,337.452,124.928
946.476,349.408,96.624
915.244,384.788,102.968
1013.088,489.464,44.896
965.02,492.148,117.364
874.252,529.724,264.008
857.66,569.252,194.956
892.552,622.2,16.592
892.552,674.904,-22.448
790.56,697.108,71.492
744.2,724.924,93.208
735.904,731.024,47.092
783.728,721.996,9.76
741.76,708.088,38.064
602.192,768.112,116.632
629.276,823.988,51.484
617.076,794.22,-23.424
572.668,837.408,-51.972
416.996,885.72,-22.692
315.492,893.772,-10.248
284.26,835.7,-53.68
323.3,973.072,-129.076
175.68,1032.12,-116.632
52.46,918.904,-98.088
19.52,897.92,-30.256
111.02,920.124,-4.636
170.8,954.772,-40.504
136.152,1025.532,-91.5
8.784,954.284,-41.724
34.892,952.576,-10.736
80.52,942.084,-10.248
61.244,976.0,-8.784
66.368,1006.5,-52.216
-44.896,997.716,-11.712
-66.124,989.176,-7.808
-3.416,994.3,-62.22
-7.564,987.468,-68.564
-61.976,1000.156,-24.644
-76.128,1005.768,-24.156
-112.24,951.844,42.456
-23.668,932.568,14.64
31.964,950.624,-20.74
-1.708,989.908,-26.352
-52.46,988.688,-8.296
-76.372,959.408,24.644
-64.66,960.384,22.204
-5.124,948.428,-18.056
16.104,956.968,-25.132
-40.016,998.692,6.344
-6.1,1021.14,-23.424
-20.984,1011.868,-38.308
-46.848,991.372,-15.372
30.988,985.76,-46.36
-7.076,984.296,-16.104
6.1,984.052,-6.832
-9.516,992.592,-11.712
-30.5,996.74,-10.98
19.52,1007.232,-34.892
-24.156,995.032,4.88
1.464,994.544,-5.856
10.492,983.32,-20.984
0.244,987.712,-6.588
-7.076,974.78,12.444
6.344,963.068,20.74
31.964,980.392,-18.544
24.644,1001.864,-49.532
-10.736,998.692,-34.16
-44.164,985.028,-10.248
-43.92,979.66,-3.416
-9.516,983.32,-16.592
5.124,984.052,-20.252
-0.732,987.468,-10.736
15.128,980.392,-14.884
7.32,992.348,-14.152
-10.492,1005.524,-33.916
-9.76,998.204,-25.62
10.98,985.76,-17.812
8.296,991.372,1.708
24.644,996.252,-22.204
10.492,992.592,-25.62
-13.664,985.76,1.952
-1.952,991.128,-14.64
22.448,997.472,-34.404
25.864,995.52,-27.816
-2.684,986.248,-1.952
-9.76,994.788,-0.976
8.54,1002.84,-20.252
17.08,1013.088,-29.28
30.012,1023.58,-35.868
44.164,1014.064,-40.26
20.252,1008.452,-7.076
22.692,1001.132,-2.684
9.516,986.004,5.612
16.348,985.272,-4.392
38.064,988.688,-30.5
12.2,997.96,-17.812
-2.44,987.468,-0.244
3.904,977.464,2.928
9.272,973.072,-1.708
29.768,977.952,-21.472
14.152,982.588,-11.956
11.224,982.344,-13.176
7.32,988.2,-18.3
-2.196,988.2,-22.448
18.056,983.808,-23.668
18.056,992.836,-14.396
14.396,994.3,0.976
19.52,994.3,-5.856
11.224,988.688,-7.564
7.32,986.492,4.148
12.444,997.228,6.832
29.036,998.936,-9.028
34.648,994.056,1.952
37.576,994.544,1.952
16.592,994.788,3.172
-0.244,990.152,3.416
4.148,985.76,10.98
38.064,998.204,-11.224
25.132,1011.624,-19.032
0.732,998.204,1.22
18.056,982.1,9.028
23.912,984.296,11.956
24.156,988.932,1.952
13.664,979.66,-10.004
7.076,980.636,-4.148
4.636,999.18,-5.368
16.348,1017.968,-7.564
40.992,1008.696,3.416
35.868,989.176,27.572
31.72,977.708,42.944
19.276,981.856,31.72
19.52,980.148,13.908
26.596,979.904,18.3
28.06,977.464,37.332
34.892,974.536,35.868
27.084,991.128,29.524
17.324,987.956,25.376
7.076,995.764,46.36
19.032,996.008,62.464
45.872,996.008,66.612
35.136,996.984,63.684
27.816,990.884,76.128
27.084,989.908,77.348
36.844,983.564,61.976
23.424,979.66,85.156
31.232,989.176,98.576
63.928,1000.4,71.248
67.832,990.64,51.728
41.724,989.908,42.456
11.224,996.496,42.7
3.904,988.2,41.724
28.548,989.908,29.768
33.184,993.568,16.104
11.712,991.86,17.08
10.004,1004.304,-5.856
-18.056,1006.256,-13.176
4.88,997.96,7.808
32.696,987.468,13.176
12.688,997.716,16.104
26.84,1016.748,-17.324
46.116,1026.752,-52.46
42.944,1002.84,-25.132
15.128,976.976,22.692
20.008,982.1,14.396
51.972,999.424,-28.792
42.944,994.788,-18.788
53.924,992.348,17.324
65.88,1016.992,5.612
78.812,1035.292,-28.06
56.608,1031.388,-44.164
29.28,1006.256,-45.384
25.376,986.004,-16.592
53.436,980.148,-28.792
53.436,972.584,-43.188
26.108,955.26,-33.184
4.148,958.188,-34.648
10.492,970.876,-66.368
38.796,959.164,-56.608
37.82,967.948,-61.0
21.716,993.568,-73.2
46.116,996.008,-102.236
41.968,973.072,-109.8
22.204,964.532,-71.98
16.836,972.096,-65.148
13.42,988.2,-99.064
-8.052,1003.084,-116.876
-10.98,1016.992,-120.78
22.204,1018.7,-105.408
37.088,1012.844,-82.472
47.336,1006.5,-60.512
35.868,999.912,-52.704
17.324,1009.428,-61.488
22.936,1002.352,-59.78
31.476,994.056,-28.792
52.948,1009.672,-32.208
41.236,1003.816,-24.644
34.648,1012.356,-6.588
33.916,1030.9,-19.032
-6.832,1024.556,-3.172
-17.812,1054.08,27.816
-27.816,1114.836,67.588
15.616,1099.952,90.768
104.432,1029.68,115.412
217.648,1027.728,73.688
309.636,1040.66,22.692
313.54,1086.288,-71.004
321.836,990.396,-61.976
378.688,884.012,-120.048
422.12,850.828,-160.064
436.516,625.372,-112.484
583.16,569.008,-35.624
614.392,307.44,41.236
750.544,222.528,140.3
1046.028,269.864,77.348
922.564,218.136,123.22
668.072,166.164,268.888
636.352,211.304,259.128
654.652,151.524,179.584
534.604,120.048,172.752
414.8,58.316,214.232
431.392,49.532,206.424
493.368,-5.368,164.456
451.644,-28.06,113.704
380.152,-5.124,13.908
307.196,-67.344,-11.468
377.956,-104.432,-11.224
425.536,-195.444,-56.364
576.572,-248.636,-149.572
771.528,-354.044,-155.428
930.128,-362.096,-323.056
1082.384,-322.08,-491.66
1279.292,-478.728,-314.272
1464.0,-567.544,-344.528
1580.876,-600.24,-459.696
1505.236,-584.868,-435.784
1565.748,-641.72,-322.568
1710.44,-732.0,-397.232
1687.992,-830.332,-303.78
1656.028,-840.824,-298.412
1651.88,-794.952,-306.952
1663.592,-761.28,-321.104
1679.94,-818.864,-221.064
1667.984,-882.792,-120.292
1641.632,-888.404,-91.256
1531.588,-829.112,-45.872
1466.196,-773.724,-0.488
1445.7,-836.676,125.904
1419.592,-910.12,277.184
1380.552,-890.356,308.416
1432.524,-830.82,263.032
1426.18,-812.52,223.992
1345.416,-790.072,242.536
1230.98,-713.7,185.928
1158.268,-679.052,197.152
947.94,-662.216,207.4
651.724,-547.048,175.436
370.392,-376.004,156.16
157.624,-225.944,118.34
-2.196,-104.432,103.7
-129.564,41.724,69.052
-173.24,113.46,57.34
41.968,167.14,-19.032
322.08,215.208,-121.512
471.408,203.496,-100.772
656.848,181.78,-111.508
813.252,123.22,-69.54
798.612,66.612,-36.844
1098.244,109.8,-15.372
1331.508,132.736,-85.888
1350.54,142.74,-70.516
943.548,53.192,-9.516
719.8,175.68,-12.444
854.732,393.572,-73.932
1115.812,466.528,-139.568
1047.492,472.872,-90.524
851.316,513.62,-10.004
757.132,525.332,34.648
834.724,695.644,17.568
854.732,745.664,-71.492
829.356,630.252,-23.18
792.756,646.356,18.544
679.052,721.508,67.344
623.42,768.112,15.128
662.216,771.772,-77.592
714.676,733.708,-111.752
661.728,732.976,-55.632
598.776,829.112,33.184
576.572,798.612,41.968
629.764,817.888,-10.004
541.924,849.852,-50.508
503.616,880.352,-67.1
528.748,906.704,-73.444
526.552,875.472,-81.74
378.2,804.468,-18.544
249.368,930.128,2.44
189.588,908.9,-12.2
164.7,863.272,11.956
196.42,1038.464,-34.648
166.164,973.072,-151.768
40.016,919.88,-99.308
-23.912,1017.968,24.4
62.952,1037.732,-50.996
70.028,989.42,-158.6
-11.712,968.68,-81.496
-24.888,995.52,49.532
-26.352,994.3,35.868
-89.304,975.756,2.684
-74.664,979.416,8.54
36.356,1010.892,-95.892
-61.976,994.544,-99.796
-84.18,982.832,-19.52
10.004,1019.676,-0.976
35.38,1023.092,-36.6
-12.2,1011.868,-34.16
12.2,1014.308,-20.496
30.012,992.836,-14.152
-22.204,996.984,25.132
-1.464,992.348,-15.128
44.408,977.464,-72.712
-25.376,966.484,-5.856
-35.136,969.168,17.324
-11.956,976.976,2.196
35.136,987.468,-32.696
23.424,996.252,-15.616
35.868,999.424,-13.42
25.864,982.832,8.296
1.952,998.936,23.912
-28.06,996.008,5.368
4.636,979.172,2.196
38.552,995.276,-3.416
35.624,989.664,-6.1
32.208,990.152,-1.952
16.104,969.412,22.448
4.148,1005.28,19.764
14.396,1025.532,-26.108
63.928,1009.428,-49.776
28.304,989.664,12.932
-15.128,975.512,35.624
-6.1,994.788,26.352
20.008,1003.572,-21.228
51.484,1007.72,-40.992
38.308,998.204,-18.3
16.104,986.004,25.62
26.596,971.852,24.4
30.5,975.024,18.056
36.6,986.492,-5.124
30.256,987.712,-17.812
4.148,989.176,6.344
6.1,985.028,0.732
34.892,990.396,-21.716
30.5,989.664,-19.276
31.72,1002.352,-8.052
36.6,991.616,-14.152
9.272,985.76,2.44
5.368,994.3,5.856
49.532,1003.572,-41.236
26.596,985.272,-22.448
24.156,1003.572,5.368
39.528,970.388,-1.22
32.94,977.708,29.036
48.556,1003.328,-0.244
40.26,1007.476,-27.328
46.36,1010.404,-9.028
41.968,995.764,19.52
34.404,988.932,24.4
24.888,994.544,5.856
43.92,1005.28,-29.28
40.016,1003.328,-18.788
42.212,991.372,2.928
28.548,979.416,27.572
32.696,993.324,12.688
33.916,993.324,-18.544
39.284,989.664,-21.96
15.128,983.808,22.448
30.256,989.42,24.4
65.88,989.664,-19.032
48.068,987.224,-4.88
34.892,999.18,20.74
41.236,965.264,3.172
18.056,965.996,49.532
20.496,976.976,37.576
52.704,995.52,-6.344
57.096,987.224,-8.296
29.524,986.248,54.168
42.944,978.196,65.148
54.9,981.368,45.872
65.636,991.372,9.76
56.852,983.32,-3.66
33.184,986.004,46.36
31.476,988.932,46.116
48.312,997.472,52.216
77.348,1015.528,41.724
84.18,1000.4,22.204
48.068,1006.5,62.22
46.604,1009.916,49.532
64.66,1000.156,27.084
62.22,1013.332,46.604
94.428,999.18,14.64
60.756,993.568,23.668
12.2,994.544,43.676
30.744,969.9,27.084
61.488,977.708,41.236
82.96,987.468,42.7
87.84,1006.5,46.116
65.148,1010.404,40.26
51.24,1006.5,42.212
71.736,1003.816,61.488
95.404,1009.184,58.56
87.352,1016.504,57.584
93.94,1020.408,39.772
90.524,1036.756,38.796
82.96,1037.244,40.504
97.112,1002.352,22.448
52.948,996.008,45.872
53.192,1005.768,32.94
70.76,998.204,-4.148
43.432,998.936,9.272
28.792,1004.792,40.992
70.516,1037.0,13.908
105.896,1021.14,-49.776
83.204,996.252,-25.376
39.04,992.592,8.296
57.584,966.728,-38.552
36.356,942.328,-50.264
10.736,945.988,-39.772
56.12,933.056,-91.256
48.8,926.712,-94.916
16.836,945.744,-59.536
49.776,1004.304,-34.404
73.444,1047.004,0.488
81.496,982.832,5.368
146.156,961.36,61.976
17.812,1047.004,128.588
-30.988,1047.248,172.02
239.12,1173.396,-107.116
281.332,970.144,-290.604
159.576,990.64,-68.076
406.992,1101.172,10.492
461.648,985.028,-25.376
371.856,821.06,161.772
395.524,822.524,202.764
604.144,646.844,-4.636
723.216,463.112,-107.604
587.064,251.076,204.716
562.664,255.956,451.644
689.544,-9.76,378.444
676.124,-67.1,466.04
667.828,-114.436,451.4
757.376,-127.612,369.172
759.816,-26.596,234.972
684.664,36.844,117.364
565.104,29.28,63.684
439.688,4.392,109.068
316.468,-53.436,132.004
294.264,-103.212,98.088
284.26,-130.54,-39.284
321.592,-128.344,-152.744
402.112,-174.948,-184.708
593.164,-199.836,-253.516
885.964,-238.144,-512.888
1137.528,-257.176,-827.16
1210.24,-281.576,-692.716
1302.472,-366.488,-614.392
1391.776,-467.504,-623.176
1491.572,-545.34,-603.9
1540.86,-580.72,-620.004
1632.36,-652.456,-603.412
1739.72,-752.496,-524.356
1762.656,-819.352,-488.732
1739.964,-795.684,-439.688
1730.692,-741.028,-526.308
1702.876,-750.544,-506.056
1641.632,-756.644,-447.008
1537.444,-827.16,-315.98
1554.036,-855.22,-217.648
1509.628,-883.036,-154.696
1489.132,-875.96,-24.156
1554.036,-901.092,49.044
1530.612,-906.216,80.52
1506.212,-941.84,206.668
1407.88,-921.344,265.228
1234.884,-846.68,238.632
1057.74,-797.88,279.624
698.816,-700.524,299.876
435.296,-525.332,250.832
331.352,-358.924,178.608
226.676,-142.008,26.352
51.24,10.248,-40.992
78.08,84.668,-64.904
200.568,168.848,-176.168
232.532,241.072,-223.504
283.772,269.376,-230.092
460.428,263.52,-208.864
512.156,230.336,-165.676
625.616,243.024,-165.432
754.448,228.628,-202.276
970.876,186.416,-177.388
1090.192,195.2,-157.624
1098.488,117.608,-53.436
984.052,60.756,25.864
915.732,121.268,23.668
1049.444,223.016,42.7
1195.356,300.608,60.512
1218.536,292.556,38.796
1088.728,284.016,25.864
995.764,330.864,-20.74
944.524,341.6,-117.364
891.088,316.468,-38.308
911.828,446.032,9.028
1033.34,576.084,-76.86
999.912,449.204,-138.836
813.252,522.16,-14.396
794.708,557.54,-50.264
845.46,535.58,-75.396
912.804,594.628,-111.508
914.268,632.936,-160.064
907.192,621.468,-134.688
783.972,603.656,-89.06
698.816,679.296,-29.524
644.404,723.948,-6.344
732.0,788.12,-111.508
773.236,735.66,-139.324
750.3,736.392,-119.804
679.052,725.656,-112.972
562.176,762.744,-84.18
382.592,815.204,-36.844
400.16,832.528,-66.124
555.344,867.176,-150.548
552.904,901.336,-141.032
434.32,877.18,-67.344
310.368,872.056,33.916
211.792,870.836,72.468
231.8,915.0,27.084
362.584,962.336,-74.176
339.648,940.864,-57.34
262.3,955.26,-12.2
218.868,947.696,20.496
186.66,938.424,56.608
213.012,994.3,61.732
268.4,1005.28,-54.412
199.592,958.188,-14.64
203.74,992.836,63.196
223.748,974.048,50.752
216.184,972.34,12.932
204.472,988.688,-8.54
135.664,967.46,20.252
122.976,974.78,37.576
97.112,997.716,23.18
91.5,999.912,-18.056
108.336,982.588,-9.76
116.144,1019.92,-39.04
49.044,1004.548,-0.976
59.78,1005.036,-7.564
65.392,1003.816,-11.956
73.688,985.272,-51.484
81.74,992.348,-58.56
29.036,988.932,-35.38
36.844,980.148,-52.704
2.44,992.592,-40.504
20.008,988.444,-33.428
31.476,985.76,-26.352
30.988,1012.112,-46.848
34.404,976.488,-34.404
32.208,988.688,-8.784
58.316,1000.644,-66.856
5.368,979.416,-45.872
19.032,980.636,-25.132
15.128,978.196,-23.18
-1.22,982.1,-29.036
28.304,987.956,-42.7
47.58,1001.132,-38.796
62.464,1001.62,-61.0
15.86,979.416,-33.672
-0.732,973.072,-8.784
10.004,988.444,-36.356
54.656,1013.82,-64.904
58.804,1008.452,-57.584
32.208,993.568,-22.204
36.112,983.32,-12.444
19.276,986.98,-10.98
37.82,1005.524,-52.46
41.724,1004.06,-44.652
39.284,1002.352,-27.572
55.144,985.272,-21.472
52.948,981.368,-8.784
37.576,975.024,-8.296
50.752,990.64,-28.304
54.168,1001.864,-40.748
44.652,991.616,-23.912
31.476,985.76,-11.224
41.236,987.956,-32.452
31.476,993.568,-12.2
60.268,995.032,-16.104
78.08,996.496,-23.18
45.872,976.244,12.2
40.748,985.516,20.008
62.708,984.296,-6.588
70.272,999.424,-7.32
54.656,999.424,14.396
47.58,993.812,17.568
80.276,1002.108,5.612
71.98,1008.452,16.104
48.556,1013.82,34.16
66.368,999.424,44.896
88.816,1004.792,50.752
91.744,1002.84,22.448
59.048,995.032,64.172
71.248,996.984,41.48
81.984,994.3,47.58
60.756,984.54,80.032
71.98,991.372,64.904
75.64,993.568,25.62
64.66,995.764,36.6
64.172,987.956,46.36
48.312,969.9,67.1
62.708,980.636,59.292
72.468,988.688,16.104
86.62,1017.236,19.764
92.72,1033.096,3.172
79.788,1019.92,16.592
81.984,1004.792,42.944
73.688,1016.504,20.496
81.496,1014.064,-18.056
73.444,1016.26,-9.76
55.388,1023.092,0.488
61.488,995.276,-9.028
56.608,986.98,30.744
69.296,993.812,4.392
71.248,1004.06,-29.524
79.544,987.468,-30.5
38.796,957.212,5.856
-1.952,960.384,6.832
23.668,973.072,-34.16
72.956,1023.336,-62.22
71.248,1028.948,-50.02
59.78,1026.264,-11.468
52.948,1007.964,6.588
50.996,984.296,-6.344
47.336,969.412,-19.032
58.804,976.488,-41.968
45.872,968.68,-28.304
29.28,951.356,6.832
46.116,938.424,-4.392
54.656,939.888,-43.676
43.676,944.524,-60.756
16.104,972.096,-52.948
31.476,1001.864,-54.9
68.076,1013.82,-69.54
68.32,1018.7,-78.08
20.984,1018.212,-94.672
15.128,987.224,-113.216
14.64,972.096,-126.392
-24.644,957.212,-102.724
-9.516,965.752,-117.608
28.792,996.74,-130.052
27.328,1000.644,-106.872
21.228,999.912,-99.064
0.732,1005.768,-65.636
-4.636,1038.952,-36.844
33.428,1063.596,-45.872
21.472,1085.312,-2.684
51.972,1110.932,81.74
159.088,1188.036,6.1
189.832,1194.624,50.996
211.304,1082.384,86.132
370.392,1161.928,199.836
311.588,935.496,-55.144
369.416,683.688,-282.064
446.276,863.272,-18.544
498.492,758.352,-55.144
559.98,427.488,0.976
624.884,289.628,254.248
661.972,269.62,326.228
804.712,264.984,128.344
731.756,267.668,105.408
631.716,231.312,186.172
468.48,141.52,221.552
453.84,140.544,254.492
364.536,80.764,225.7
360.144,79.544,184.22
419.192,52.948,63.928
430.416,31.72,21.96
400.892,-13.664,31.964
394.548,-80.764,15.86
379.176,-100.528,-68.32
504.104,-120.78,-222.772
655.628,-128.344,-278.404
842.532,-232.532,-363.56
984.784,-312.564,-463.844
1068.476,-340.868,-584.868
1000.156,-398.452,-485.804
991.616,-471.164,-343.308
1204.628,-554.612,-392.596
1475.712,-586.332,-501.908
1625.04,-687.592,-620.98
1584.78,-680.516,-531.432
1528.416,-825.452,-363.072
1690.92,-822.768,-313.784
1805.6,-814.96,-447.984
1806.332,-911.584,-465.552
1686.284,-876.448,-390.888
1621.624,-891.332,-332.084
1589.904,-927.2,-245.708
1517.924,-890.844,-215.208
1546.96,-870.104,-214.232
1491.816,-913.292,-114.192
1426.424,-932.812,63.44
1445.212,-914.512,96.136
1456.68,-920.368,93.452
1421.056,-911.096,177.876
1321.26,-858.148,194.468
1281.488,-801.296,176.9
1265.628,-774.7,169.58
1126.548,-724.436,169.58
969.9,-634.156,142.74
784.704,-537.288,110.776
706.136,-447.496,83.204
664.9,-338.672,32.208
462.136,-232.044,1.464
264.496,-126.88,20.74
214.476,-54.656,0.732
200.812,47.336,-40.748
161.528,122.976,-46.848
195.444,156.16,-37.332
204.716,191.54,-61.732
383.08,208.132,-101.748
654.164,238.632,-213.5
735.416,211.792,-242.78
709.552,239.12,-191.296
796.904,200.812,-113.46
935.252,249.368,-69.54
1055.788,263.764,-45.628
1046.516,385.032,-114.68
952.332,379.176,-223.748
924.76,388.936,-237.9
950.624,444.08,-142.008
956.724,463.844,-2.928
916.952,528.016,2.44
980.88,597.068,-152.256
897.92,473.848,-157.136
862.052,625.86,-143.472
780.8,675.636,-119.072
730.048,642.94,-10.736
673.928,748.592,22.204
729.316,747.86,-61.0
640.5,751.52,-93.696
549.488,776.896,-55.144
524.844,835.456,0.488
582.672,839.116,-12.444
593.652,843.752,-39.772
546.316,911.096,-47.58
480.924,942.084,-93.208
453.596,916.22,-100.772
419.192,886.452,-43.432
358.436,889.868,-10.98
369.66,979.172,-42.212
340.136,936.472,-75.64
275.72,911.584,-41.48
243.512,978.928,-93.452
243.024,948.184,-133.224
184.708,930.616,-66.368
153.232,938.18,-32.94
183.488,917.44,-89.792
187.392,960.872,-102.236
157.624,1008.696,-73.2
139.08,973.316,-145.912
139.324,1020.896,-178.12
110.532,1021.872,-131.76
110.288,1016.504,-83.936
129.076,1072.38,-126.392
126.148,1015.04,-165.432
-2.928,969.168,-74.908
-45.628,1012.844,-43.432
13.42,944.768,-102.236
-20.984,936.716,-42.944
-30.744,969.656,-42.7
54.168,990.396,-105.408
6.832,989.908,-82.96
-44.408,978.44,-78.568
-74.664,945.256,-67.344
-70.516,957.456,-77.592
21.716,1002.84,-153.232
-13.664,1015.04,-94.428
-0.488,1008.696,-94.916
-27.816,970.144,-83.448
-34.892,976.0,-63.44
-40.992,972.34,-38.308
-18.3,1002.596,-86.132
-7.808,1005.28,-111.752
0.0,981.856,-74.908
-17.568,975.756,-24.644
-23.668,981.368,-30.012
-34.404,964.288,-30.744
-23.912,966.24,-40.992
-23.424,985.76,-55.144
-25.62,996.008,-56.364
-0.976,1008.696,-72.224
-12.2,1013.576,-64.66
-0.976,1015.528,-67.344
2.684,1011.624,-69.296
-22.692,984.296,-36.112
-5.124,991.616,-39.04
-6.1,1000.888,-28.304
4.636,992.836,-49.288
-26.596,996.008,-43.188
-18.3,989.176,-36.356
5.368,1006.5,-32.208
32.94,1010.404,-52.948
-10.98,996.984,-22.936
-5.368,990.152,-31.476
12.2,978.44,-32.208
2.684,983.32,-14.396
-7.32,970.876,-10.248
-7.564,977.22,-11.712
2.684,980.88,-25.864
1.22,963.068,-18.788
-11.956,965.996,9.272
4.148,981.856,-7.564
9.76,999.668,-26.352
3.66,983.808,-16.104
-3.416,995.764,-6.832
12.932,995.032,-19.52
21.716,991.616,-13.908
16.836,1000.4,-4.148
14.396,990.152,-9.028
8.784,981.856,21.228
3.66,981.368,40.748
31.964,994.3,14.396
35.868,1012.6,10.736
38.796,999.424,17.568
37.332,996.74,30.744
20.008,977.22,41.724
12.932,993.08,40.992
28.548,1004.548,29.768
14.396,986.492,56.364
13.42,960.872,78.568
34.892,954.04,78.568
27.084,967.704,83.936
38.796,986.736,65.636
54.168,990.396,72.224
36.356,990.884,97.356
47.58,1006.988,54.656
51.24,1024.556,27.572
53.436,1009.916,52.948
31.232,976.976,105.896
30.256,997.96,111.264
73.688,1047.492,38.552
55.876,1048.956,33.428
35.624,1010.892,86.376
48.312,994.788,104.432
57.828,966.972,92.72
54.9,984.54,86.62
20.496,981.368,52.216
55.388,1000.888,18.788
49.044,996.496,58.316
47.092,980.88,71.004
60.512,969.9,69.784
65.148,999.668,40.504
52.216,1025.532,-3.416
40.992,1026.752,-13.908
29.524,993.08,12.932
40.26,989.908,13.908
48.068,983.808,-28.304
19.032,979.416,2.928
34.404,993.812,-36.6
20.252,984.54,-55.876
-16.104,983.076,-31.232
8.052,999.424,-71.004
-3.172,1008.696,-47.58
29.524,995.276,-34.648
57.34,1011.868,-44.408
8.784,1003.816,-38.552
13.664,998.204,-57.34
6.832,997.228,-68.32
21.472,1012.844,-63.684
37.332,1003.816,-59.048
32.94,976.976,-1.22
46.848,978.196,12.444
29.28,972.096,-25.376
7.32,986.98,-35.624
-10.492,1010.648,-43.676
12.688,989.176,-41.236
91.988,1018.7,-58.56
117.852,1032.608,-40.504
74.176,1056.764,-7.32
102.236,1007.72,-6.1
155.428,1043.588,0.976
176.656,1058.96,-16.348
146.156,1154.364,13.42
334.28,1060.668,73.688
364.78,978.44,101.504
420.168,893.04,120.292
296.46,849.12,-94.672
206.912,731.512,-21.472
455.792,838.628,34.892
701.5,828.38,-35.136
558.516,705.892,92.232
507.032,585.112,283.772
734.196,464.82,301.828
980.88,614.392,231.312
955.992,410.896,9.272
772.992,179.096,64.904
870.592,293.044,320.86
1015.772,234.972,203.74
1109.224,227.408,101.26
1109.224,217.16,107.848
1058.228,194.712,191.54
1050.42,91.744,184.22
853.756,48.556,256.444
724.192,8.052,263.032
679.784,69.296,155.428
711.016,61.732,149.328
637.084,-27.816,185.928
691.008,-37.332,205.692
699.548,-91.256,221.308
611.952,-118.584,142.252
553.148,-85.888,143.96
508.496,-74.176,39.528
398.208,-60.756,-17.08
382.592,-162.26,53.924
386.74,-227.164,160.308
571.936,-195.444,-16.836
615.124,-125.904,-202.764
473.36,-134.932,-189.344
552.904,-181.292,-199.348
650.26,-251.076,-247.66
833.748,-312.32,-315.492
1052.128,-320.616,-402.112
1224.392,-376.004,-467.26
1336.876,-489.708,-447.74
1468.636,-682.712,-405.04
1411.54,-794.708,-289.384
1436.428,-826.672,-249.368
1559.892,-840.58,-252.052
1759.972,-871.324,-308.66
1805.844,-905.24,-342.576
1702.144,-950.136,-237.9
1580.632,-996.74,-75.884
1553.06,-1037.488,-7.808
1529.148,-1037.0,46.604
1494.012,-982.832,61.732
1592.588,-973.316,41.724
1619.184,-997.716,107.604
1503.772,-1008.696,208.62
1444.724,-986.492,289.384
1377.624,-968.68,329.4
1362.252,-966.484,396.744
1369.572,-940.376,388.448
1304.18,-918.66,404.064
1273.924,-862.052,378.2
1193.16,-799.344,304.268
923.784,-721.508,258.64
766.648,-614.88,221.308
674.416,-557.784,163.724
428.952,-459.94,153.232
244.244,-318.176,102.236
119.316,-190.076,4.636
72.224,-69.784,-31.232
-13.908,-1.708,-33.184
70.516,57.584,-14.396
239.608,129.808,-101.016
391.132,141.764,-119.804
624.396,138.104,-145.668
790.56,104.432,-122.488
964.288,82.96,-49.776
1032.12,73.444,-66.856
866.444,64.66,-89.06
1019.432,103.456,-3.416
1033.096,101.26,28.792
946.72,80.276,49.532
892.796,72.224,72.712
999.18,215.208,-83.448
1129.72,315.004,-193.492
997.472,124.684,-81.008
843.752,181.536,140.3
866.2,474.092,-1.22
883.28,557.784,-136.152
991.616,528.992,-92.72
932.568,545.584,-7.564
777.14,580.476,-114.192
791.536,642.696,-122.976
851.316,684.664,-115.168
767.38,663.68,-142.74
744.688,734.44,-149.816
849.364,895.968,-275.72
833.016,859.124,-266.204
649.284,788.12,-86.864
508.008,735.66,10.004
461.892,760.792,86.132
516.792,817.644,-57.584
518.744,900.116,-252.052
343.796,823.012,-166.896
281.82,833.992,-122.244
342.82,913.048,-104.188
268.888,968.436,-76.86
170.312,903.288,-91.012
75.152,964.288,-33.428
86.132,958.432,-56.12
97.356,988.688,-91.256
41.236,983.564,-48.312
77.348,1035.78,-71.004
86.376,1050.176,-178.364
62.464,1050.176,-146.156
39.284,1023.824,-67.588
56.852,1019.432,-45.384
46.116,952.82,-30.744
24.4,982.588,-60.512
37.82,983.076,-118.828
-15.616,940.62,-60.024
-11.956,934.52,-6.1
69.54,1009.184,-77.348
59.78,1011.136,-106.872
32.94,971.364,-77.592
31.72,943.792,-34.404
42.944,958.188,-24.888
8.784,965.508,-10.004
68.564,1016.26,-62.708
75.64,1038.22,-85.4
50.996,1023.58,-38.308
64.172,990.152,-16.348
54.412,971.12,-15.128
31.72,963.068,-19.52
40.992,980.148,-13.908
84.18,1012.356,-17.812
76.128,1020.652,-25.376
34.648,984.052,-10.492
33.672,976.0,-1.708
46.36,983.32,-23.668
58.316,990.884,-33.184
70.028,1008.696,-34.16
62.708,994.056,-51.24
33.184,970.876,-12.444
54.656,983.076,-4.88
58.072,987.468,-37.332
51.24,984.296,-32.94
55.388,983.808,-34.648
43.432,980.636,-41.968
46.604,989.42,-44.408
68.32,1003.572,-58.316
61.976,1004.304,-50.02
42.7,976.0,-23.18
48.556,974.048,-6.588
73.444,1019.432,-33.672
86.132,1018.944,-45.14
62.708,978.44,-13.908
58.316,970.632,8.784
63.44,976.732,5.856
64.66,999.18,-15.616
61.976,996.252,-29.768
82.96,998.204,-23.668
54.412,974.78,6.1
46.36,970.632,8.296
54.168,986.492,-0.244
53.924,986.98,-13.42
65.88,991.372,-20.984
72.712,993.812,-22.692
61.0,976.0,1.22
60.512,975.512,13.42
57.096,974.536,9.272
55.632,975.024,5.612
58.316,993.08,-7.076
70.516,1006.744,-21.228
57.828,995.276,-0.976
73.2,999.424,8.052
71.004,1004.06,14.884
88.572,1018.944,-3.416
71.492,998.692,11.956
60.024,974.048,20.984
67.588,972.34,19.276
71.248,994.056,9.516
75.396,994.788,5.368
74.176,977.464,23.18
84.18,964.288,25.62
71.004,978.196,16.348
56.364,974.048,16.104
68.32,968.924,21.716
101.992,977.22,41.968
112.728,979.904,58.072
85.4,981.124,44.896
59.536,991.372,5.856
63.196,992.348,-8.784
81.496,1008.94,-7.808
77.104,991.128,23.18
70.516,994.3,37.576
91.5,998.692,22.204
103.456,1001.376,41.968
112.24,1020.408,33.916
112.728,1009.184,13.664
102.236,976.0,32.696
96.624,989.42,49.532
112.972,988.2,33.672
115.656,970.632,42.944
102.968,965.752,57.584
103.212,978.928,36.356
110.288,1005.524,8.296
106.628,1005.28,13.908
100.04,1002.108,14.64
81.496,995.032,21.228
103.212,994.788,9.272
122.488,989.908,27.084
119.56,988.688,33.916
114.436,1000.156,17.812
115.168,1014.308,2.928
118.34,1021.628,-18.544
135.42,1015.772,-8.296
149.084,996.496,11.956
142.252,989.908,23.18
134.444,1008.452,-5.612
127.856,1010.648,-44.408
110.044,1004.06,-36.112
102.236,989.908,-29.768
100.04,994.788,-28.06
131.028,1006.012,-33.428
117.608,980.636,-23.18
79.3,943.548,2.44
96.868,959.896,-4.636
96.136,977.22,-16.104
83.692,981.124,-0.732
121.512,991.86,-25.62
144.204,1015.04,-55.144
123.708,982.344,-28.06
105.164,977.952,-18.788
83.936,1007.72,-60.512
114.192,1048.712,-104.676
113.948,1053.592,-109.312
108.092,1037.732,-76.128
122.732,1031.632,-65.88
126.148,1009.428,-67.832
87.84,966.24,-58.56
52.216,937.936,-59.292
66.612,945.988,-85.644
71.004,951.112,-101.992
47.336,925.492,-91.5
36.6,915.0,-87.596
24.644,923.296,-87.84
40.26,950.868,-106.384
51.484,963.068,-83.448
65.636,977.22,-84.18
56.364,986.492,-64.66
94.672,1004.548,-59.78
125.66,1012.112,-54.412
123.708,1020.164,-58.072
74.42,984.052,-32.696
44.652,970.876,3.904
92.72,1011.868,0.488
125.904,1060.424,-22.204
121.024,1062.864,-49.776
118.096,1056.764,-60.512
129.32,1050.908,-48.312
101.016,1026.508,-28.06
75.884,1012.112,4.392
110.288,1016.26,-22.448
152.256,1059.936,-20.252
166.896,1078.968,-25.864
182.756,1048.224,-24.156
238.388,1086.776,19.032
323.788,1130.696,56.608
380.64,1072.136,85.4
344.04,798.612,6.344
429.684,719.8,13.42
608.292,848.632,188.368
460.184,864.004,243.756
240.584,640.744,115.656
228.872,419.924,183.732
520.696,414.556,394.304
615.612,283.284,360.876
767.624,315.492,307.684
810.812,134.688,269.864
854.488,-50.508,162.992
972.096,1.464,208.376
715.408,-93.452,226.676
665.388,-19.032,288.896
574.62,89.548,173.24
457.988,6.344,135.176
498.004,-52.948,52.216
388.936,-100.772,68.808
376.248,-144.448,149.572
415.532,-139.324,33.916
665.876,-103.944,-65.392
848.144,-242.048,-50.508
851.804,-255.956,-119.56
822.524,-259.128,-202.276
736.636,-288.896,-233.752
753.96,-376.004,-235.704
749.08,-446.276,-245.22
912.804,-495.808,-310.368
1110.688,-614.88,-380.396
1218.78,-693.692,-331.352
1269.288,-732.976,-325.496
1315.16,-804.712,-293.288
1526.708,-861.076,-313.54
1519.144,-957.7,-211.548
1458.388,-957.7,-166.164
1647.488,-986.736,-144.936
1819.264,-1031.144,-95.648
1907.592,-963.8,-140.544
1845.616,-922.808,-148.84
1881.972,-1000.4,64.904
1969.324,-1114.836,171.776
1929.308,-1138.992,217.648
1828.78,-1107.516,253.028
1821.46,-1077.748,257.176
1826.34,-1107.76,343.796
1691.164,-1152.168,400.404
1454.728,-1098.976,400.648
1243.912,-1034.56,332.328
992.348,-945.012,263.276
617.076,-795.928,203.984
153.72,-585.356,140.544
-127.856,-366.0,46.604
-220.82,-250.588,59.292
-213.988,-174.704,83.448
-143.228,-60.024,46.36
-80.52,10.98,-8.54
94.184,61.732,-29.768
348.92,111.264,-81.496
603.168,159.088,-131.028
679.784,144.204,-116.144
741.272,115.412,-56.12
762.744,103.944,-49.776
812.276,131.028,-41.48
975.512,198.372,-59.78
1016.504,222.772,-121.756
931.836,287.188,-111.508
877.18,262.3,-158.6
905.728,255.712,-118.34
915.732,260.836,78.08
857.66,286.7,189.588
862.296,409.188,95.16
890.6,480.192,-26.84
958.188,506.056,-120.78
972.096,582.428,-132.248
843.264,630.496,-67.588
702.72,747.372,-59.048
768.112,742.492,-159.576
797.392,687.104,-71.004
734.44,765.672,-23.424
701.012,833.26,-42.944
634.644,816.18,-98.576
559.004,876.204,-126.88
539.972,915.244,-168.604
530.212,892.552,-122.244
467.748,907.192,-72.224
401.38,900.848,-62.952
331.596,873.764,-74.42
323.544,907.68,-75.64
358.68,953.552,-106.14
305.732,928.664,-112.484
223.748,957.456,-81.74
209.84,936.716,-96.868
131.272,932.812,-66.124
149.572,961.604,-106.384
216.916,992.836,-119.56
213.988,994.056,-138.348
109.068,979.66,-70.028
-5.612,952.332,-34.892
26.596,975.756,-51.972
27.084,995.52,-57.34
29.524,970.876,-75.884
81.74,1022.848,-102.236
53.192,1003.572,-71.98
-3.416,970.144,-40.26
-61.732,959.408,-2.196
-34.404,980.392,-28.06
-3.66,1000.4,-64.172
41.48,1025.776,-101.992
47.092,1006.5,-56.12
32.94,1003.572,-26.84
4.636,987.468,-26.84
-22.936,965.996,-11.956
-42.212,955.504,-11.712
2.684,995.764,-30.988
31.72,1024.8,-58.072
21.228,987.468,-28.548
19.276,996.496,-0.244
-12.444,976.488,9.516
-17.08,975.512,-8.296
5.856,981.856,-12.2
28.304,977.464,-8.052
25.62,958.92,10.492
11.712,967.216,1.22
2.928,971.364,-20.496
5.612,968.68,-20.496
15.86,1000.4,-7.076
35.624,1022.848,-24.4
48.068,1034.56,-42.456
13.176,999.424,-27.816
7.564,968.924,-4.88
5.612,960.14,13.176
35.624,1006.744,-19.032
37.088,1014.308,-32.94
19.032,1016.504,-20.74
38.552,1030.168,-21.96
23.912,1013.82,-14.64
27.328,1006.012,-19.032
21.472,978.684,-7.808
21.472,978.44,-4.148
32.452,993.568,-20.496
35.624,1004.304,-13.664
41.236,1009.672,-2.196
30.744,982.1,2.928
26.108,968.192,22.204
27.816,975.024,24.644
38.552,995.032,2.44
35.624,991.616,0.732
20.74,972.34,19.276
16.104,970.632,18.788
35.868,982.344,22.204
46.36,991.372,22.692
29.036,981.368,20.252
13.42,976.0,27.816
29.524,987.956,25.62
33.428,979.172,34.648
27.816,971.608,39.04
31.476,983.808,21.716
30.012,956.968,20.496
27.816,958.188,35.38
46.36,959.652,46.604
57.34,973.316,50.752
57.34,979.172,48.556
50.02,989.42,46.848
46.116,992.592,33.428
39.528,991.616,48.8
51.24,996.496,60.268
67.344,1001.62,42.212
71.736,1004.548,35.624
61.976,987.468,41.968
42.944,987.224,49.776
56.12,1018.212,37.576
73.688,1032.12,26.108
80.032,1020.652,34.648
78.812,1004.304,41.724
71.248,999.668,35.868
58.56,987.468,40.504
67.1,980.88,45.384
81.984,976.976,51.484
78.568,973.072,56.12
71.004,978.44,48.8
60.756,1003.328,30.5
84.668,1035.048,0.976
86.132,1022.36,11.468
80.032,998.204,32.94
78.812,977.464,34.404
68.076,969.656,30.744
65.148,976.732,3.172
68.32,990.884,-1.708
64.172,986.004,11.224
60.756,1005.036,17.324
99.308,1013.576,-10.492
109.556,1015.772,-9.516
78.812,990.64,-7.808
68.808,973.804,-7.564
75.396,969.9,0.244
69.784,993.812,3.904
78.568,1022.604,-34.648
83.204,1026.508,-35.868
93.452,987.956,1.708
90.036,964.776,46.36
84.668,986.004,45.384
93.696,1029.68,11.956
126.392,1067.012,-22.692
103.212,1037.976,16.592
104.676,1016.992,20.008
93.94,989.664,22.936
73.932,974.048,5.856
52.948,997.472,-20.008
71.248,1017.48,-47.092
78.324,990.396,-45.628
55.388,991.86,-25.864
76.86,1009.916,-26.108
66.856,1010.892,-2.196
97.112,991.86,-1.708
78.568,995.032,-7.32
81.74,1014.064,-27.572
91.5,990.396,-25.62
61.976,986.248,22.692
54.656,1005.768,30.012
83.448,1000.888,22.936
96.38,957.212,30.988
100.772,1006.5,26.596
122.732,1019.188,27.816
137.86,1028.216,22.448
121.756,1031.876,48.556
102.236,1096.048,128.344
190.32,1006.988,13.42
223.992,865.468,-6.344
273.036,920.368,-27.816
195.932,958.676,112.484
192.272,926.712,140.3
227.164,963.068,114.68
243.268,1012.112,111.508
224.724,976.488,163.236
282.064,919.88,93.452
341.112,849.12,57.096
313.784,877.424,94.428
314.272,939.644,88.572
338.916,956.48,47.58
447.984,898.408,-19.032
413.58,874.252,89.304
457.744,864.492,107.848
426.024,904.508,92.232
439.932,879.376,71.736
478.24,869.128,46.36
576.572,879.62,16.104
534.848,783.728,69.052
431.88,780.068,103.944
593.164,744.444,92.964
638.548,650.748,143.96
493.612,635.376,228.14
523.624,615.856,188.612
416.264,521.672,194.712
429.196,431.88,206.668
389.18,307.928,251.564
552.172,350.384,183.976
579.5,37.088,161.772
549.244,129.076,252.784
475.312,83.204,290.604
578.28,44.652,148.596
681.98,25.132,3.172
464.332,0.976,-18.056
637.816,-28.06,-50.508
712.236,-105.652,-30.988
717.848,-186.66,-64.172
731.268,-152.5,-248.636
815.448,-166.408,-355.996
862.54,-249.856,-253.516
918.904,-346.48,-204.472
1026.752,-484.584,-192.76
1235.128,-578.036,-220.088
1404.952,-672.952,-167.384
1509.14,-758.108,-74.908
1607.96,-837.164,-6.588
1615.524,-893.772,72.712
1703.12,-876.692,60.268
1816.336,-868.884,42.212
1910.764,-882.304,50.264
1888.072,-931.104,158.844
1907.348,-956.724,248.88
1775.344,-974.536,353.8
1530.856,-964.532,467.504
1510.848,-942.572,521.184
1500.844,-944.524,608.048
1475.468,-920.612,652.7
1468.392,-868.64,619.516
1462.78,-836.92,635.132
1450.336,-796.416,614.148
1412.76,-767.624,521.428
1233.42,-736.636,476.532
1038.464,-681.736,408.7
886.696,-636.596,386.008
796.416,-582.428,328.668
539.484,-475.556,191.296
127.368,-332.084,58.072
5.856,-235.948,51.972
-34.892,-147.132,-4.392
-118.34,-43.188,-42.7
-177.144,15.128,-32.696
-71.004,110.532,-128.588
372.588,162.016,-93.452
843.996,167.384,28.304
983.564,72.712,58.804
675.392,183.732,-180.56
547.048,365.512,-413.336
753.716,371.612,-168.36
946.964,382.592,46.604
1009.428,362.096,61.488
878.644,431.636,43.676
821.304,471.164,11.468
703.94,495.32,143.228
821.792,550.708,204.716
1015.528,662.46,99.064
976.0,749.568,-12.932
833.992,754.692,-13.176
831.308,733.708,50.752
758.352,736.392,179.584
598.776,769.088,297.192
634.4,891.82,104.432
499.712,939.4,-95.648
273.768,945.988,-32.452
273.28,917.928,85.156
339.16,915.244,77.836
86.132,969.412,-5.612
58.804,955.504,-61.244
190.32,906.216,-59.536
159.332,955.504,-49.288
5.368,1058.96,-181.048
-51.484,1026.996,-171.044
-77.836,924.516,-19.032
66.856,948.428,-7.808
-50.02,1016.748,-102.724
-133.468,1013.82,-117.12
-107.36,979.172,-88.572
-58.804,963.8,-94.184
-66.124,970.632,-82.228
-110.044,956.968,-65.392
-205.448,964.776,-91.988
-197.64,978.196,-186.172
-160.308,975.512,-204.472
-203.496,992.104,-177.876
-194.712,989.176,-146.4
-158.356,980.392,-124.928
-162.504,979.904,-135.42
-183.732,976.976,-136.64
-102.968,965.264,-128.832
-113.46,974.292,-106.14
-67.588,983.076,-120.536
-114.192,985.516,-100.772
-130.052,968.68,-96.38
-83.692,956.968,-95.648
-71.004,956.968,-60.024
-61.732,976.976,-78.08
-91.012,1000.888,-100.04
-78.812,978.44,-83.204
-112.972,951.356,-26.108
-39.528,960.14,-53.924
-19.032,1008.94,-123.464
-36.356,1002.596,-87.84
-44.652,981.124,-58.804
-65.636,972.584,-33.184
-62.22,980.148,-62.952
-59.536,976.0,-60.268
-69.784,982.344,-53.924
-71.736,995.764,-86.376
-79.056,1003.572,-88.816
-49.044,987.468,-79.3
-75.64,976.732,-55.144
-80.52,978.196,-69.296
-60.268,989.908,-90.036
-58.072,1017.968,-96.624
-67.588,1025.288,-89.548
-64.66,992.592,-67.1
-66.368,979.172,-58.316
-52.704,981.124,-73.444
-56.12,983.564,-84.424
-54.412,987.224,-77.104
-62.708,987.224,-67.1
-47.336,974.292,-69.54
-83.448,981.124,-79.3
-103.456,978.196,-98.088
-81.74,985.028,-106.872
-89.548,982.1,-79.788
-54.412,973.072,-67.588
-30.5,966.972,-50.996
-32.208,966.484,-46.604
-59.78,976.732,-62.22
-57.828,974.048,-58.804
-53.924,974.536,-43.188
-47.336,985.028,-62.464
-41.724,1001.132,-91.5
-59.78,989.664,-67.1
-53.192,983.32,-47.824
-35.868,991.86,-54.656
-35.624,1006.744,-75.152
-63.928,1003.328,-84.668
-56.852,997.96,-81.984
-50.02,997.96,-70.272
-45.872,993.568,-63.44
-45.872,992.836,-63.196
-42.212,996.496,-84.668
-58.804,999.912,-87.352
-49.532,991.128,-71.248
-53.192,983.076,-39.772
-34.16,989.908,-53.192
-42.7,1000.4,-73.932
-53.436,985.516,-62.464
-66.612,984.54,-52.704
-55.876,985.272,-47.336
-59.292,978.684,-30.744
-14.884,977.952,-37.82
-36.844,995.764,-38.552
-61.488,991.372,-21.716
-52.704,988.932,-7.808
-48.556,996.74,-1.708
-41.48,996.252,9.028
-25.864,1007.964,-2.196
-33.428,1013.088,1.22
-29.768,1017.48,14.884
-23.912,1005.768,32.208
-25.62,1007.964,39.528
-15.372,1005.768,34.648
-26.108,997.96,44.896
-30.988,1014.308,29.036
-36.356,1039.196,7.076
-19.52,1036.756,14.152
-24.644,1020.164,35.868
-43.432,1014.796,49.776
-35.624,1017.724,44.896
-0.976,1022.116,22.692
-18.544,1019.92,31.476
-54.9,1010.648,57.096
-29.524,1011.38,46.604
1.464,1010.16,32.94
-28.792,1007.964,35.136
-37.576,1008.208,20.008
-34.16,1005.036,3.416
-53.924,1006.012,-11.712
-67.1,1015.772,-18.788
-60.268,1008.696,-19.52
-30.744,1021.384,-50.508
-60.024,1019.92,-56.12
-84.424,1011.136,-40.992
-87.352,1034.072,-59.292
-73.444,1067.256,-132.736
-55.144,1052.86,-138.104
-64.66,1020.896,-97.6
-71.492,984.296,-91.012
-101.26,944.036,-97.844
-168.848,917.44,-106.14
-190.564,912.56,-99.552
-126.392,936.96,-150.06
-29.524,947.696,-205.692
42.456,957.212,-211.304
22.692,968.68,-176.9
-22.204,1022.604,-143.716
29.036,949.16,-64.66
-7.564,974.048,14.152
98.088,970.876,-157.136
251.32,915.976,-178.608
387.228,901.58,-143.472
550.708,805.688,-206.668
512.4,762.5,-110.776
700.524,665.144,13.908
640.256,644.16,101.748
595.848,602.68,27.816
729.56,626.836,-101.26
980.636,497.76,-79.056
781.288,389.668,255.956
652.944,343.308,360.388
686.616,267.668,345.26
752.74,253.028,196.908
641.476,192.76,293.776
557.052,126.148,358.436
518.012,78.324,335.012
497.028,114.436,236.924
557.052,123.708,155.916
515.084,67.832,211.792
529.968,30.256,233.996
597.556,51.484,117.608
797.636,49.532,22.936
810.568,30.012,25.376
820.572,-30.5,40.748
796.66,-38.796,-62.22
713.944,-46.116,-79.056
781.044,-91.256,-88.328
992.836,-112.728,-184.708
1086.044,-142.252,-210.328
1076.04,-176.168,-219.356
1136.552,-207.888,-169.58
1238.056,-288.408,-135.664
1246.596,-344.772,-120.536
1273.924,-411.872,-62.22
1346.392,-420.656,-76.372
1378.6,-405.528,-104.92
1390.8,-450.668,-46.36
1403.244,-522.892,25.132
1444.236,-588.528,97.844
1490.352,-584.624,88.816
1505.968,-533.628,34.404
1478.64,-511.668,39.284
1505.236,-548.512,120.292
1536.712,-581.452,155.428
1511.824,-589.26,175.192
1467.172,-571.448,211.548
1490.108,-560.956,219.844
1414.468,-591.456,280.6
1381.04,-573.4,288.408
1342.976,-541.924,291.092
1307.352,-549.976,313.296
1307.352,-518.988,320.128
1337.12,-498.736,300.852
1224.88,-501.42,300.364
1184.376,-478.24,310.612
1147.288,-443.592,279.136
1127.524,-404.064,235.948
1071.648,-366.244,216.672
954.284,-324.52,188.124
921.832,-290.36,164.944
841.068,-250.832,154.452
773.236,-200.812,125.416
710.284,-162.748,117.12
709.064,-115.9,92.476
683.688,-66.368,65.392
630.252,-25.132,42.456
582.916,-8.784,30.744
573.888,12.2,36.6
541.192,71.98,2.928
503.372,130.784,-16.348
567.788,164.456,-21.228
633.668,171.532,-34.892
643.428,183.976,21.472
685.152,186.66,43.188
736.88,198.128,30.012
794.22,213.744,41.968
968.436,228.384,81.008
1079.7,224.968,169.092
1040.66,153.964,293.776
622.444,206.424,68.076
947.94,354.776,-6.344
1196.088,337.452,144.692
1161.684,328.668,217.892
1227.564,343.064,202.276
1023.58,437.492,26.596
872.3,492.148,-79.056
773.236,510.692,12.932
863.76,523.624,108.824
941.352,607.56,124.684
916.708,688.812,16.592
860.344,696.132,-90.28
687.104,719.556,-29.524
725.168,681.98,68.808
768.356,694.912,158.6
821.548,749.324,94.184
739.808,812.52,-13.42
572.912,852.292,-32.452
634.156,798.368,-27.572
600.24,782.996,46.848
348.92,801.784,153.72
159.332,880.108,150.304
41.48,966.728,-32.452
-30.744,957.212,-73.2
89.792,948.428,-45.384
78.568,979.172,3.172
-50.508,976.0,75.396
-36.6,960.872,57.584
43.188,944.036,21.472
64.416,942.328,48.556
21.472,957.456,58.316
-20.496,975.024,33.672
-14.152,975.268,23.424
-6.832,990.884,11.712
43.188,994.788,-27.816
42.7,1011.868,-30.744
34.648,1006.5,-2.684
38.796,999.424,4.636
36.112,1013.82,-21.472
0.976,1022.848,-57.828
26.84,1010.404,-61.732
30.744,995.276,-27.816
51.728,991.372,-33.672
35.624,988.2,-18.788
19.52,981.368,-11.468
4.636,971.852,-3.172
51.24,993.568,-43.676
66.124,1007.476,-43.92
62.464,1006.744,-28.304
40.016,1014.308,-32.696
31.964,998.448,-9.516
23.912,983.808,1.952
34.404,979.172,-10.004
40.504,975.512,-12.444
31.72,981.368,-15.86
32.696,1002.352,-41.968
-6.344,986.98,-3.416
29.036,960.872,11.956
19.276,976.488,-7.32
11.224,987.224,-34.404
32.94,989.42,-36.356
31.72,992.348,-20.496
40.992,990.152,-9.76
16.104,981.124,9.028
20.252,976.0,-1.22
29.768,972.584,-12.2
30.012,986.492,-26.352
15.86,996.984,-20.252
14.152,996.984,-20.252
35.868,989.908,-30.5
64.904,991.616,-40.016
33.428,986.736,-1.464
43.92,986.248,-1.464
36.844,995.764,-19.764
25.62,1003.084,-32.696
49.532,1004.304,-38.064
27.816,1001.132,-24.156
21.228,987.468,-7.32
50.264,976.732,-12.444
36.356,984.296,-5.368
33.672,1008.94,-30.012
40.016,1015.284,-47.58
21.228,995.276,-6.832
36.844,994.3,-10.98
50.02,1003.816,-31.964
64.416,1006.012,-29.524
41.968,1006.256,-21.228
13.176,993.812,-9.76
12.2,975.268,10.004
50.264,985.028,-17.812
63.196,996.252,-30.988
35.868,1001.62,-21.716
36.6,992.104,-20.008
8.54,979.66,-2.44
10.248,976.732,-3.904
56.364,993.812,-45.384
52.46,1006.256,-43.432
43.92,996.74,-11.224
36.6,989.42,5.368
28.548,990.396,1.708
40.26,1000.4,-17.324
31.72,998.448,-7.808
38.064,997.716,1.22
52.948,999.668,5.612
62.22,996.496,12.2
40.016,999.18,13.908
16.348,1002.84,5.856
22.448,997.228,10.492
48.312,988.2,14.152
39.04,988.688,23.18
38.796,984.54,25.376
35.38,979.66,34.648
30.744,973.316,36.112
11.468,970.388,32.452
-8.296,965.752,29.036
0.244,958.92,36.844
14.884,970.632,42.456
16.104,986.004,61.976
51.972,1001.62,59.78
60.756,1015.528,60.268
51.972,1018.944,69.296
49.288,1017.48,70.516
61.244,1026.996,49.288
66.612,1029.192,35.136
52.216,1016.748,50.996
54.9,1024.8,49.532
60.512,1030.168,50.02
50.264,1025.044,59.048
49.532,1017.48,64.416
59.048,1005.28,69.54
73.2,1013.332,50.996
61.244,1009.916,55.632
31.476,994.544,68.32
36.112,980.88,53.924
51.972,986.492,34.892
44.896,995.276,31.964
37.82,993.324,33.184
44.896,992.592,26.108
63.928,995.52,15.372
40.748,1002.108,11.468
7.808,1029.192,-48.8
-24.4,1040.172,-101.26
-49.288,1010.892,-62.464
-19.764,984.052,-20.984
32.696,980.88,-18.544
5.612,984.54,-10.98
-18.788,999.668,-43.188
-0.976,1007.72,-90.036
-9.76,994.3,-89.304
-24.156,965.996,-69.54
-50.02,947.208,-55.632
-60.268,939.4,-53.68
-55.388,964.044,-88.816
-72.468,1001.132,-126.88
-113.948,1001.132,-64.904
-71.248,988.2,6.1
-33.184,1045.296,64.416
33.916,1105.808,-10.98
83.204,1186.572,-53.924
231.8,1159.244,-153.964
226.188,1187.792,-100.04
526.552,1193.648,-253.76
768.112,1023.092,-215.452
569.984,917.44,126.636
428.464,691.496,412.36
403.82,459.94,511.668
606.584,360.388,295.484
790.56,315.004,24.888
679.296,292.8,240.584
595.604,197.396,427.244
487.756,45.872,467.992
307.684,94.184,349.652
353.8,138.836,74.42
340.868,147.132,7.076
82.228,62.22,126.148
-108.336,-19.032,119.56
-89.304,-4.392,-4.636
110.288,17.324,-251.808
234.484,25.132,-370.88
297.192,-40.26,-327.204
433.832,-185.684,-371.368
720.044,-235.46,-461.16
969.656,-317.932,-527.528
1055.056,-448.472,-380.64
1262.212,-546.316,-324.764
1417.396,-615.124,-382.592
1569.896,-724.68,-406.016
1737.28,-762.012,-353.312
1799.256,-736.88,-383.08
1773.392,-732.0,-378.688
1755.58,-847.168,-257.42
1854.888,-986.248,-140.3
1856.596,-1055.056,-13.908
1823.656,-1050.908,80.032
2032.764,-1032.364,131.516
2275.788,-991.616,95.648
2243.58,-983.808,149.084
2012.268,-1002.108,266.204
1889.536,-1011.136,371.368
1786.812,-982.344,410.896
1731.18,-973.316,445.544
1730.448,-990.396,482.388
1539.396,-994.788,529.724
1294.908,-945.744,499.468
1072.868,-930.86,505.812
894.016,-867.664,425.78
733.22,-818.132,340.136
397.476,-743.712,310.612
-1.464,-704.916,319.64
-215.94,-518.012,116.632
-219.844,-205.448,-142.008
-435.296,-49.288,-150.548
-386.74,119.56,-98.332
-75.396,330.864,-296.216
107.604,515.816,-425.292
117.364,562.908,-376.98
273.768,549.488,-248.392
566.568,524.356,-215.208
646.112,541.192,-236.924
718.58,599.02,-172.264
772.016,582.672,-65.88
593.652,603.168,-111.02
907.436,688.324,-186.416
954.284,657.092,-77.836
1050.908,625.616,52.216
1106.784,634.4,120.536
731.512,681.004,15.372
613.416,788.364,-117.608
971.364,788.364,-132.736
974.048,743.224,-65.636
874.252,796.416,-22.692
427.0,835.212,-42.456
410.652,854.0,-49.776
613.66,859.124,-97.6
569.008,857.172,-48.8
466.772,839.116,-26.84
239.608,852.536,23.912
307.196,904.264,-80.764
355.508,925.004,-131.516
358.192,920.856,-87.84
277.428,942.328,-53.192
120.292,927.444,-15.372
194.224,927.2,-62.708
252.052,942.572,-79.544
229.36,982.1,-77.348
141.032,988.2,-24.4
95.648,1003.084,-17.812
54.412,988.932,-14.152
71.492,981.612,-37.82
161.284,1016.748,-111.752
120.292,1012.844,-98.088
-10.004,1030.656,-66.856
-50.996,1021.384,-88.084
-85.156,1023.092,-149.572
-82.716,1017.48,-152.012
-10.736,1008.696,-133.712
-33.428,976.488,-67.344
-154.94,949.892,4.392
-138.104,951.356,-43.676
-65.88,953.552,-97.844
-5.368,956.48,-130.54
-118.584,954.284,-98.82
-138.348,987.224,-114.436
-131.76,1016.016,-163.48
-65.392,1014.064,-175.192
-81.008,978.928,-97.356
-110.776,973.56,-54.168
-79.544,982.832,-78.568
-55.144,996.252,-89.06
-67.588,992.104,-80.276
5.856,1013.088,-145.912
18.3,1036.268,-149.572
-50.264,1009.672,-49.288
-62.22,987.712,-2.684
-38.064,986.98,0.0
31.476,1006.988,-66.124
20.984,1017.968,-75.64
-26.352,999.424,-31.476
-21.716,1007.232,-15.616
-35.38,1008.452,-17.812
-10.98,1012.112,-36.356
41.968,980.88,-38.308
19.032,957.7,7.808
-40.748,964.776,10.98
-97.844,988.932,-33.672
-92.232,1018.212,-83.936
-11.956,1035.292,-145.912
51.24,1019.676,-135.42
14.396,978.196,-0.488
-9.028,981.368,49.532
-7.076,986.736,16.104
-25.62,977.952,10.98
1.708,956.48,-1.22
3.66,939.888,32.696
-33.672,944.768,67.344
-75.64,950.136,63.196
-46.116,966.972,27.084
-20.008,977.22,-15.86
-55.388,982.832,-4.88
-66.368,970.876,15.128
-79.544,972.584,-8.296
-43.432,999.424,-71.98
-75.152,989.664,-51.972
-116.876,953.308,6.344
-99.064,938.912,17.324
-35.136,968.192,-38.796
-12.444,978.684,-54.412
-38.552,970.388,-30.256
-40.992,975.512,-38.796
-37.82,986.98,-49.776
-15.372,1003.328,-44.896
6.832,1008.452,-55.388
14.396,990.152,-40.748
6.588,982.344,-14.152
14.152,979.416,5.612
34.16,980.88,-1.22
60.268,993.812,-24.888
63.44,1006.012,-47.824
58.804,1004.304,-28.792
11.468,1000.644,-24.4
30.744,1024.312,-64.66
13.908,1015.04,-63.928
16.104,999.912,-36.844
20.984,993.324,-31.476
19.52,981.612,-25.376
12.688,975.512,-19.764
13.42,966.24,-9.516
23.668,962.824,-9.028
35.38,970.632,-25.132
21.472,976.488,-30.744
8.052,978.44,-16.592
24.4,998.692,-26.84
38.308,989.664,-18.056
47.824,986.004,-6.1
48.068,997.228,-11.712
52.948,1016.504,-26.84
59.536,1006.012,-15.372
55.144,991.616,0.244
74.42,996.008,-28.06
69.052,1029.68,-54.168
53.192,1017.968,-34.16
57.828,1000.888,-7.076
46.848,985.028,-0.244
54.412,984.54,-13.176
60.512,982.344,-25.132
50.264,971.364,-3.66
51.728,968.68,21.472
47.824,970.144,36.844
71.004,985.272,20.74
92.232,1008.452,-19.276
100.04,1016.748,-27.328
79.056,1012.112,-3.416
79.544,1025.288,-20.74
66.856,1028.948,-28.304
61.244,1006.988,-1.708
64.904,992.592,10.248
89.06,990.152,-8.296
78.812,991.128,-14.152
56.608,993.324,-3.172
43.676,993.568,-5.612
88.816,1012.112,-46.116
78.568,1018.944,-43.432
67.1,1015.04,-22.692
71.004,1008.94,-22.936
88.328,1012.112,-29.524
