acc_x[mg],acc_y[mg],acc_z[mg]
-194.712,975.512,-73.932
-202.764,964.532,-68.32
-201.3,962.824,-50.264
-194.468,959.896,-40.748
-184.22,965.508,-45.872
-184.952,959.164,-39.528
-197.396,956.236,-19.764
-196.42,954.284,-11.712
-178.364,970.632,-28.304
-173.484,976.976,-32.696
-177.876,982.588,-21.96
-190.564,987.712,-30.012
-190.564,998.692,-53.436
-198.86,991.372,-54.9
-188.856,986.248,-44.652
-186.416,986.736,-45.384
-194.712,980.148,-39.528
-198.616,970.388,-27.816
-202.276,965.264,-29.768
-182.512,960.628,-49.288
-187.636,956.724,-40.504
-189.1,951.112,-33.184
-202.764,945.5,-44.408
-221.552,953.308,-55.632
-215.94,965.508,-63.684
-185.684,976.488,-66.124
-162.748,976.488,-58.072
-172.02,973.072,-45.14
-191.052,972.096,-32.208
-189.588,969.656,-34.404
-194.224,972.828,-40.26
-193.492,975.268,-58.072
-202.52,973.804,-42.944
-207.888,973.804,-4.636
-183.732,979.416,-6.588
-173.728,988.688,-37.088
-160.552,994.056,-59.536
-159.576,997.228,-33.184
-154.452,991.86,-7.076
-138.348,985.76,-7.32
-131.76,985.028,3.904
-137.616,989.176,7.076
-153.72,996.74,-3.416
-169.336,1001.376,-13.908
-211.548,1005.28,-3.66
-196.42,1006.744,-9.028
-166.652,1016.992,-26.84
-150.304,1009.428,-28.304
-173.24,1013.576,-9.028
-171.044,1034.56,-35.624
-155.428,1039.928,-51.24
-138.348,1033.096,-19.276
-124.684,1032.364,-10.492
-125.172,1032.364,-40.26
-152.744,1024.068,-48.8
-172.752,994.056,-17.568
-209.596,974.048,5.856
-190.564,987.712,-50.02
-148.596,975.024,-53.924
-77.348,949.16,15.128
-105.164,944.036,68.808
-139.08,944.768,36.112
-172.02,969.168,-21.96
-208.132,958.432,-28.548
-186.416,957.7,-60.512
-161.528,934.52,-46.604
-158.844,942.572,-47.092
-200.08,949.892,-41.236
-231.8,945.744,-37.088
-235.948,933.544,-61.732
-219.112,941.352,-87.352
-176.656,955.26,-100.528
-158.6,983.32,-102.968
-173.728,970.144,-89.548
-163.724,985.76,-91.256
-150.304,978.196,-51.24
-171.532,974.292,-19.276
-158.356,986.248,-86.132
-162.016,1003.816,-146.644
-185.196,990.64,-90.28
-168.116,984.784,-41.724
-152.988,979.904,-23.912
-123.22,1004.792,-61.244
-131.76,985.76,-76.616
-146.888,964.532,-66.612
-166.164,1007.232,-96.38
-150.06,1036.512,-138.592
-141.276,1013.576,-101.748
-116.876,958.92,0.244
-98.82,950.38,12.2
-163.724,992.104,-56.608
-170.068,1012.356,-79.788
-71.004,1003.816,-71.004
-3.66,976.976,4.636
14.152,989.176,33.916
-27.572,1006.256,34.892
-84.424,1026.752,25.62
-135.176,1010.404,20.252
-80.764,985.516,-22.448
17.324,971.364,-60.268
-25.376,984.052,-36.844
-68.808,983.564,-5.368
-91.744,964.776,-11.224
-50.264,947.696,-34.648
-64.172,921.588,-22.936
-31.476,914.756,-76.128
-10.248,916.708,-98.576
-20.008,906.216,-45.872
-37.576,910.364,-16.592
-42.7,923.54,-23.18
-43.676,924.272,-22.204
-11.956,939.888,-29.768
-16.836,963.8,-35.136
-40.992,996.252,-69.54
-91.256,1042.612,-53.68
-196.176,1044.076,-3.904
-255.468,1112.396,-6.1
-132.248,1222.44,-97.6
-124.928,1159.244,-54.412
-104.676,1132.892,-16.104
-18.788,1243.18,59.048
86.376,1115.324,42.944
162.26,924.028,-122.488
165.92,838.384,115.656
472.14,675.636,74.176
720.288,765.428,-47.336
803.98,632.936,-149.572
709.552,546.804,99.064
552.416,564.372,335.744
853.756,391.376,267.668
954.772,396.988,118.34
754.692,303.78,70.272
645.136,336.232,154.208
575.108,223.016,100.772
414.8,202.52,47.58
343.308,197.884,51.728
270.596,154.696,117.608
232.776,71.004,310.612
132.492,-54.168,193.492
242.78,-14.152,31.476
410.652,-48.8,-36.844
467.992,-54.168,-64.416
546.316,-82.228,-173.24
566.568,-93.696,-269.376
649.772,-124.928,-321.836
859.124,-164.456,-351.116
930.616,-172.264,-407.236
973.804,-170.312,-425.78
1044.808,-256.932,-397.72
1218.292,-258.152,-543.632
1336.876,-298.9,-589.504
1388.116,-367.464,-437.248
1388.848,-381.86,-413.58
1467.904,-419.68,-355.752
1556.476,-487.512,-254.736
1635.044,-529.724,-161.04
1776.076,-530.944,-154.94
1952.0,-537.288,-173.728
2173.308,-604.388,-144.692
2195.756,-697.108,75.152
2296.04,-760.548,155.184
2240.896,-768.6,275.964
1949.56,-805.932,507.52
1862.696,-827.648,621.712
1969.568,-808.128,544.852
2036.912,-799.1,425.78
1913.204,-766.16,281.576
1623.332,-769.576,315.736
1331.02,-768.6,416.02
1161.44,-718.58,333.304
882.06,-649.528,224.48
450.18,-513.62,178.852
164.212,-415.288,171.532
81.496,-321.104,133.956
49.044,-163.724,-15.128
48.312,-70.76,-115.168
-21.716,-28.304,-114.68
43.188,51.24,-186.66
115.9,100.04,-197.64
203.008,100.04,-129.564
412.36,99.064,-104.92
698.084,104.188,-128.1
909.144,65.392,-77.348
951.6,87.108,-42.944
964.532,101.748,-73.2
852.048,138.836,-161.284
975.756,144.936,-192.516
1111.908,96.38,-165.432
1138.016,300.608,87.84
1132.16,294.996,40.016
1064.816,342.576,-127.612
947.94,463.112,-267.424
931.348,504.592,-262.544
1000.4,592.188,-218.868
951.112,591.456,-156.892
867.42,659.532,-84.912
799.344,674.904,-149.572
704.428,660.508,-109.8
782.02,763.72,-137.616
820.084,685.396,-179.584
677.832,750.3,-73.688
505.324,781.288,-14.396
491.66,812.032,-54.656
634.4,900.848,-219.844
512.888,841.312,-172.508
337.94,798.856,-45.14
377.468,894.748,-65.636
383.812,919.636,-93.94
213.012,926.468,-54.9
99.308,997.228,-36.844
208.132,983.564,-103.212
183.0,976.0,-71.736
85.4,954.04,4.636
29.28,919.148,27.328
66.856,956.48,-9.76
54.412,947.452,-32.208
24.4,976.732,-23.18
-3.416,988.444,-19.764
26.596,993.812,-69.54
39.04,974.292,-101.504
1.708,968.436,-72.956
-26.352,971.608,-49.532
-7.564,990.884,-74.42
-30.744,1000.156,-73.444
28.06,982.1,-84.424
31.476,996.74,-70.272
15.616,1020.164,-106.872
-17.568,1011.38,-104.432
-4.148,1015.772,-111.02
-12.2,985.028,-61.976
104.92,986.248,-101.748
105.652,962.092,-102.968
70.516,960.628,-22.448
32.208,946.964,-0.488
56.608,985.76,-80.032
80.764,964.776,-137.372
46.36,968.924,-97.6
58.316,992.592,-104.188
24.4,980.392,-73.2
40.26,981.368,-71.248
68.32,992.836,-96.136
26.108,972.096,-46.116
34.404,996.008,-94.428
41.236,1004.792,-143.716
10.248,991.372,-106.628
53.68,996.74,-122.732
62.464,981.856,-107.36
65.392,971.364,-76.128
101.992,1011.868,-109.312
73.444,997.716,-95.892
83.936,994.3,-102.48
88.816,994.544,-121.756
89.304,989.908,-136.396
86.132,989.908,-141.276
85.156,980.148,-125.172
63.928,950.868,-81.008
66.124,950.624,-64.904
83.204,961.604,-91.256
96.136,978.928,-126.88
97.6,988.2,-142.984
71.004,983.564,-117.364
68.564,980.88,-111.02
75.884,972.828,-128.832
80.032,975.268,-152.012
82.472,985.516,-170.312
65.636,997.96,-166.164
56.608,993.324,-138.836
73.932,986.248,-128.832
99.064,988.2,-149.816
91.256,997.472,-139.08
88.572,999.18,-125.66
88.572,992.592,-121.756
73.688,985.272,-110.532
81.008,982.832,-94.184
84.668,989.908,-92.476
115.656,998.204,-127.856
113.46,1004.792,-144.936
72.712,1004.792,-109.556
60.756,995.764,-98.576
44.896,992.836,-100.284
65.392,993.812,-96.868
107.604,993.568,-98.332
78.812,1000.644,-74.42
56.364,1001.864,-57.34
59.536,996.74,-45.14
71.492,989.664,-35.38
84.912,995.276,-35.38
102.48,1004.548,-40.016
111.752,1011.624,-46.116
95.16,1007.476,-42.212
78.812,991.372,-34.404
70.76,978.44,-28.792
75.884,980.636,-43.676
81.008,981.856,-53.68
66.856,983.808,-52.704
44.652,1000.156,-60.756
40.992,1004.548,-57.34
84.424,1010.16,-51.484
112.972,1019.432,-81.008
95.892,1028.948,-93.696
63.44,1026.508,-94.428
50.752,999.912,-97.6
59.292,979.66,-70.76
72.224,968.192,-42.456
76.128,971.12,-52.216
49.776,985.272,-71.248
33.184,997.228,-67.832
23.18,1018.212,-97.6
20.008,1021.628,-107.36
30.5,1015.04,-81.984
63.928,1034.316,-97.356
23.912,1044.808,-109.312
11.712,1075.308,-119.56
32.696,1065.06,-135.908
47.824,1037.0,-110.776
35.38,999.18,-69.296
30.256,988.688,-17.08
33.184,988.2,-24.156
26.596,1008.94,-74.908
11.712,997.96,-98.576
5.856,996.496,-82.228
7.808,955.016,-80.032
13.176,939.644,-101.26
-61.488,910.364,-52.216
-45.628,917.196,-63.928
-30.012,897.92,-125.416
-31.476,885.964,-107.116
-48.8,881.816,-52.948
-49.288,883.524,-71.98
-42.944,907.68,-85.644
-57.096,933.544,-67.832
-35.136,972.584,-95.16
-50.02,1001.62,-120.048
-37.088,1011.136,-121.756
-47.336,1005.28,-61.488
-20.252,1008.94,-52.948
3.66,1013.088,-72.712
-43.432,1003.816,-21.228
-33.428,1008.208,-18.3
-13.176,1024.312,-72.956
-9.76,1035.536,-75.64
-18.544,1019.92,-44.652
-5.368,1027.24,-46.116
-9.76,1029.436,-42.944
-29.036,1056.032,-41.236
-48.8,1093.364,-43.432
-11.712,1094.584,-39.528
30.988,1083.848,-13.176
46.848,1053.836,17.324
-20.984,995.032,73.932
40.26,996.74,67.1
50.02,1028.704,45.384
15.372,1005.036,78.324
-88.572,836.188,19.764
102.968,840.824,6.1
369.172,704.428,0.976
457.012,478.484,143.716
461.892,370.88,265.716
617.32,372.344,200.08
791.292,242.292,-22.936
1002.84,405.772,-8.784
899.14,303.048,125.904
887.428,288.408,136.64
830.088,193.004,155.916
637.328,101.992,218.38
509.716,177.632,201.056
434.564,162.016,82.472
375.272,62.464,175.436
335.988,6.832,301.584
420.168,-52.46,209.84
358.924,-75.396,136.64
293.288,-122.732,134.444
449.692,-154.452,118.584
571.448,-187.88,5.124
541.436,-197.396,-88.816
482.632,-204.472,-83.448
630.496,-230.336,-90.28
887.916,-342.576,-243.756
1031.876,-446.032,-244.488
1200.724,-532.652,-232.776
1379.82,-556.808,-347.7
1449.848,-581.208,-380.884
1509.384,-684.42,-244.244
1619.428,-757.132,-236.192
1731.18,-770.552,-250.1
1823.168,-757.376,-241.56
2002.508,-771.04,-306.22
2009.34,-846.924,-187.392
1958.1,-840.092,-85.4
1861.476,-781.776,-81.496
1781.932,-793.0,53.436
1836.588,-859.368,128.588
1867.332,-950.136,245.952
1726.056,-993.812,415.288
1625.284,-914.512,395.768
1630.652,-877.912,350.628
1648.464,-847.168,332.572
1539.396,-821.792,292.068
1402.512,-792.268,283.04
1312.476,-761.036,274.012
1169.736,-741.76,241.072
949.404,-677.344,218.624
816.912,-602.924,220.576
647.332,-527.04,189.588
472.14,-421.632,168.116
331.352,-293.532,71.98
219.6,-180.56,2.684
83.692,-92.72,18.544
-16.836,35.38,28.06
19.764,104.432,-26.108
122.0,109.312,-45.628
387.228,128.832,-77.348
613.904,106.628,-56.364
775.676,76.128,-18.788
776.896,86.864,-43.92
921.832,127.368,-5.856
994.788,147.62,-17.568
1012.844,164.212,-5.856
1000.644,207.4,6.832
1038.952,251.32,-22.936
1010.16,257.42,-105.408
1041.636,344.284,-81.252
1016.504,329.888,25.864
1016.504,323.788,97.112
884.256,424.072,208.62
821.792,515.816,178.12
927.2,617.32,37.088
925.248,618.296,-39.528
771.04,611.22,40.26
682.956,528.26,160.552
738.1,687.836,209.352
782.996,734.196,76.616
708.088,723.46,40.26
553.392,748.836,98.332
405.528,778.116,132.004
456.28,812.032,70.028
548.024,862.296,-8.54
455.304,869.86,3.416
341.6,842.776,21.716
259.128,888.16,36.112
194.468,957.7,32.208
259.372,978.196,-59.292
217.892,962.092,-93.94
128.1,950.136,-10.492
41.968,962.58,49.288
2.928,984.296,13.664
46.604,987.712,-32.208
91.5,961.604,-39.04
62.952,970.876,12.932
82.96,1004.548,-24.156
48.8,1018.212,-36.112
-15.128,1007.964,-27.816
-15.616,996.984,-11.224
65.88,978.44,-37.576
73.932,987.956,-37.088
124.684,1005.28,-62.952
76.128,980.148,-20.496
28.792,953.308,22.448
20.984,964.532,20.984
129.564,978.928,-49.776
150.548,997.96,-79.056
111.508,1004.06,-43.432
99.796,1000.4,-16.592
60.756,982.832,3.172
86.864,990.396,-30.744
131.028,992.836,-54.412
137.128,986.736,-14.64
95.404,980.636,26.108
76.372,987.468,4.148
84.668,982.344,-6.832
108.58,986.004,-15.616
109.068,988.932,-16.104
131.516,1005.036,-21.472
127.368,997.228,-15.372
108.58,985.76,8.784
90.768,970.388,13.42
107.604,978.928,-7.076
130.54,984.052,-29.036
122.976,977.464,-21.716
118.34,984.296,-18.544
90.036,986.736,-11.224
106.384,998.692,-22.204
123.464,993.568,-40.748
114.924,1005.524,-45.14
113.46,1001.376,-36.356
120.78,987.956,-19.764
120.292,975.756,0.0
109.8,971.852,3.172
103.212,969.412,-5.856
112.484,969.168,-10.004
104.92,973.316,-2.44
107.36,982.588,-6.832
110.776,995.032,-17.324
92.72,984.296,0.488
107.848,988.688,-3.416
97.6,994.056,0.0
99.064,996.008,2.684
108.092,1002.84,2.196
140.544,1004.792,-9.028
114.924,1000.4,18.056
109.556,987.956,36.844
121.512,987.712,31.232
94.672,992.836,43.92
93.452,997.716,29.768
129.32,1006.012,23.18
140.056,997.472,28.06
146.888,986.492,37.82
131.76,979.416,60.024
111.264,968.68,60.268
101.26,964.776,37.82
108.58,976.0,10.004
119.56,995.52,8.052
113.704,1003.816,24.156
116.632,994.3,32.696
97.356,991.128,34.404
91.744,993.568,2.196
96.624,1005.036,-18.3
88.084,1006.256,-8.784
84.18,1001.132,-10.736
88.572,996.252,-10.248
109.068,979.66,-10.004
143.228,975.268,-11.468
117.852,983.564,2.196
104.432,986.248,-10.98
108.336,996.74,-41.48
109.068,989.908,-34.404
117.12,972.584,-17.568
115.656,982.832,-7.564
108.58,1007.476,-54.9
64.172,1016.016,-69.296
50.996,1010.16,-76.86
54.412,986.004,-61.244
72.224,975.024,-45.14
81.008,986.248,-44.408
97.112,995.52,-48.8
77.348,989.908,-67.832
71.248,994.056,-55.144
94.916,1010.16,-52.46
106.14,1011.868,-66.856
111.264,995.764,-57.584
90.036,1012.356,-28.792
80.276,1019.676,-54.656
76.372,1010.16,-47.824
87.108,1012.356,-49.288
104.676,1008.696,-61.0
98.088,997.716,-73.444
60.756,972.34,-80.764
47.824,971.608,-74.664
49.532,979.416,-91.256
60.512,978.196,-123.464
51.728,984.296,-130.052
10.248,993.812,-108.58
6.832,990.396,-135.908
24.888,984.784,-126.392
30.012,982.588,-119.56
34.892,991.372,-126.88
25.62,986.98,-102.48
28.304,981.612,-81.008
58.072,971.364,-73.932
58.316,964.044,-58.56
49.532,961.116,-64.904
36.844,953.308,-78.568
20.74,961.848,-70.76
29.28,965.264,-69.052
52.948,982.344,-91.256
50.752,982.344,-86.864
50.752,983.808,-68.076
44.164,979.416,-61.0
43.188,976.732,-75.884
44.652,974.292,-75.884
65.392,977.464,-70.028
66.612,974.048,-51.972
58.804,973.316,-26.84
63.196,996.496,-71.492
67.832,1008.452,-81.008
76.372,1004.792,-66.856
79.788,985.272,-59.048
53.924,976.976,-27.572
53.192,985.76,-34.16
61.976,1003.328,-52.948
76.86,1010.648,-84.668
71.492,1012.112,-65.88
55.144,999.668,-45.872
60.024,994.056,-49.044
79.056,999.424,-64.66
62.708,1002.84,-62.708
43.676,1001.864,-43.92
35.136,1003.572,-27.572
75.64,1003.328,-18.056
76.128,1016.016,-27.328
30.988,1090.924,-44.652
12.932,1081.164,-83.448
26.352,1110.932,-72.712
-3.66,1106.54,1.22
-73.444,1022.36,90.28
-14.152,1025.044,125.904
164.212,984.54,46.116
413.824,1070.916,-130.54
428.464,1016.26,-276.452
395.28,816.668,-291.092
386.74,792.512,-56.608
306.708,638.548,88.328
335.5,397.232,199.348
783.728,415.044,-29.768
1115.568,433.1,-383.08
1006.5,206.18,-119.072
737.368,199.348,305.488
474.092,180.072,708.576
500.688,55.876,580.964
785.68,52.216,184.952
835.944,79.544,-6.1
708.82,55.876,120.536
608.536,100.772,183.976
559.248,82.472,167.14
356.728,23.18,120.292
206.424,-48.8,133.468
267.912,-75.64,142.984
301.828,-93.696,74.42
401.868,-121.512,-115.412
547.048,-177.876,-192.516
594.384,-166.896,-211.792
579.012,-194.468,-178.852
632.692,-294.508,-161.772
917.44,-318.176,-242.536
1206.58,-340.136,-600.24
1318.576,-338.184,-641.964
1352.492,-437.98,-473.36
1497.184,-525.576,-473.116
1639.192,-517.768,-553.148
1702.876,-526.552,-514.352
1851.228,-574.864,-553.88
1994.212,-624.152,-635.62
1946.388,-682.468,-533.384
1830.244,-709.796,-422.608
1755.58,-679.784,-372.1
1719.712,-720.776,-278.404
1687.016,-785.192,-160.796
1624.796,-782.264,-108.092
1575.996,-768.844,-62.708
1503.772,-756.644,-14.152
1431.792,-738.588,61.244
1412.516,-762.012,164.212
1403.976,-792.268,195.2
1333.948,-798.612,241.316
1325.896,-738.588,216.184
1261.236,-708.576,185.684
1162.172,-654.896,188.368
1080.432,-590.48,119.316
985.76,-554.856,90.768
795.928,-498.004,116.144
548.268,-389.668,108.824
420.412,-272.304,106.384
368.196,-215.208,104.188
296.704,-131.516,39.04
210.328,-33.184,21.228
147.376,25.376,7.564
189.344,93.208,-24.644
249.856,136.152,-55.388
341.356,138.348,-62.708
516.06,128.344,-70.028
748.592,127.124,-114.68
812.032,82.716,-67.344
839.604,56.608,-22.936
946.964,17.08,-101.504
1114.104,169.336,36.844
1210.24,78.812,54.412
1257.332,101.016,76.86
1228.296,91.744,71.736
1096.048,79.056,58.316
1023.824,238.388,17.324
1148.264,383.568,-23.668
1108.248,344.528,170.068
1064.328,398.696,257.908
1097.512,427.976,83.936
1020.896,437.248,70.76
887.428,474.336,136.884
765.916,566.08,155.428
716.384,640.988,111.996
769.088,626.348,33.916
797.392,722.972,-1.952
754.448,702.476,-35.136
611.952,640.988,40.504
445.544,662.948,195.2
459.696,802.516,176.168
563.884,857.904,-38.796
513.376,803.248,-74.42
334.036,792.756,33.428
296.948,886.452,-14.396
238.388,839.848,20.496
208.376,942.328,102.968
217.16,1008.696,-7.564
194.712,959.652,-117.364
121.512,948.428,-28.06
130.296,1030.9,-2.44
132.736,1038.22,-135.42
55.632,971.852,-91.256
12.688,1006.256,19.764
28.548,1002.352,-37.332
-9.028,902.312,-95.16
-10.492,970.388,-49.288
-10.248,1014.796,-63.44
3.66,1020.896,-110.532
9.76,986.98,-97.112
-36.112,1005.524,-37.82
-80.52,1022.116,4.148
74.176,994.3,-94.428
74.42,957.7,-62.22
13.176,997.472,1.464
30.744,994.056,-23.912
81.496,996.496,-78.324
73.2,983.808,-49.532
35.136,1008.696,-27.816
38.552,1007.232,-44.164
91.012,988.932,-83.448
36.356,977.22,-31.964
-1.464,1003.572,5.124
18.3,982.588,-45.384
17.08,970.876,-43.188
11.956,967.704,-24.4
-5.124,974.048,-24.644
28.792,978.684,-34.404
92.964,980.148,-62.952
120.292,996.496,-85.888
68.564,981.368,-21.472
38.064,981.368,28.304
9.516,975.268,11.224
31.232,964.288,-15.128
77.836,988.2,-51.728
123.22,995.764,-73.932
134.2,1003.816,-63.928
93.696,982.1,-32.696
46.116,983.076,23.668
49.532,991.128,18.056
92.476,989.42,-38.552
105.164,1027.24,-77.836
86.864,1011.38,-103.212
45.872,994.788,-60.756
29.524,982.344,-14.884
9.028,966.24,13.42
39.528,978.196,-9.028
62.22,966.972,-39.284
105.408,1015.04,-74.908
107.604,995.764,-80.52
43.432,1003.328,-16.104
63.196,981.368,-9.76
82.228,984.54,-30.012
85.156,993.568,-27.328
115.412,985.028,-28.548
81.496,988.688,13.176
86.62,992.348,6.588
91.744,1005.768,-6.344
74.664,1003.084,-13.664
91.5,1003.816,-20.252
108.824,999.424,-10.98
105.164,1023.336,22.936
112.24,1012.6,7.32
88.084,1004.792,25.62
68.32,1007.232,28.548
89.792,1000.644,-2.44
72.956,1006.256,14.396
83.448,1001.376,20.008
87.108,995.52,21.472
67.1,991.372,54.656
64.416,985.272,61.732
79.544,996.496,44.408
66.368,982.1,32.94
44.408,999.18,41.236
56.608,986.004,34.16
76.616,981.612,45.628
68.564,1006.5,48.8
76.86,987.224,22.936
50.264,967.216,47.824
40.016,984.54,40.992
74.176,991.616,31.476
103.7,986.98,30.5
79.788,975.756,52.948
44.652,965.02,60.512
42.456,966.728,42.212
43.188,979.172,32.452
67.832,1008.452,5.856
77.836,1003.328,9.028
81.74,991.372,19.276
93.696,995.276,14.64
68.564,984.052,44.408
26.352,983.808,58.804
41.968,1010.892,10.492
74.176,1004.792,-30.012
62.952,1018.7,-9.028
71.492,1035.048,17.812
81.496,993.08,2.928
97.6,976.488,-4.636
64.66,995.276,0.0
77.592,976.244,-13.176
101.26,992.836,-19.276
102.724,1003.084,-43.676
78.324,986.98,-65.88
32.452,1006.744,-48.8
35.136,1003.572,-66.124
67.344,993.568,-78.324
55.632,996.252,-52.948
50.752,973.56,-57.584
48.312,976.488,-60.756
20.008,965.508,-70.272
-4.636,960.872,-54.656
17.324,951.112,-42.944
31.964,983.564,-38.552
45.14,977.952,-68.564
29.28,974.048,-35.136
16.104,957.212,-10.736
16.348,981.368,-10.248
40.504,993.08,-40.016
71.004,997.716,-52.948
54.168,993.812,-24.156
31.476,995.276,20.252
61.0,993.324,15.372
77.104,994.788,-12.2
91.256,998.204,-44.652
59.536,969.9,-6.1
29.036,972.096,47.336
57.828,973.072,6.1
50.996,991.86,-3.904
48.556,1010.16,2.196
56.364,1019.432,-9.76
72.468,1026.264,-9.76
81.008,1027.24,10.004
70.76,1017.968,29.768
70.272,1012.844,40.26
95.648,1017.48,32.208
138.104,1029.924,6.832
146.888,1029.192,28.792
156.892,1050.176,58.804
149.084,1025.044,69.54
151.036,994.544,73.932
89.304,1002.596,91.988
18.544,1015.284,123.464
111.02,1026.264,78.568
133.712,1060.18,44.652
152.012,1140.456,-19.52
315.736,927.932,-141.52
396.256,844.972,-222.284
416.02,872.544,-81.74
487.512,524.356,41.724
558.516,348.188,123.952
540.216,343.308,205.936
718.092,232.776,158.6
912.072,113.704,89.06
924.76,79.788,131.272
830.82,59.048,283.528
749.08,49.044,305.732
736.88,22.936,194.712
598.532,-10.736,131.028
481.412,-12.932,167.872
440.176,18.544,183.732
461.16,-61.488,131.516
429.44,-89.06,117.608
254.492,-109.8,127.124
196.908,-76.86,119.072
359.656,-133.224,72.956
447.008,-186.904,36.112
590.48,-209.596,-115.9
819.352,-279.136,-283.284
955.504,-346.236,-384.056
1008.452,-379.42,-389.668
1057.74,-411.628,-347.7
1164.612,-423.096,-335.012
1372.012,-428.952,-486.78
1532.076,-482.388,-704.428
1587.952,-494.344,-697.84
1629.92,-502.884,-620.248
1732.888,-567.056,-618.54
1770.22,-662.948,-508.984
1747.772,-654.408,-423.096
1771.684,-635.376,-386.252
1789.496,-653.92,-382.836
1718.248,-670.756,-340.624
1682.38,-609.512,-300.608
1716.784,-610.0,-306.464
1730.692,-720.532,-218.868
1649.684,-767.38,-71.004
1500.112,-750.3,64.416
1409.832,-733.952,86.62
1396.656,-657.824,17.08
1359.812,-596.092,20.496
1338.096,-617.32,73.932
1304.18,-682.468,103.7
1252.94,-637.328,49.288
1119.228,-542.412,39.528
1015.04,-522.892,39.528
897.676,-527.04,94.184
759.084,-491.416,134.688
703.208,-437.98,125.172
632.204,-360.388,45.384
500.444,-286.7,11.468
433.832,-212.28,51.484
160.552,-269.376,111.996
196.664,-38.796,67.588
348.676,98.332,-86.376
430.66,161.772,-165.188
571.448,207.4,-150.548
602.192,169.092,-95.404
472.872,109.8,-93.94
554.368,167.628,-146.644
830.82,295.24,-164.212
1006.256,326.472,-145.912
1080.432,366.488,-202.032
1050.42,425.048,-250.344
969.168,375.76,-144.936
993.08,399.916,-141.032
994.788,363.56,-239.852
901.336,405.284,-174.216
818.864,420.9,-70.516
796.416,505.568,-29.036
870.592,587.552,-49.288
877.668,709.796,-281.088
884.744,783.484,-371.124
792.756,622.444,-253.516
683.444,624.64,34.16
596.092,752.252,30.988
504.104,799.344,-108.336
465.308,944.036,-107.116
596.336,932.812,-173.24
581.208,765.916,-138.348
443.836,840.336,3.172
235.948,884.012,62.22
121.756,788.608,132.98
172.264,965.02,109.8
296.704,1112.396,-91.5
171.532,1007.964,-87.596
91.988,923.54,82.716
126.392,906.704,227.408
162.016,1011.624,180.804
75.396,1042.856,67.344
-23.912,977.952,112.972
9.516,956.48,169.092
78.08,998.692,88.328
-21.228,936.472,69.54
-61.488,974.292,117.608
-19.276,997.96,78.08
-90.768,909.632,118.828
-81.496,966.24,133.956
46.116,986.248,19.032
58.316,967.46,-21.716
-20.252,975.268,98.088
-72.956,967.216,165.432
-71.736,955.748,106.14
-5.368,995.52,4.636
46.116,1011.38,-19.276
8.54,1018.212,18.788
-31.72,996.74,42.944
-32.94,1007.72,64.66
-22.692,988.932,70.028
4.636,999.424,0.244
25.132,1019.676,-23.668
-34.404,975.024,61.488
-54.168,960.14,98.82
47.092,996.496,20.74
48.068,990.884,-17.08
-22.448,986.004,31.964
-34.404,974.048,26.596
-6.1,980.636,26.84
16.836,996.008,19.032
30.988,1033.584,-0.732
28.792,1007.232,-11.956
3.416,1005.28,25.864
-20.008,993.08,21.228
-5.124,1007.964,18.544
31.964,1005.524,2.928
36.356,996.008,36.6
33.184,1006.256,27.572
14.64,988.688,27.816
-4.392,973.804,59.292
28.548,974.536,42.456
35.38,971.852,34.404
18.056,982.832,35.38
17.812,994.788,10.492
-2.684,999.424,15.86
3.172,1000.4,20.74
36.844,1003.084,9.76
46.848,975.512,9.516
8.784,963.312,55.388
-11.956,977.22,73.932
-14.64,969.9,61.0
-3.172,999.912,16.592
41.48,1019.92,-38.064
39.528,1002.352,-3.172
22.692,979.66,52.704
11.712,955.016,81.984
-11.468,969.656,92.232
30.256,999.912,29.28
40.504,995.276,6.832
4.148,1001.864,34.404
-3.904,983.32,48.556
3.66,973.316,51.24
-11.468,969.656,59.536
24.888,1011.38,24.156
56.608,997.96,-6.1
28.792,987.468,58.56
22.204,979.66,84.424
9.76,999.424,110.532
34.404,1007.964,30.5
41.236,1025.776,8.052
28.06,1023.092,22.692
1.708,989.176,60.268
12.2,980.392,78.812
33.184,965.996,86.62
40.26,978.44,92.232
24.644,987.468,76.616
20.496,974.78,78.812
16.348,986.98,89.792
17.08,998.692,77.592
14.64,991.616,86.376
38.308,998.448,91.012
33.184,1005.036,98.576
3.904,973.316,120.292
57.828,1001.864,86.62
52.46,1004.792,80.52
49.532,1035.78,54.656
28.792,1001.864,64.904
42.7,1001.62,57.584
55.632,986.248,78.812
-6.832,982.1,115.412
1.708,1005.28,75.884
35.868,957.212,57.828
40.748,999.424,74.908
29.768,1023.824,71.736
10.736,969.656,41.48
50.264,963.312,39.284
18.3,981.612,88.084
-6.588,989.42,75.396
4.636,996.252,34.648
46.116,992.104,-5.368
47.092,977.708,-16.592
-14.64,995.032,43.92
-35.868,997.96,64.904
11.468,1004.304,15.616
10.248,988.932,-34.892
-44.896,1000.156,-28.304
-25.864,1009.672,-31.72
-48.312,971.12,30.988
4.636,976.0,10.004
-13.176,1030.656,-21.472
84.424,1042.124,-48.312
-9.028,978.684,10.492
-57.34,959.652,44.896
-47.336,978.196,20.252
-39.04,956.724,32.94
-29.524,972.584,21.716
33.672,998.936,0.488
57.828,981.124,24.4
2.44,954.284,48.556
19.52,968.192,22.204
6.588,997.472,10.492
15.372,994.788,20.984
-45.628,994.544,44.652
25.376,997.228,5.368
79.056,998.692,-28.06
64.904,993.812,3.66
36.112,1006.988,1.464
21.716,1002.84,22.936
0.0,994.788,44.652
30.256,1022.116,42.456
27.328,1032.364,34.648
35.624,1034.072,15.372
59.78,1051.152,-44.652
45.872,1050.664,-60.756
12.932,1028.704,-26.596
1.22,1010.16,3.416
34.648,986.492,43.92
19.276,970.388,65.148
67.1,978.928,-14.152
15.86,998.692,-51.24
-10.248,988.444,-27.328
4.88,975.756,20.252
23.668,949.892,53.192
21.228,943.548,43.92
44.652,957.212,-6.832
13.176,952.088,4.392
0.488,957.212,-13.176
-9.028,958.92,-11.468
-12.2,955.992,25.62
1.952,965.752,40.748
21.96,985.028,35.868
26.596,1025.044,1.708
19.032,1049.2,-1.708
18.3,1038.22,63.44
-74.42,1037.0,122.488
-96.38,1079.7,90.768
-30.5,1100.44,43.92
1.708,1096.78,63.44
-35.38,1131.184,110.288
100.284,1145.092,-21.716
237.9,1098.0,-7.076
183.976,1050.42,121.024
266.936,895.48,96.136
369.904,835.212,169.58
423.828,704.428,224.48
590.236,682.468,43.92
960.14,704.184,-226.92
986.492,677.832,-184.22
791.292,510.692,241.804
544.608,404.308,435.296
503.616,442.128,40.992
828.136,346.48,-239.852
692.472,263.52,21.228
700.768,207.644,162.504
710.772,188.856,77.104
691.984,160.796,23.424
524.356,137.128,56.12
538.508,100.284,55.144
485.072,53.924,112.24
480.924,8.784,77.592
449.204,-98.576,116.876
468.968,-149.328,171.288
511.912,-183.0,143.716
463.112,-186.66,111.264
414.312,-196.42,119.56
406.504,-241.56,161.528
552.172,-236.192,21.96
597.8,-225.456,-98.82
611.22,-262.788,-98.576
784.948,-270.596,-205.448
995.52,-280.356,-330.864
1213.9,-262.544,-476.044
1236.592,-249.612,-528.992
1327.604,-258.884,-572.424
1420.812,-297.68,-572.668
1577.46,-385.764,-519.72
1709.22,-426.268,-540.948
1779.248,-386.496,-686.128
1668.716,-408.944,-536.312
1694.336,-413.824,-395.524
1869.284,-434.808,-344.04
2052.284,-432.368,-470.188
2038.62,-415.776,-470.188
1878.8,-423.584,-297.924
1878.312,-467.504,-157.868
1961.76,-517.524,-81.74
1892.952,-580.476,29.28
1824.632,-602.68,105.896
1748.504,-581.452,145.912
1677.5,-560.224,135.908
1588.928,-570.228,162.016
1567.456,-543.144,187.148
1471.076,-531.676,160.552
1375.916,-522.648,135.42
1301.984,-513.864,89.792
1198.04,-534.116,97.6
950.868,-555.832,187.636
765.672,-502.64,188.124
606.34,-399.916,84.912
455.304,-291.58,-34.892
261.08,-218.38,-40.504
69.54,-163.724,-30.988
23.668,-88.572,-62.952
16.104,-7.808,-109.556
100.528,70.76,-175.924
241.316,99.064,-152.5
231.8,122.244,-149.084
479.216,150.548,-120.292
685.64,169.336,-55.876
910.364,215.208,-88.084
1068.232,280.112,-177.388
1073.6,327.936,-231.556
1097.024,408.7,-234.728
1209.752,475.8,-158.6
1245.132,526.308,-135.908
1208.288,561.444,-167.384
1104.344,564.86,-172.264
939.4,570.228,-112.728
882.548,656.36,-135.176
852.048,749.08,-208.864
723.704,768.6,-181.536
640.988,777.628,-104.92
701.012,782.264,-145.912
544.852,773.724,-86.864
418.216,799.588,-59.78
500.444,823.012,-193.98
445.056,801.052,-168.36
342.332,796.904,-71.004
230.336,816.912,-112.484
158.112,828.38,-172.996
121.268,885.72,-201.056
71.736,921.1,-198.616
67.1,929.152,-179.34
89.548,925.492,-144.692
53.436,906.216,-103.456
18.544,912.072,-111.02
-56.608,932.08,-90.524
-67.1,955.016,-157.136
-52.704,958.188,-159.576
-77.592,957.456,-124.684
-134.444,961.36,-117.608
-117.364,977.464,-163.236
-171.776,970.388,-133.468
-129.32,981.368,-177.876
-27.816,969.168,-219.112
-52.216,962.58,-146.888
-72.956,953.064,-106.628
-110.532,951.844,-103.944
-162.992,933.788,-74.664
-36.6,926.712,-135.664
22.448,929.396,-173.728
-53.192,940.376,-105.896
-68.808,942.572,-58.56
-66.612,938.668,-20.984
-25.132,950.624,-39.528
58.316,970.876,-90.768
37.088,982.344,-67.344
22.448,1011.38,-68.076
0.244,1023.824,-74.42
-15.616,1023.336,-73.444
15.128,1027.972,-117.364
72.224,1031.632,-181.536
30.988,1025.044,-130.296
-18.544,1002.596,-44.408
-25.132,987.468,-22.204
11.956,986.736,-68.076
70.516,979.172,-112.484
29.28,964.776,-33.672
23.18,967.46,-29.768
11.712,982.344,-78.08
-29.768,986.492,-63.928
-20.008,994.3,-57.828
37.576,992.836,-100.772
43.92,991.616,-93.208
39.04,982.832,-63.684
23.668,994.3,-79.3
3.904,1004.304,-93.452
-11.468,993.812,-57.34
-11.712,972.828,-9.516
20.252,969.9,-39.284
55.144,992.348,-107.36
22.204,1006.012,-95.16
-12.444,1000.888,-57.096
-7.32,986.98,-48.556
11.468,984.296,-55.632
38.308,988.2,-71.004
33.428,983.076,-68.564
8.296,990.64,-58.804
5.612,1004.304,-72.956
16.348,1000.4,-75.64
39.04,998.936,-89.304
29.524,994.056,-83.448
21.472,980.392,-61.732
29.768,974.048,-52.704
14.884,968.68,-39.772
14.64,974.78,-65.636
21.228,977.952,-87.108
16.836,990.152,-87.108
17.568,998.936,-92.476
28.792,997.472,-81.984
28.304,986.736,-67.1
24.888,988.444,-67.588
21.716,990.396,-72.224
25.62,985.028,-64.904
36.356,986.248,-61.976
31.964,993.324,-67.588
11.956,1002.352,-69.296
9.028,1005.28,-73.688
39.04,1007.476,-89.548
48.556,1002.108,-73.444
39.284,990.64,-43.432
33.672,987.712,-34.648
27.084,988.2,-31.476
30.988,994.788,-51.484
29.036,1000.156,-72.468
13.908,993.568,-68.564
13.176,984.54,-51.484
12.688,976.244,-35.38
20.496,976.244,-36.844
25.376,996.984,-54.656
37.088,1010.892,-61.244
48.068,1012.6,-45.628
47.58,1017.236,-37.332
50.264,1015.284,-55.632
37.82,1007.476,-57.584
30.5,1007.232,-61.488
23.424,1001.62,-55.388
24.156,985.516,-31.72
25.132,972.828,-19.52
19.276,981.368,-36.6
26.352,993.324,-72.468
14.884,986.248,-72.956
11.224,974.048,-54.412
-6.1,957.212,-19.032
-9.272,955.26,-8.54
-2.196,968.192,-34.892
20.74,972.34,-64.416
20.008,986.492,-59.048
20.008,987.468,-34.892
19.276,1003.328,-36.356
-2.196,1009.916,-25.132
6.344,1001.864,-21.228
39.772,1003.328,-45.628
27.572,1013.332,-41.48
5.612,1006.744,-9.272
0.244,993.568,-2.44
-5.856,1006.5,-24.156
1.464,1013.088,-50.264
0.732,1002.84,-45.872
-14.396,992.592,-17.812
-20.008,993.568,32.208
-9.76,1000.156,39.284
-4.88,1011.136,-0.488
18.788,1002.352,-51.24
-22.936,981.368,-28.792
-54.656,983.808,-1.952
-61.0,1001.132,-6.344
-30.012,999.912,4.148
24.888,994.056,27.816
34.16,975.268,65.88
-8.54,984.784,72.468
-26.84,1029.436,17.568
-16.348,1032.852,2.44
20.008,1013.332,30.744
31.72,1015.284,54.168
23.668,1026.508,53.924
-0.976,1037.244,32.696
-33.672,1035.292,29.768
-33.428,1031.388,11.468
-19.764,1011.136,3.172
-7.808,996.984,-25.132
-32.696,1000.644,-28.792
-19.032,976.976,-10.004
20.252,944.28,-26.84
12.688,947.452,-74.176
-53.436,947.452,-44.164
-5.612,940.376,-19.764
64.904,943.06,-30.988
69.296,948.916,-45.628
6.1,961.116,-59.048
12.688,996.252,-144.448
-33.428,1033.828,-162.26
-37.332,1028.704,-121.024
0.732,1008.94,-81.74
35.624,996.252,-92.476
19.032,996.74,-110.288
-8.54,996.984,-91.5
-31.232,981.368,-50.508
0.488,973.072,-71.736
-2.684,978.684,-105.896
-53.192,984.296,-73.444
-35.868,978.684,-73.2
-12.2,968.436,-71.98
7.564,976.488,-98.332
-21.228,965.996,-80.032
-40.748,940.376,-27.572
-17.324,950.624,-36.356
6.832,976.976,-67.1
17.568,976.244,-83.692
-0.244,969.9,-61.976
-6.1,976.0,-75.152
-40.504,979.172,-60.512
-49.776,970.632,-57.34
-43.676,970.876,-71.736
-33.428,1007.232,-110.288
-62.464,1024.8,-77.104
-25.376,1022.36,-63.928
2.928,1021.14,-64.416
21.228,1019.188,-53.436
-2.196,1005.524,-9.76
1.464,1000.4,-5.124
1.22,1009.672,-28.304
-5.368,1014.064,-27.328
-8.784,1019.432,-18.056
15.372,1030.9,-37.332
26.108,1040.416,-60.756
-17.568,1028.948,-21.96
-55.388,1016.016,28.792
-113.948,1024.556,46.604
-44.896,1073.844,-49.044
35.136,1080.432,-98.82
27.084,1077.992,-48.8
-43.188,1077.26,17.568
-145.668,1077.26,115.168
-190.564,1091.9,99.796
-2.196,1052.616,-105.896
265.472,1036.024,-184.22
363.56,989.42,-104.432
655.14,911.096,-128.344
467.992,768.844,132.248
457.5,672.708,227.408
680.272,551.44,-20.008
730.536,490.196,4.148
392.108,416.996,120.048
280.356,246.684,369.172
92.964,76.616,556.32
120.78,19.764,384.056
185.684,-5.612,122.488
162.504,-113.704,292.556
23.912,-136.396,241.804
100.528,-191.54,110.776
205.692,-254.004,-0.976
354.044,-290.604,-126.148
311.588,-280.844,-176.168
291.824,-317.688,-235.216
494.1,-359.656,-347.212
817.4,-410.652,-552.416
996.74,-469.212,-623.908
1200.968,-547.536,-703.94
1399.34,-589.504,-732.732
1486.692,-644.16,-684.908
1530.124,-749.324,-540.704
1735.328,-868.152,-448.228
1927.112,-879.864,-528.992
1902.468,-855.464,-454.328
1949.804,-909.632,-283.284
2248.216,-994.3,-198.616
2447.808,-1018.7,-148.596
2299.944,-1003.572,-82.228
2122.8,-1029.192,97.844
2096.448,-1047.98,175.924
2069.364,-1031.632,210.572
1953.22,-991.86,185.684
1909.056,-976.976,169.58
1804.136,-948.916,168.848
1709.22,-940.132,200.812
1554.28,-932.324,240.828
1283.44,-896.944,282.064
1087.02,-849.364,330.62
940.62,-759.328,236.436
732.732,-675.88,196.908
369.172,-578.768,223.504
124.684,-450.668,249.124
29.768,-305.732,194.224
13.664,-140.788,58.316
-93.208,-22.936,-62.464
-136.396,23.912,-52.216
-42.7,61.976,-9.76
90.768,95.892,-8.784
317.444,135.908,-66.856
413.092,157.38,-189.1
539.972,154.94,-190.564
671.732,178.12,-171.288
744.444,197.884,-116.388
880.596,199.836,-79.3
958.676,191.052,-124.684
1024.556,248.636,-156.648
1037.488,248.392,-165.92
983.564,185.684,-175.436
889.38,297.192,-196.176
981.856,362.828,-172.508
1106.052,408.7,-197.884
1086.776,426.024,-203.496
1028.46,424.072,-194.224
954.284,470.432,-186.66
949.16,524.844,-223.748
1007.964,596.58,-294.752
967.948,603.656,-272.792
856.44,593.652,-191.54
802.76,636.596,-176.412
881.572,687.592,-262.3
871.08,730.78,-276.208
723.948,736.392,-201.056
689.544,758.352,-196.908
620.98,730.536,-122.732
542.168,775.432,-110.776
464.82,812.764,-164.212
433.588,851.072,-146.4
402.6,854.488,-97.6
415.288,879.376,-103.212
368.44,904.752,-111.264
359.656,909.876,-110.776
317.932,913.292,-74.908
325.496,936.228,-126.148
388.448,952.576,-182.268
235.46,921.832,-58.316
262.3,920.612,-26.84
220.576,958.188,-53.68
208.376,943.304,-71.492
234.728,940.376,-82.228
137.86,954.528,-19.032
123.952,996.252,-63.684
120.536,1007.964,-111.02
70.76,979.66,-60.512
55.388,982.1,-24.156
82.96,973.56,-24.888
54.656,970.144,-18.788
32.452,980.148,-39.528
48.068,974.536,-46.848
17.568,959.408,-12.688
92.72,972.34,-66.856
115.412,977.464,-81.74
45.384,957.7,-20.496
24.644,951.6,12.2
40.016,961.116,-1.708
123.464,975.512,-31.72
112.484,994.056,-43.188
91.744,1022.36,-85.4
32.452,1033.096,-97.112
6.588,996.496,-54.168
25.376,951.356,3.66
84.424,950.624,-16.348
80.276,983.076,-81.252
51.484,1007.964,-106.384
6.344,1008.94,-84.668
6.832,994.788,-64.66
62.22,977.22,-67.588
97.356,976.976,-68.076
86.376,981.856,-25.376
87.84,988.688,-4.88
79.3,1009.916,-44.408
71.004,1012.112,-69.784
56.12,1000.4,-75.396
56.12,978.684,-64.416
39.528,974.78,-50.02
54.168,985.028,-84.668
16.104,986.98,-67.344
10.98,993.08,-53.68
30.744,994.056,-71.248
97.112,997.96,-72.712
89.06,1007.232,-50.508
88.816,1020.164,-71.736
50.996,990.152,-34.892
46.36,958.432,10.98
81.74,952.332,30.744
108.58,968.68,31.232
99.064,985.028,17.08
68.564,997.716,6.1
78.812,1004.06,3.904
105.652,985.272,17.08
132.004,964.776,22.936
89.304,964.776,58.804
63.196,973.56,66.612
76.372,978.196,29.524
98.332,991.372,8.54
80.032,995.276,36.6
84.18,998.448,40.016
66.612,997.472,50.02
71.004,982.832,51.484
114.436,972.584,37.576
107.604,975.512,58.316
101.504,992.104,73.688
83.448,1014.552,48.556
92.232,1023.336,9.272
143.228,1022.36,-9.76
140.788,1018.944,6.588
134.932,999.18,32.452
119.316,980.88,60.024
102.48,973.072,50.508
99.796,972.828,31.232
140.3,1001.376,-6.588
126.392,1022.36,14.64
118.828,1014.552,45.14
107.848,1001.376,47.58
87.352,984.54,38.796
117.608,977.708,-1.22
116.144,977.708,-17.324
47.58,968.924,4.148
8.296,941.108,15.86
8.296,910.364,51.728
19.032,919.148,86.864
21.472,963.8,88.084
77.836,1018.944,26.352
110.044,1047.98,-29.036
116.388,1054.812,-60.024
106.872,1034.804,-44.164
117.608,971.364,14.884
111.996,926.956,67.344
91.5,933.544,78.568
70.028,965.02,47.58
56.12,1005.524,1.708
44.652,1017.48,6.588
85.888,1015.284,20.496
100.528,1004.06,37.332
129.076,998.692,36.844
105.896,996.008,59.292
106.14,1002.596,62.708
115.412,1000.4,57.096
96.868,1013.332,45.872
78.568,1011.136,41.236
77.104,1019.92,31.964
94.428,1008.452,48.8
79.788,998.448,75.396
70.028,993.568,73.444
74.176,986.736,83.692
118.096,987.712,79.788
125.416,1011.38,57.828
102.48,1033.828,35.136
74.176,1026.264,42.456
61.732,1013.576,55.144
59.048,1021.872,21.472
79.544,1007.72,-3.66
49.776,994.3,30.5
49.288,990.64,43.676
71.492,997.472,13.908
84.18,993.568,-1.708
55.632,973.804,9.516
48.8,961.604,4.636
52.948,967.46,-45.384
56.12,961.848,-53.436
63.196,958.188,-20.008
82.716,969.412,-27.572
64.904,977.464,-43.188
22.936,988.444,-79.3
23.912,1010.404,-125.66
52.216,995.764,-131.272
54.412,974.78,-92.964
81.74,955.504,-72.468
61.488,959.164,-90.768
10.492,953.552,-89.792
8.296,946.72,-84.912
22.204,968.436,-127.856
-10.492,984.784,-116.144
6.832,1017.48,-76.616
50.752,1047.98,-72.224
61.244,1049.444,-45.628
47.58,1046.516,-16.348
58.56,1096.292,5.612
2.44,1132.16,2.928
90.28,1211.46,-57.584
451.644,1219.024,-209.596
542.168,1122.644,-195.444
409.676,1017.724,48.312
297.192,901.336,181.78
422.608,822.036,180.56
573.4,653.188,50.752
1021.384,505.324,-67.832
1105.076,455.06,-13.176
913.292,334.768,329.644
627.324,257.908,557.052
325.252,217.404,444.08
522.648,165.92,194.712
617.32,126.88,54.656
306.22,55.632,345.504
108.58,-1.708,453.84
90.524,25.864,238.388
331.352,110.776,-102.724
398.94,116.876,-245.952
369.416,54.168,-197.152
292.312,-22.204,-187.88
430.66,-83.692,-261.08
589.504,-95.892,-456.036
732.976,-142.496,-509.472
1015.284,-194.224,-605.852
1312.476,-282.552,-658.8
1380.308,-387.472,-540.46
1626.748,-468.724,-532.408
1802.184,-538.264,-460.672
1998.848,-639.768,-366.732
2111.576,-755.912,-182.268
2227.232,-835.944,3.172
2281.4,-822.524,73.932
2253.096,-780.556,140.788
2349.476,-846.924,311.1
2491.728,-996.008,509.472
2278.228,-1031.876,642.696
1962.492,-935.496,695.644
1703.364,-889.868,755.18
1481.324,-868.884,849.364
1106.54,-782.996,827.16
632.448,-668.56,770.308
340.624,-493.856,697.596
214.232,-306.952,464.332
61.244,-97.6,209.108
-37.576,84.424,-1.464
-97.112,176.412,-73.444
-34.404,216.672,-122.0
11.712,243.756,-155.184
204.96,242.78,-194.956
433.344,238.876,-195.932
712.48,214.72,-144.692
863.516,188.368,-53.192
850.096,173.24,-38.552
738.832,213.012,-144.692
920.124,276.696,-131.516
1039.928,289.628,-17.812
1102.636,296.46,64.172
1089.948,260.592,109.8
1002.108,324.764,38.064
1006.988,417.24,-108.336
1029.68,499.224,-108.336
1035.292,538.02,-22.936
1048.712,574.62,1.708
988.2,544.852,39.284
917.196,583.892,45.14
787.876,639.28,1.22
721.508,682.224,-40.016
680.028,751.276,-75.152
695.4,732.488,-34.648
736.88,678.808,48.068
747.128,782.02,-1.952
677.832,844.484,-84.912
614.636,825.94,-73.444
574.132,827.404,4.636
574.376,808.128,85.644
642.696,864.492,59.292
588.528,865.712,32.452
485.56,892.064,49.532
383.568,891.088,67.588
438.224,905.972,31.964
435.052,930.616,24.156
296.948,952.576,40.504
185.196,959.896,90.524
199.348,960.872,78.324
254.98,961.604,30.988
254.736,972.096,27.816
123.22,953.552,89.792
70.516,945.744,127.368
98.332,944.768,89.548
109.8,956.724,21.228
125.904,960.384,38.064
101.016,980.148,82.716
45.872,982.832,88.572
11.224,981.612,58.072
31.476,972.096,39.528
56.12,964.288,72.224
60.512,967.46,102.968
45.628,966.972,104.92
30.256,967.46,100.04
-11.956,982.344,81.008
-44.652,982.832,70.272
-10.248,980.148,61.732
21.96,983.808,50.752
0.976,1004.06,29.768
-18.056,995.276,26.84
-42.7,968.436,94.916
-3.416,963.068,94.184
46.116,979.416,46.848
48.312,979.416,61.0
48.556,989.908,74.908
20.74,997.472,88.816
19.52,985.76,82.228
40.26,979.904,70.272
43.676,980.636,78.08
37.088,976.244,91.012
37.088,997.716,56.12
52.948,1011.624,10.98
3.904,988.444,49.288
-6.832,966.484,91.5
62.464,965.508,73.2
72.224,974.292,80.276
38.796,977.708,85.888
6.1,986.004,70.028
29.28,986.736,63.44
45.872,982.344,85.644
63.44,980.148,86.62
73.2,999.18,58.072
46.848,1004.548,55.144
22.692,991.128,70.76
22.936,987.712,75.884
71.004,992.836,57.096
53.436,984.784,72.224
35.624,987.712,87.352
65.392,1005.768,51.728
58.316,1011.868,48.556
46.604,999.18,65.392
55.632,985.76,81.008
60.268,976.488,94.916
74.176,980.148,82.96
60.024,988.444,62.952
49.776,993.08,55.144
44.408,999.912,58.56
43.676,1005.524,59.78
55.388,999.668,54.656
65.148,984.54,57.584
41.968,990.884,61.244
36.356,1015.284,45.384
45.384,1010.16,45.628
51.728,995.764,57.584
61.488,977.22,84.668
72.224,979.416,86.864
63.928,988.444,86.132
67.832,1003.572,73.2
66.612,1009.672,49.288
57.096,1000.644,58.804
56.852,991.616,58.56
71.004,975.756,70.516
65.392,976.488,80.52
63.684,981.612,75.152
49.044,971.12,82.472
30.744,960.872,78.812
41.724,955.992,63.44
43.188,971.852,61.976
54.168,976.0,72.712
76.128,972.828,81.984
68.32,979.66,88.572
70.76,982.344,65.88
57.828,981.612,61.244
56.852,982.588,64.172
66.124,996.252,57.584
73.932,1001.864,42.944
93.696,1006.256,27.816
69.052,992.592,52.46
63.928,983.564,81.252
55.632,990.152,84.18
78.568,1008.208,55.144
108.336,1017.48,34.16
89.304,1025.044,56.364
84.424,1017.968,61.244
83.204,1013.332,40.016
69.54,1006.256,46.848
81.008,1009.184,49.776
101.016,1015.284,22.448
70.516,998.936,13.42
13.176,991.86,18.788
47.336,996.74,-3.416
86.132,1003.328,-34.892
58.072,987.468,-18.3
27.084,963.312,4.636
-3.66,960.872,-15.86
-5.368,963.8,-27.328
24.644,974.536,-21.716
66.368,994.788,-19.276
84.912,1001.376,-18.056
71.248,998.204,-24.888
35.38,977.952,-7.32
40.748,965.264,16.104
72.468,973.072,1.22
92.476,980.88,-11.712
76.86,996.74,-2.196
71.248,1001.376,-24.4
37.576,987.956,-29.28
12.2,971.364,7.808
34.892,979.416,25.132
100.772,1013.576,-14.64
102.968,1019.188,-20.496
81.496,997.472,2.196
56.608,984.54,-36.112
12.932,983.808,-64.416
29.768,1006.988,-90.768
24.888,1011.868,-96.868
26.352,996.74,-101.504
-14.396,972.584,-71.736
-30.012,969.9,-68.808
-4.148,996.984,-81.984
67.588,1026.264,-119.072
47.58,1027.24,-88.328
21.472,995.764,-25.376
36.356,968.192,-8.052
35.38,975.268,-35.136
46.848,1001.62,-81.496
12.2,998.936,-69.052
21.228,982.588,-37.576
23.424,964.532,-14.64
5.368,951.844,-1.708
25.864,969.412,-13.664
62.22,991.616,-40.504
38.308,1006.5,-33.428
27.816,999.424,-22.448
31.72,982.832,-23.18
65.392,965.752,-22.692
53.924,968.436,5.612
54.412,969.9,8.296
59.292,983.076,-17.568
35.136,986.004,-34.16
15.616,995.52,-22.448
40.26,1002.84,-2.928
69.296,1016.26,-9.76
101.504,1031.144,-41.236
97.112,1019.432,-1.22
117.852,1015.04,20.252
95.892,1052.128,-8.54
78.08,1089.704,-38.796
15.86,1106.784,27.328
37.576,1085.556,35.624
131.76,1098.732,24.644
133.712,1055.544,40.26
191.296,999.18,70.272
103.7,1075.796,68.32
426.268,917.44,-111.02
826.428,782.752,-209.108
1034.316,713.212,-47.824
539.484,569.496,272.304
484.828,520.94,336.72
436.272,333.792,375.516
546.56,220.088,242.292
588.528,225.944,155.916
461.404,137.372,326.472
258.396,55.632,511.424
45.628,23.424,489.952
328.668,-19.032,79.544
476.532,-22.692,-134.932
324.032,-24.888,-67.1
252.784,-65.88,18.3
59.536,-105.408,-12.932
119.072,-113.216,-212.524
411.384,-107.116,-544.852
585.112,-208.132,-512.888
875.96,-333.792,-545.584
1188.768,-445.788,-555.832
1398.364,-529.236,-559.98
1712.636,-583.16,-637.572
1891.732,-622.2,-650.26
1876.848,-660.264,-572.668
1849.764,-745.42,-448.472
2096.448,-787.388,-444.324
2445.856,-838.872,-497.516
2383.636,-895.968,-403.82
2370.948,-927.444,-304.024
2410.476,-966.484,-168.116
2242.848,-1056.764,66.368
2068.144,-1091.9,236.924
1818.044,-1074.82,429.928
1667.74,-1035.536,520.696
1647.976,-982.588,466.284
1334.68,-901.336,435.784
876.692,-763.232,484.584
447.008,-627.324,507.764
208.62,-468.724,431.636
123.952,-342.82,339.648
-9.028,-170.556,223.992
-140.3,-7.32,107.36
-170.068,115.412,19.764
-1.708,186.904,-55.876
203.496,254.736,-166.164
409.676,264.008,-203.008
588.772,239.12,-179.828
850.34,168.604,-151.524
1014.796,123.952,-33.184
1004.304,89.304,23.424
944.036,142.984,-61.0
1061.156,162.016,33.672
1070.916,188.124,43.188
1000.4,205.692,11.956
980.392,259.128,-4.636
957.944,354.776,-53.436
969.656,447.252,-82.472
1021.628,460.184,26.352
1037.0,471.652,49.776
1047.736,464.088,44.896
985.028,558.76,16.104
902.556,616.832,-49.044
746.884,627.812,33.184
651.724,655.14,69.54
682.224,712.236,60.756
664.168,776.408,7.808
700.524,784.46,-25.62
570.472,747.86,76.372
599.996,816.18,101.504
615.368,888.648,4.88
432.124,898.896,47.824
321.348,929.64,82.472
340.38,925.736,49.776
337.696,933.544,-10.98
230.58,982.1,-9.028
206.424,971.364,17.324
163.968,966.24,65.392
164.944,928.664,99.308
215.696,944.768,75.152
127.612,968.436,82.472
59.536,959.896,104.92
104.676,943.06,74.908
114.436,966.484,70.76
15.616,966.972,104.92
-97.112,965.264,112.484
-57.584,964.532,113.46
-7.564,1000.644,83.692
-10.492,983.564,114.436
-94.672,978.44,161.284
-105.408,953.308,136.64
-50.508,952.576,102.968
-84.18,886.452,145.912
-9.516,945.256,84.424
-3.172,983.564,69.052
-65.148,960.384,155.672
-142.74,929.396,191.54
-115.412,940.62,137.86
-35.38,970.632,90.768
-46.36,972.096,126.148
-69.54,962.092,158.112
-85.4,976.488,133.468
-125.172,984.296,114.68
-93.208,971.852,112.24
-57.096,994.056,99.552
-81.496,986.736,104.676
-112.484,955.504,141.032
-119.316,935.252,153.72
-87.352,951.356,136.152
-55.632,970.876,102.724
-71.248,987.224,114.192
-117.364,977.22,133.224
-98.088,978.44,128.344
-70.272,999.912,101.748
-73.688,1007.964,91.988
-72.712,990.884,126.88
-68.32,970.876,151.524
-79.544,976.732,129.32
-85.644,991.128,99.552
-87.108,999.912,105.896
-87.84,1003.328,97.112
-114.68,984.052,116.144
-93.696,977.464,137.372
-50.752,996.008,106.628
-44.408,987.224,94.184
-83.692,957.456,144.936
-93.452,936.472,178.852
-40.26,955.504,138.836
-25.864,972.584,116.876
-60.512,975.024,145.18
-70.028,966.728,153.964
-55.388,974.292,127.124
-40.748,977.708,129.808
-47.336,994.3,119.804
-64.416,969.412,132.492
-80.032,959.164,128.1
-64.904,961.116,119.316
-69.296,991.372,102.48
-71.248,1024.556,81.252
-66.612,1015.04,100.528
-33.428,999.424,124.928
-57.584,984.54,131.76
-43.432,993.812,113.216
-7.32,1007.232,103.944
0.0,1001.864,141.276
-19.032,996.252,158.844
-33.184,989.176,157.624
-30.744,1011.868,110.532
-39.528,1025.532,97.112
-41.968,1023.824,99.552
-26.84,1005.036,99.796
-26.84,948.916,154.696
-32.452,901.092,218.136
23.912,917.928,192.76
6.1,944.28,132.004
-34.648,978.44,101.016
-42.456,987.956,117.608
-10.492,987.468,137.616
-15.128,998.204,122.244
-12.444,1022.36,99.552
-7.32,1026.508,100.04
-6.832,1030.412,80.276
-42.7,1017.236,69.052
-59.536,989.176,68.808
-62.708,979.172,79.3
-46.848,978.928,94.428
-10.736,985.028,94.428
-0.488,991.616,82.716
-28.304,997.228,89.304
-40.26,994.056,94.428
-20.984,990.152,100.528
-16.104,988.688,94.916
-1.952,992.104,78.08
-20.984,982.588,98.332
-28.06,990.64,96.136
-39.04,1013.82,35.624
-88.084,999.668,26.352
-51.24,967.704,75.64
18.056,964.532,63.196
-18.056,945.012,46.604
-42.456,938.668,28.304
-71.004,960.872,14.884
-78.08,997.96,-23.424
-86.132,987.956,-32.696
-112.728,974.292,-36.112
-108.824,981.612,-60.024
-81.496,994.788,-72.224
-83.204,993.08,-85.888
-127.368,969.412,-87.352
-172.264,937.692,-64.172
-151.524,918.904,-32.94
-88.328,940.132,-51.24
-78.324,959.896,-81.74
-111.752,957.7,-63.44
-149.084,944.28,-25.864
-134.2,973.56,-54.168
-93.94,1008.208,-85.644
-62.464,1014.064,-83.692
-80.276,1016.748,-65.392
-103.212,1007.964,-45.872
-88.084,996.984,-34.648
-84.912,995.52,-25.62
-73.688,1002.84,-20.496
-78.812,994.788,5.612
-74.908,998.448,21.716
-95.16,1033.096,-1.22
-130.052,1050.664,-30.988
-66.124,1078.48,-51.484
-45.872,1098.732,-27.328
-43.676,1075.308,33.184
7.808,1048.224,62.22
25.132,1079.212,72.224
-4.88,1124.108,23.18
3.416,1133.624,38.552
75.64,1057.252,60.512
264.984,1006.012,48.312
353.8,910.608,103.944
347.456,850.34,151.524
367.464,784.216,184.464
328.424,616.832,238.632
376.248,491.416,175.192
517.524,307.44,144.204
800.076,174.216,198.616
755.424,84.668,330.132
561.2,119.316,482.388
448.96,198.128,413.092
590.236,193.98,150.548
563.152,146.4,-7.808
394.06,162.992,-44.896
306.22,139.812,64.172
248.148,28.304,160.064
294.508,-6.832,96.624
314.76,-34.404,-30.256
459.452,-50.996,-118.34
734.928,-138.104,-206.424
925.98,-183.244,-383.08
1117.032,-235.46,-433.832
1201.456,-317.688,-402.356
1264.408,-352.092,-414.312
1307.352,-359.168,-425.78
1419.104,-463.112,-326.96
1393.972,-535.336,-259.372
1358.836,-520.696,-184.22
1566.724,-619.76,-187.392
1616.012,-656.604,-254.004
1508.652,-634.156,-193.248
1519.632,-657.58,-77.592
1653.588,-681.004,-87.596
1803.892,-676.856,-134.2
1792.424,-732.732,-65.148
1747.04,-779.092,60.512
1743.136,-760.792,81.74
1709.952,-705.648,53.192
1616.5,-689.3,95.892
1522.072,-683.932,171.288
1525.976,-678.808,199.348
1443.992,-654.408,172.752
1375.672,-629.276,200.568
1260.016,-593.896,201.056
1131.916,-539.972,204.716
1043.832,-493.124,245.952
984.052,-427.976,196.908
902.556,-403.332,143.716
755.18,-352.824,158.844
665.876,-305.976,171.532
597.068,-239.608,146.644
540.46,-152.256,82.96
451.4,-85.156,15.86
251.808,6.1,19.52
214.72,118.584,-15.616
292.068,121.268,-39.528
415.776,150.548,-50.264
429.44,197.884,-97.112
498.004,174.704,-18.056
632.692,135.176,3.904
853.756,176.168,-52.46
1058.96,176.412,-85.156
1047.248,98.82,-52.948
972.096,121.756,-115.412
1053.348,242.536,-154.452
1208.044,331.108,-144.936
1122.4,289.384,119.072
1126.304,293.044,78.812
1151.436,341.112,-83.936
1074.088,334.768,93.208
938.18,457.988,287.92
999.18,579.256,204.716
790.072,496.784,235.704
568.032,519.964,342.332
581.208,634.4,328.668
781.288,623.908,227.408
761.768,658.312,208.62
602.192,701.744,225.212
630.74,776.896,100.772
633.424,801.54,-3.172
443.104,742.736,67.1
461.648,835.944,114.192
661.728,957.456,-72.468
522.16,899.384,-0.244
335.988,858.88,107.116
344.528,868.396,88.084
424.072,895.48,-5.124
340.624,966.728,-29.524
229.116,1002.108,-13.664
207.888,938.668,19.764
215.696,906.46,29.768
234.24,918.172,55.876
304.268,993.08,-75.884
105.408,996.984,-74.908
-16.592,1006.012,-51.484
-26.108,986.736,-90.524
26.108,996.984,-118.584
107.848,1006.744,-148.108
22.448,1032.608,-151.036
-129.564,996.984,-40.26
-33.916,961.848,-30.256
125.66,953.308,-59.048
76.128,976.976,-0.488
5.612,997.228,-0.244
-31.476,995.52,-35.868
-57.34,948.428,21.716
-66.856,931.104,60.512
-20.984,925.492,47.58
41.968,989.908,-12.932
21.472,992.836,-42.212
-4.88,1002.108,-20.496
-45.628,979.416,8.54
-53.192,983.808,55.388
43.188,986.492,-5.612
43.676,1007.476,-10.004
48.068,992.104,8.784
40.748,1002.84,23.18
-20.252,981.612,48.556
-15.616,980.88,65.392
43.676,979.416,36.356
73.2,974.536,43.92
52.216,969.412,76.616
11.712,982.588,68.32
-15.86,957.944,75.396
18.544,970.876,66.612
59.536,982.588,30.988
61.732,1016.748,16.592
41.968,1007.964,28.548
7.076,992.104,63.928
-8.296,990.884,35.136
0.976,1002.84,15.372
44.896,1005.768,2.684
41.236,1017.236,43.92
45.628,1030.168,61.732
30.988,1016.016,80.032
5.612,1001.62,75.64
25.864,1000.4,64.172
67.1,1008.452,33.184
65.392,1010.404,36.6
42.944,991.616,49.532
11.468,976.244,79.056
17.812,975.512,77.592
38.308,981.124,37.576
47.336,983.564,31.232
37.332,980.636,36.112
0.976,973.804,50.752
-13.664,980.88,41.724
-20.252,966.972,45.872
2.684,991.616,50.264
38.552,998.204,29.28
26.596,992.836,50.752
19.764,992.836,60.512
8.784,990.884,61.976
14.152,1000.156,76.372
30.744,985.516,81.74
17.08,980.88,86.62
28.548,979.416,72.468
25.132,999.912,62.22
22.448,1003.816,51.728
20.008,1006.256,51.484
-11.224,994.3,67.832
7.564,979.416,60.756
8.784,985.272,74.176
24.156,996.008,76.372
29.768,1014.796,33.672
13.176,998.448,38.796
0.976,984.784,69.784
5.856,993.812,59.048
10.736,997.716,41.48
1.464,980.88,63.928
31.72,997.228,69.052
30.256,989.664,50.264
-11.956,977.708,70.272
-24.156,978.44,65.392
8.296,1003.816,27.816
-0.244,1013.82,15.616
-33.672,1022.848,11.468
-32.208,1005.768,30.988
-17.08,983.564,64.172
3.66,996.252,44.896
20.252,992.104,4.88
-9.272,985.028,42.944
-21.96,987.468,20.984
-22.936,988.932,3.904
-55.144,1019.92,-44.896
-97.6,1004.548,-41.724
-56.852,1022.116,-18.056
3.904,1045.296,-50.02
3.172,1003.084,-34.648
-50.508,969.9,25.376
-94.428,998.448,28.548
-78.812,1046.516,-27.816
-34.404,1064.572,-51.24
51.484,1028.216,-36.112
10.736,993.324,-8.052
-62.708,918.66,-3.172
-61.244,880.596,-7.808
-73.444,882.06,-8.784
-90.28,920.856,-68.564
-71.492,964.776,-173.24
-115.9,954.284,-157.38
-138.348,936.96,-125.172
-139.812,931.836,-93.452
-102.724,952.332,-85.644
-84.912,974.78,-79.544
-88.572,991.372,-88.572
-103.944,1023.824,-118.584
-103.944,1041.392,-94.428
-72.712,1059.448,-78.08
-55.876,1050.664,-58.804
-54.168,1041.148,-3.904
-12.444,1059.692,25.62
4.636,1091.168,35.136
-2.44,1097.512,27.328
73.444,1108.004,-46.116
60.024,1074.332,-53.436
15.86,1065.548,-18.788
-17.08,1075.308,8.784
91.988,1133.624,-4.148
214.232,963.068,-30.012
197.152,914.756,36.112
203.984,973.316,99.064
333.548,843.02,24.4
403.332,780.312,21.228
365.024,751.032,34.404
317.444,681.492,-20.74
433.588,618.54,-17.324
577.548,338.428,102.236
668.804,146.4,320.128
748.348,140.788,434.564
731.268,102.968,370.148
698.816,52.216,310.856
751.032,123.22,198.128
836.432,154.94,10.98
911.584,129.564,-72.468
748.348,37.82,73.444
587.796,26.596,263.032
628.544,33.184,243.512
580.72,61.244,64.172
634.4,9.516,-51.484
647.088,-37.332,-48.556
721.264,-81.252,-4.148
772.016,-177.632,15.372
788.608,-217.16,-45.14
801.296,-181.048,-124.44
930.372,-179.584,-193.248
1079.456,-194.224,-364.048
1093.12,-241.804,-369.416
990.396,-291.824,-270.84
1007.232,-345.992,-235.46
1074.576,-398.696,-261.08
1156.804,-413.824,-311.1
1211.46,-400.404,-322.812
1302.716,-440.908,-339.404
1298.568,-464.088,-371.124
1364.204,-478.24,-368.928
1458.876,-552.66,-391.132
1438.38,-538.752,-352.824
1397.632,-562.42,-314.76
1449.604,-519.72,-325.252
1565.748,-531.676,-434.564
1554.768,-573.156,-423.828
1396.412,-632.936,-193.98
1333.704,-667.584,-43.432
1372.744,-675.392,-20.496
1428.376,-641.476,-77.836
1407.88,-592.432,-108.58
1380.308,-584.136,-80.52
1373.964,-632.692,-28.548
1352.004,-628.788,36.6
1287.344,-602.68,46.36
1237.568,-556.32,45.384
1257.82,-520.696,38.064
1190.964,-504.104,49.044
1119.228,-475.068,97.844
1169.98,-430.172,90.036
1288.32,-379.176,-27.572
1314.672,-361.852,-57.584
1112.64,-360.388,32.94
825.208,-355.752,92.232
794.952,-289.384,132.98
657.336,-251.32,66.612
481.656,-93.94,8.784
346.236,-42.212,66.124
247.416,4.88,68.076
240.34,67.588,11.468
353.068,147.132,-109.8
293.044,186.904,-118.34
281.332,226.92,-51.24
460.672,232.776,-66.856
607.804,203.496,-112.24
735.66,222.528,-134.2
896.944,191.052,-136.396
1048.224,189.1,-178.12
1158.512,202.276,-151.768
1290.76,209.352,-69.052
1279.78,160.308,11.224
1039.928,144.692,-23.912
893.528,262.3,-129.564
971.852,418.948,-181.78
1041.88,406.504,-116.876
1087.264,395.28,-45.384
1101.66,383.08,-117.364
1019.188,548.756,-29.768
852.048,574.62,56.364
763.476,597.068,71.98
820.572,683.444,-34.648
762.744,704.916,-56.12
567.056,857.66,-27.572
607.56,840.824,-77.348
660.264,787.144,-44.408
538.752,832.04,60.024
390.644,882.304,136.396
439.932,1036.268,-9.516
463.6,895.968,-205.936
294.996,765.916,44.652
315.004,932.568,146.644
328.668,949.404,-24.156
76.86,891.82,1.464
-83.204,868.64,77.104
-15.128,958.676,74.42
28.06,958.92,-8.54
-71.736,915.244,34.16
-103.456,950.136,63.928
-128.1,987.712,-28.792
-226.676,896.212,4.636
-162.26,903.044,55.144
-105.652,972.34,68.808
-22.936,1000.156,-19.032
-46.604,952.82,25.132
-67.832,988.2,69.052
-126.636,997.472,4.392
-143.228,1000.156,-62.22
-60.512,998.936,-65.88
-51.24,998.204,-27.084
-68.564,1017.48,-6.344
-64.904,1031.388,-19.276
-77.592,1009.428,-30.012
-109.556,1010.16,-20.984
-79.3,1015.528,-32.696
-36.112,1009.184,-83.204
-95.404,981.612,-9.516
-94.672,965.02,14.64
-113.216,965.996,36.6
-146.644,960.628,20.74
-121.756,969.9,-50.508
-104.188,964.044,-80.276
-141.032,963.068,1.708
-162.992,967.216,46.604
-152.012,974.048,16.104
-123.22,989.664,-31.72
-154.696,980.636,0.732
-172.752,980.636,8.296
-147.376,1017.724,-62.22
-124.44,1006.5,-73.444
-110.044,991.372,-0.244
-139.08,958.92,59.78
-190.32,963.8,90.768
-212.768,975.512,19.764
-189.588,985.76,-40.748
-137.86,992.836,-97.356
-98.332,1014.552,-94.672
-133.956,979.172,-4.392
-142.984,961.604,103.7
-137.372,961.116,110.044
-156.16,975.268,31.72
-164.212,966.972,-22.936
-165.676,977.464,-23.912
-184.952,982.1,-6.832
-195.444,971.852,38.308
-206.18,958.676,68.808
-196.664,972.828,66.368
-161.528,967.948,36.112
-143.472,998.204,13.908
-144.448,976.488,-4.148
-172.752,980.636,36.112
-165.676,963.068,30.256
-144.936,970.632,2.196
-187.148,972.34,18.544
-191.296,990.884,37.088
-178.364,987.468,18.056
-174.46,990.396,37.332
-126.148,986.004,11.712
-120.048,968.68,30.988
-126.148,944.768,57.828
-107.848,937.936,86.376
-139.812,935.74,96.868
-163.724,970.388,66.856
-166.896,988.688,-0.732
-181.292,999.668,-32.696
-194.224,981.124,21.472
-207.4,975.268,93.452
-171.532,1000.644,60.268
-179.828,1001.62,16.592
-200.812,1014.552,8.784
-196.42,998.204,-6.344
-237.168,977.952,32.94
-241.56,985.028,29.036
-182.024,969.9,-20.252
-205.692,954.04,20.984
-186.172,958.188,36.6
-200.08,959.164,22.204
-224.48,953.552,-5.124
-218.868,953.796,-6.344
-232.044,945.744,-6.344
-247.172,936.472,4.392
-241.316,928.176,5.612
-219.844,933.3,-25.132
-280.844,928.42,10.004
-276.452,947.696,-12.2
-270.108,942.328,-24.644
-280.844,950.38,2.684
-263.032,965.02,-35.136
-239.852,985.516,-67.1
-203.984,963.068,-57.828
-247.172,953.064,47.092
-236.924,942.084,57.34
-216.428,961.36,28.548
-193.736,966.972,-14.396
-221.796,979.416,-4.148
-223.26,997.228,-24.4
-226.188,975.024,-9.516
-254.736,970.876,42.944
-240.096,966.484,12.932
-192.028,982.344,-58.56
-234.972,946.964,-29.28
-267.912,948.428,28.792
-256.688,948.916,-5.856
-266.936,952.576,-16.592
-259.372,949.648,-17.324
-245.952,944.036,-24.156
-252.052,938.424,-15.128
-271.572,935.74,2.684
-257.176,939.644,-11.956
-259.616,935.496,-15.86
-247.172,942.328,-31.476
-217.892,947.696,-50.02
-214.72,951.356,-23.424
-260.836,946.232,14.884
-263.276,941.108,-2.44
-246.44,935.252,-14.64
-212.28,940.132,-26.596
-224.724,941.596,-11.956
-237.412,944.524,-19.52
-257.42,950.868,-19.764
-246.196,955.992,-27.816
-223.748,957.7,-32.94
-223.992,954.04,-26.352
-229.604,949.16,-6.344
-226.188,946.964,-12.688
-236.924,943.792,-20.008
-235.948,954.528,-20.496
-193.248,973.316,-39.772
-205.692,981.124,-32.208
-222.04,979.66,-22.448
-231.312,979.66,-28.548
-226.188,983.076,-57.096
-240.096,957.7,-56.12
