acc_x[mg],acc_y[mg],acc_z[mg]
-4.148,946.232,-50.02
31.72,952.82,-52.704
-4.88,972.828,-56.364
-51.728,984.296,-54.168
-34.16,984.784,-60.756
-13.664,1000.156,-70.028
-14.884,1015.04,-71.736
19.276,1015.772,-68.32
10.98,1007.476,-57.584
-20.984,1003.816,-43.188
-27.572,1003.816,-38.796
-40.016,1000.4,-25.864
-42.944,1001.62,-22.448
-6.588,1006.744,-19.276
-6.832,997.228,-23.668
-34.404,992.104,-15.616
-21.228,1004.792,-27.572
-13.42,1015.528,-42.456
-15.128,1002.352,-34.648
-31.964,995.52,-32.696
-43.188,989.42,-34.648
-38.308,982.588,-31.232
-29.524,966.728,-44.896
-53.924,961.848,-44.652
-84.668,957.7,-29.28
-64.416,955.016,-28.304
-69.54,952.332,-39.528
-63.684,959.652,-26.596
-47.824,969.168,-14.64
-44.164,963.8,-29.28
-44.408,965.02,-40.504
-49.288,992.592,-35.136
-42.7,1003.084,-39.04
-60.024,995.276,-43.92
-52.948,988.688,-71.248
-69.784,991.128,-68.32
-77.104,998.936,-71.248
-89.06,994.056,-62.708
-97.356,983.808,-61.732
-117.852,979.416,-55.144
-103.456,977.952,-48.556
-83.204,976.488,-40.748
-106.14,983.076,-36.112
-70.76,985.272,-52.46
-72.956,982.344,-55.144
-103.7,991.86,-38.552
-79.544,976.488,-55.388
-71.492,1005.524,-56.608
-141.276,991.372,-48.068
-122.732,994.788,-39.04
-112.728,988.444,-31.964
-110.288,979.66,-46.116
-100.284,984.296,-55.388
-116.632,998.204,-42.456
-103.944,998.204,-39.772
-94.184,995.276,-47.58
-86.132,989.908,-55.388
-92.964,986.004,-50.996
-110.288,978.684,-31.232
-131.76,965.02,-21.96
-132.004,955.504,-30.744
-137.128,962.092,-29.524
-121.756,969.9,-38.064
-116.876,968.68,-42.944
-107.848,973.072,-60.268
-113.948,981.368,-61.976
-115.9,983.32,-71.248
-111.264,987.712,-69.784
-102.968,988.932,-63.928
-103.7,984.784,-67.832
-105.164,982.1,-62.952
-104.432,982.1,-57.34
-115.412,977.708,-46.36
-103.212,972.096,-47.092
-107.116,971.12,-39.04
-91.988,969.9,-43.92
-90.28,972.828,-42.7
-81.252,972.584,-43.676
-83.448,972.34,-45.872
-83.204,979.172,-40.992
-84.424,982.588,-39.04
-79.544,983.32,-44.164
-76.86,983.564,-46.604
-86.864,987.468,-45.872
-82.716,992.348,-50.264
-111.264,995.764,-36.844
-123.22,997.716,-41.236
-121.024,1000.644,-52.704
-148.596,1016.26,-45.872
-165.676,1031.144,-45.872
-174.704,1029.68,-60.024
-198.128,1036.024,-83.204
-211.548,1047.736,-82.472
-231.312,1059.692,-41.968
-203.984,1047.492,-27.084
-161.284,1026.508,-18.544
-145.424,1024.556,11.468
-140.056,1018.456,21.716
-125.416,1013.82,18.544
-120.048,1034.316,10.248
-110.776,1055.544,3.66
-107.116,1053.836,-21.716
-72.468,1038.464,-48.556
-58.804,1030.656,-43.432
-63.44,1019.676,-23.18
-77.592,991.128,0.732
-73.932,974.292,-27.816
-70.516,983.808,-64.66
-57.34,1000.888,-59.048
-53.924,996.984,-72.712
-39.528,999.912,-87.84
-84.912,1030.168,-47.824
-82.716,1028.216,-32.94
-91.988,1004.304,-40.26
-88.816,989.42,-91.5
-118.584,994.056,-76.616
-88.328,1014.552,-80.52
-79.788,1027.484,-71.492
-29.28,1022.36,-63.928
67.344,997.472,-115.168
42.456,991.86,-68.808
23.668,966.484,-58.804
-2.44,935.252,-30.012
79.788,915.488,-66.124
121.024,936.716,-80.032
156.648,962.336,-86.376
147.376,964.044,-74.908
97.112,935.984,-59.292
42.212,910.364,-51.728
-5.368,884.988,-49.776
43.676,875.472,-88.328
31.232,900.116,-81.984
38.552,919.636,-98.088
-18.544,933.788,-89.548
-36.356,947.208,-72.468
-41.724,960.14,-84.668
-30.256,978.196,-95.404
14.396,991.372,-111.508
28.06,1024.068,-109.8
-21.472,1042.612,-88.816
-8.052,1058.228,-73.688
-35.624,1083.848,-33.672
-28.06,1078.48,-86.376
142.496,1079.456,-107.116
167.628,1085.068,-67.588
166.896,1070.916,-64.172
217.16,1140.944,-116.876
286.212,1135.088,-147.62
217.648,1111.908,-189.832
232.776,995.764,-88.328
521.916,973.804,-81.252
795.196,834.724,-245.708
718.092,842.044,-288.652
518.256,776.408,30.256
570.472,665.876,220.088
780.8,508.252,205.692
960.384,348.92,83.692
1180.472,368.684,-209.352
971.852,426.512,-55.632
1002.84,369.904,-31.72
1057.008,325.74,-141.52
919.88,269.376,-0.488
1024.312,216.184,-11.468
930.372,155.672,87.596
874.984,98.332,126.392
902.8,82.716,147.62
831.064,110.288,118.584
779.092,163.724,101.26
772.26,168.848,101.016
728.34,166.652,73.688
653.432,191.052,32.696
539.972,197.64,80.276
503.372,159.088,111.996
525.332,139.324,81.252
523.624,129.32,50.02
473.36,97.844,27.328
291.824,139.324,-1.464
279.136,144.448,25.62
601.46,40.504,-68.32
860.588,-70.76,-152.012
921.1,-81.252,-238.388
868.152,-54.168,-240.096
825.208,-66.612,-299.876
1008.208,-129.32,-325.252
1230.98,-171.532,-372.344
1221.22,-181.292,-419.436
1153.876,-183.488,-343.796
1226.1,-203.496,-263.032
1313.208,-223.504,-217.892
1405.196,-243.268,-173.972
1503.04,-315.004,-62.22
1576.24,-391.864,60.268
1637.484,-410.896,103.944
1806.576,-443.592,162.26
1903.688,-495.076,248.88
1857.084,-557.54,318.42
1827.072,-600.484,381.86
1858.792,-616.344,449.936
1930.284,-619.272,441.152
1896.612,-662.704,462.868
1854.4,-695.644,474.824
1813.408,-704.916,507.032
1661.152,-668.56,461.16
1412.76,-601.216,406.016
1055.788,-490.44,308.66
386.984,-320.372,209.84
-15.372,-121.024,122.244
-218.624,6.1,62.952
-283.284,99.552,2.928
-200.324,177.632,-21.472
3.66,233.264,-108.58
238.632,257.42,-148.108
420.656,264.008,-141.764
517.036,213.256,-142.252
697.352,167.628,-63.684
816.18,123.708,0.976
930.616,94.672,-7.076
1052.86,80.032,3.172
1113.616,67.832,23.912
1145.092,49.532,42.7
1139.724,40.992,40.992
1151.924,55.632,69.784
1232.688,56.12,114.924
1165.1,13.908,108.336
1090.68,72.712,102.968
1088.484,118.096,97.112
1068.232,120.536,143.228
1003.816,119.56,156.892
989.664,154.452,142.008
1039.44,196.42,104.92
1020.164,234.728,19.276
930.372,277.916,46.36
914.756,272.06,101.26
900.116,310.856,103.944
956.48,349.896,61.244
951.6,379.176,78.812
918.904,403.332,83.692
853.268,417.728,151.768
868.884,423.828,169.092
993.568,379.664,64.172
998.692,470.188,47.336
845.216,519.964,111.752
802.76,548.756,118.34
766.16,565.104,126.636
807.884,597.556,85.888
856.196,631.472,53.192
752.252,689.544,112.484
694.424,699.304,151.768
684.664,703.696,147.132
734.44,715.164,73.932
714.92,760.304,66.856
689.544,791.048,33.672
620.492,798.612,25.376
534.848,844.24,52.948
551.928,847.9,69.784
490.44,840.092,72.956
467.26,867.176,76.616
525.576,882.792,3.172
410.896,900.604,40.504
275.72,952.332,107.116
256.2,974.536,82.96
338.428,923.784,14.396
290.604,956.724,44.164
228.384,984.296,71.736
200.324,938.912,73.932
151.036,972.828,-0.244
157.624,1003.084,9.516
54.656,1046.76,31.232
127.368,1018.456,0.976
42.456,1012.844,-1.708
107.848,1011.624,-10.736
61.488,1020.408,43.92
65.636,1017.724,35.868
29.28,997.96,50.996
31.476,986.736,46.848
48.8,973.56,29.036
90.768,997.96,5.368
120.536,1013.088,-16.592
103.212,1026.508,-28.304
82.228,1025.776,-17.568
78.08,1011.38,-10.98
85.4,1003.572,4.636
127.612,993.812,-17.324
130.54,1003.816,-18.3
126.636,1015.772,-15.372
83.204,1003.084,0.976
78.812,977.22,5.368
85.888,967.704,14.396
109.8,968.924,-1.952
127.612,977.22,4.392
97.6,990.884,16.104
73.932,986.492,8.296
88.328,982.588,9.028
132.98,987.712,-17.324
126.88,1008.208,-14.884
105.164,1005.768,-5.856
63.928,993.08,-4.636
86.864,976.976,-4.636
90.28,977.952,-9.516
112.728,983.32,-12.688
128.1,990.64,-8.052
109.8,988.2,10.736
101.748,987.956,15.128
90.036,991.616,13.176
104.92,996.252,8.54
134.688,993.08,-1.952
132.736,989.176,6.344
112.972,984.784,7.564
95.16,986.248,8.54
106.872,987.224,4.636
107.36,984.54,8.784
106.14,982.344,4.88
113.948,988.2,-4.636
117.852,998.204,-4.88
112.972,990.64,3.416
97.112,978.44,-6.344
99.552,967.948,-9.516
118.828,972.584,-10.98
113.216,984.052,-9.272
110.044,990.64,-16.104
92.964,984.54,-10.98
87.596,977.952,-2.684
108.336,977.952,-5.856
136.884,989.664,-17.568
130.54,998.692,-3.66
105.164,995.764,3.416
100.772,983.32,11.712
103.944,986.736,1.952
127.856,993.568,-5.612
127.368,997.716,-6.344
116.632,992.592,-4.88
96.624,993.08,-0.244
103.944,993.812,-2.196
106.384,993.08,-1.708
120.536,988.688,-6.344
111.264,987.956,1.952
113.216,989.664,1.464
102.968,994.056,7.564
101.016,993.812,20.496
94.916,993.08,23.668
112.972,998.936,21.228
138.104,1018.944,27.328
146.888,1036.512,40.016
126.392,1029.192,59.78
108.58,1015.04,71.248
104.188,995.764,80.764
112.24,994.056,82.472
108.58,997.228,86.62
108.336,982.832,74.908
91.012,980.88,84.424
87.596,983.32,74.176
95.404,988.2,63.928
103.944,990.64,59.292
103.944,998.692,55.632
93.94,1011.868,67.832
138.104,1015.772,53.68
147.376,1027.24,62.22
149.572,1017.236,60.268
141.764,995.032,51.484
132.248,973.804,44.652
115.168,965.508,37.332
134.688,973.316,22.936
126.392,976.0,29.524
124.928,964.288,4.392
86.62,968.436,-13.176
81.008,983.32,-22.936
92.476,995.52,-51.728
74.176,997.716,-62.708
66.856,994.788,-40.748
78.812,978.44,-53.436
70.028,964.532,-45.872
91.012,961.116,-52.704
94.916,968.68,-43.676
78.324,966.728,-42.456
51.972,941.352,-71.736
34.404,943.304,-89.06
36.356,965.264,-94.672
83.448,990.152,-114.436
50.996,1005.28,-131.516
83.448,1011.624,-107.848
82.472,996.496,-110.288
87.596,973.072,-132.736
67.832,980.636,-109.556
81.496,990.884,-77.348
92.232,988.2,-91.5
89.304,973.316,-100.772
81.496,969.168,-89.792
96.136,965.02,-97.356
68.564,969.412,-103.212
64.416,986.004,-101.504
70.76,1005.28,-96.624
120.536,1023.092,-101.748
136.884,1032.608,-79.3
130.784,1016.504,-50.752
112.972,982.588,-49.044
79.056,972.34,-33.672
93.452,990.884,-34.892
101.504,1009.428,-46.36
121.512,993.324,-57.096
114.436,971.852,-57.34
102.48,971.12,-52.704
123.464,992.836,-49.532
119.316,1011.38,-37.332
120.536,997.716,-53.68
118.34,994.056,-63.44
123.708,995.032,-46.848
137.372,990.152,-45.628
119.072,987.224,-30.744
105.896,992.348,-25.132
101.748,1006.988,-11.712
98.088,1006.744,-13.42
91.012,994.788,-11.712
135.176,991.86,-4.392
227.408,1025.044,-29.28
216.428,1084.092,-55.876
192.272,1100.44,-83.448
164.456,1097.512,-97.844
195.444,1101.66,-99.552
298.168,1053.592,-145.424
376.248,1057.984,-140.788
425.292,1004.304,-110.288
453.596,964.532,-117.608
435.052,961.36,-72.468
415.532,931.592,10.004
369.416,821.548,12.2
660.508,686.86,-34.16
805.444,616.1,14.884
650.992,585.844,79.3
879.864,535.824,183.976
823.256,349.408,234.24
956.724,223.748,103.456
1004.304,248.88,354.044
998.448,189.1,398.452
1046.76,140.544,261.324
941.596,170.312,255.468
1015.04,183.0,111.508
968.68,229.848,174.216
883.768,228.628,208.62
854.0,194.468,159.82
823.744,195.688,132.98
800.808,212.768,133.956
858.148,251.808,78.812
880.596,256.688,74.176
859.124,210.084,61.488
790.316,214.232,110.776
779.092,199.104,115.168
742.248,173.484,94.184
701.012,161.772,107.116
674.66,125.416,89.304
569.496,122.488,49.288
493.612,117.852,92.476
476.776,28.792,88.572
537.044,-31.476,59.536
634.4,-25.62,-28.06
735.416,0.0,-95.648
807.884,-32.696,-147.132
804.712,-67.344,-180.56
820.572,-53.924,-238.144
913.536,-95.648,-232.532
1097.512,-154.696,-230.336
1181.448,-184.464,-259.86
1289.54,-161.04,-323.544
1388.116,-117.608,-352.58
1510.36,-134.444,-347.212
1651.636,-187.636,-288.408
1724.836,-249.368,-184.708
1763.144,-273.524,-117.852
1725.324,-246.928,-126.148
1595.028,-238.876,-79.544
1636.996,-294.508,55.144
1830.732,-391.132,199.104
1955.416,-464.576,322.812
2082.296,-519.964,410.408
2259.928,-574.376,451.644
2246.02,-615.856,464.332
2010.316,-617.564,442.372
1649.928,-556.076,386.496
1112.396,-485.316,323.788
587.552,-362.096,244.732
249.612,-198.128,119.072
-46.36,-41.968,55.388
-199.836,58.072,21.96
-185.44,105.896,1.708
-6.832,148.84,-20.496
204.228,201.544,-64.416
354.776,227.164,-63.44
466.772,218.38,-53.436
639.036,211.792,-42.7
797.392,187.636,-25.132
921.1,179.584,-11.712
957.7,156.16,-8.784
1003.328,146.644,33.916
1066.036,137.616,49.776
1131.184,128.588,80.52
1174.616,118.34,140.544
1206.336,104.432,155.672
1250.744,110.776,197.64
1174.372,87.596,185.928
1033.584,104.676,186.172
1022.36,197.64,161.528
1019.676,243.512,119.56
984.784,277.184,102.724
936.228,314.76,70.76
860.588,363.072,90.28
816.912,378.688,142.984
952.332,396.988,61.244
1021.872,425.78,10.248
924.76,476.776,71.248
831.064,498.248,110.288
763.964,503.616,93.94
835.212,524.356,70.272
857.66,559.98,67.1
769.82,566.08,125.416
759.084,601.46,105.896
798.612,623.42,-4.392
679.052,668.804,47.824
599.264,702.72,121.756
691.984,706.624,49.044
773.236,756.156,-30.256
667.34,780.8,-34.404
563.884,825.696,-1.464
585.6,812.032,-12.444
626.104,841.8,-49.532
590.236,886.94,-54.412
517.036,905.24,5.368
454.328,890.112,12.932
454.572,875.96,2.928
452.132,893.528,16.104
451.156,907.924,-10.492
358.436,927.688,-8.296
289.384,960.14,-29.28
244.732,957.7,-62.952
238.388,972.584,2.928
274.744,986.004,-21.472
195.444,990.64,-48.8
183.0,1015.772,-6.832
192.516,1011.136,-45.384
127.368,996.74,-65.392
79.3,996.74,-48.556
64.66,985.272,-39.772
73.932,971.608,-47.824
53.924,975.024,-54.412
50.508,990.152,-69.296
49.044,1011.136,-51.24
40.504,1013.576,-45.872
49.288,1016.748,-86.132
60.024,1019.92,-75.64
90.036,1022.116,-57.584
72.224,1017.968,-59.292
71.736,998.936,-67.832
58.316,998.692,-59.78
64.172,995.52,-41.236
52.704,999.18,-13.908
52.704,988.444,-20.008
18.056,970.876,-22.204
61.0,967.704,-63.44
61.0,984.784,-50.752
65.636,1002.352,-55.388
60.268,998.448,-71.248
36.356,1001.376,-59.048
54.9,997.228,-65.392
37.088,993.568,-77.836
42.456,987.224,-61.0
30.744,991.616,-60.512
51.24,991.86,-74.42
76.128,996.984,-68.076
65.636,1004.06,-64.904
48.068,992.592,-51.972
66.124,985.028,-43.188
48.068,985.028,-41.968
49.776,979.904,-45.384
57.34,983.808,-48.8
60.024,984.54,-40.992
48.8,987.468,-42.7
53.192,990.152,-47.092
60.512,995.032,-48.8
68.564,1005.524,-49.532
66.612,1005.28,-57.828
75.884,998.692,-56.364
62.464,994.788,-47.824
55.144,982.1,-31.476
48.556,982.1,-34.404
59.536,987.468,-49.044
56.852,996.252,-49.288
64.416,992.348,-56.852
53.68,990.64,-60.756
20.008,985.272,-52.704
56.364,977.22,-61.0
41.236,982.344,-38.552
66.368,988.444,-50.752
50.02,985.272,-41.724
66.856,976.0,-51.972
70.76,981.612,-68.32
46.36,994.056,-47.092
46.116,984.54,-37.576
45.384,970.144,-43.92
49.532,974.292,-55.144
41.236,986.492,-65.636
43.676,988.688,-54.656
66.612,989.176,-57.584
34.892,995.032,-60.024
49.532,996.008,-65.392
57.828,991.372,-59.78
61.976,984.54,-64.66
48.312,987.712,-50.02
48.312,985.516,-62.22
60.512,985.028,-67.588
65.148,992.348,-54.9
69.052,993.08,-56.608
54.412,985.272,-54.168
56.364,985.76,-57.828
55.632,992.348,-55.632
55.632,994.056,-46.116
51.484,989.908,-52.216
57.34,992.836,-54.168
64.416,997.228,-48.556
62.464,1002.108,-62.708
70.516,1003.572,-57.584
66.612,1001.62,-60.024
58.072,996.496,-47.824
71.004,990.884,-64.66
66.612,994.056,-50.264
73.444,991.372,-45.14
67.588,987.468,-48.8
56.364,983.076,-50.264
65.88,980.148,-70.76
56.608,990.396,-66.124
60.024,984.54,-54.9
52.216,979.66,-59.292
66.612,986.248,-69.784
69.54,995.032,-69.54
72.712,992.348,-55.388
75.152,985.516,-54.9
53.68,980.392,-51.484
37.088,976.488,-49.044
56.608,976.976,-56.12
77.836,987.468,-58.56
80.032,1000.156,-59.048
72.712,1003.328,-46.848
52.948,999.912,-39.284
54.168,988.688,-52.46
57.828,991.616,-52.216
70.516,1001.864,-53.68
76.616,1002.84,-50.508
70.028,998.448,-43.188
40.504,991.86,-37.088
71.736,991.86,-50.752
66.856,997.96,-41.236
67.588,1002.352,-37.088
71.248,997.716,-32.452
69.54,994.056,-36.6
50.996,990.152,-19.764
57.096,987.468,-9.516
46.36,991.86,-9.516
60.512,1001.376,-7.808
76.128,1016.016,9.272
78.812,1016.504,11.956
53.924,1012.844,23.424
77.592,1007.232,20.252
74.176,1019.92,27.572
63.684,1024.8,38.064
82.228,1010.892,34.404
71.736,1009.428,34.404
60.268,1023.58,50.752
82.228,1020.408,48.312
88.084,1000.644,27.572
70.516,989.176,41.724
73.2,988.2,61.976
80.032,986.004,53.924
92.72,979.416,12.932
79.3,984.296,15.86
76.128,990.884,7.32
75.152,995.764,9.516
68.564,979.172,13.42
55.144,968.924,0.732
72.712,976.244,1.22
97.112,985.272,-0.976
81.252,983.564,-28.06
89.548,978.684,-26.108
91.5,978.196,-19.764
85.156,976.244,-43.92
72.468,964.532,-41.236
64.904,952.82,-32.208
50.508,955.504,-37.82
61.244,966.728,-29.768
66.368,968.924,-34.404
62.708,977.464,-35.624
84.424,980.392,-27.816
60.512,983.076,-5.124
42.7,994.544,-4.148
84.424,1002.84,-18.056
88.572,1006.988,-31.72
82.228,1011.38,-47.336
82.472,1011.624,-35.868
82.716,1016.016,-35.38
60.512,1006.988,-68.564
36.844,971.12,-81.74
32.452,954.772,-86.376
-13.42,986.004,-98.82
10.248,989.42,-115.168
52.216,978.928,-137.86
34.404,995.764,-137.128
40.016,1023.336,-114.924
99.552,1035.78,-79.544
114.68,1016.992,-104.676
94.672,1032.364,-96.136
125.172,1072.624,-90.036
131.028,1138.992,-60.268
92.476,1131.672,-26.84
172.02,1159.976,-119.072
298.168,1184.376,-134.444
290.36,1187.06,-93.452
380.64,1170.956,-74.176
442.372,1126.792,-28.792
271.084,1031.388,-41.968
421.388,919.88,-81.252
615.856,783.484,-90.524
904.996,659.776,-43.676
1036.756,607.316,67.344
804.468,490.196,272.06
752.496,339.16,275.72
1037.976,363.316,19.764
877.668,412.848,3.66
900.116,409.432,213.988
680.76,315.98,237.412
594.384,200.812,213.5
625.616,153.964,116.144
575.84,201.788,177.632
569.496,233.02,140.3
426.756,241.56,114.924
344.04,203.984,87.84
317.444,182.268,36.844
308.66,141.52,87.352
226.432,75.396,5.124
197.884,59.048,-4.88
335.744,9.516,-35.136
500.444,-101.504,-11.224
658.068,-229.604,-8.54
757.864,-274.988,-32.696
921.344,-293.532,-118.828
1076.04,-340.868,-51.24
1323.456,-355.508,-128.588
1580.632,-378.688,-220.576
1609.668,-392.108,-245.708
1650.904,-305.488,-247.416
1847.568,-232.044,-334.768
1911.252,-256.444,-262.544
2028.372,-306.708,-207.4
1954.928,-321.592,-150.792
1891.488,-384.056,13.664
1944.436,-506.056,217.16
2009.34,-621.712,416.996
2097.912,-685.152,507.52
2147.2,-736.88,625.372
2098.888,-797.148,732.488
1931.504,-847.412,782.508
1680.672,-857.904,771.528
1447.408,-763.476,604.876
905.728,-597.8,443.104
335.988,-417.484,283.284
-43.676,-276.696,189.588
-298.9,-94.428,65.88
-319.884,77.104,-23.424
-142.984,172.02,-75.884
102.968,194.224,-93.94
326.96,213.988,-95.16
495.32,230.092,-78.568
631.716,213.256,-40.504
741.028,183.732,40.504
848.388,177.144,46.116
830.82,148.596,121.756
871.324,112.728,154.696
932.08,95.648,196.42
956.48,91.988,221.552
1003.328,73.932,263.52
1076.284,56.608,306.952
1116.3,52.704,316.468
1067.012,61.488,305.732
1023.824,84.18,273.036
1057.74,120.048,224.724
1119.96,171.044,206.18
1106.54,170.068,272.06
1050.908,134.688,332.328
884.256,123.464,326.716
795.928,173.972,240.096
935.496,277.428,186.172
1044.564,347.212,166.896
996.74,343.308,203.984
892.064,305.732,239.12
797.148,331.84,198.372
807.396,367.22,145.424
939.4,425.78,133.956
1046.76,449.448,104.676
919.636,446.764,180.316
816.912,453.596,217.16
748.104,442.128,211.06
761.524,469.944,206.424
930.372,465.308,146.888
965.752,516.548,132.004
896.456,543.632,191.052
863.272,598.288,159.332
798.612,631.716,96.624
776.408,647.82,111.508
751.032,636.84,135.42
762.256,671.244,75.884
719.312,735.904,55.144
751.52,775.432,50.02
719.556,799.588,65.392
648.552,793.488,89.548
555.344,833.748,50.996
605.12,833.504,14.396
566.324,825.696,60.512
511.18,852.048,84.912
503.86,850.34,73.2
616.1,863.028,8.052
513.62,876.936,10.492
393.572,924.272,63.44
301.828,912.56,80.52
385.764,928.664,-58.072
279.38,953.064,-40.748
280.356,966.24,-47.824
311.588,981.856,-58.072
250.344,977.708,-16.104
283.772,1008.94,-57.584
183.244,1002.596,-39.284
166.408,984.54,-45.14
210.572,980.88,-75.64
168.848,985.516,-0.976
225.944,1003.816,-44.896
177.876,995.276,-65.392
124.196,996.984,-54.656
109.8,1003.816,-26.108
106.14,1003.572,-74.664
122.0,996.74,-74.664
79.788,998.204,-11.712
29.28,993.568,16.348
46.116,978.684,-24.644
38.308,961.848,1.22
45.384,971.12,8.296
74.42,983.076,-63.684
21.716,1000.156,-34.16
51.484,1008.452,-15.86
54.412,1013.82,-38.064
-11.224,1010.404,-14.396
24.644,1000.644,-19.032
75.152,993.568,-35.624
86.132,995.032,-44.408
105.896,1000.888,-40.992
62.22,1017.968,1.952
24.644,999.668,-0.976
27.328,979.66,-7.564
18.3,959.896,-18.544
61.244,958.188,-39.284
50.508,984.54,-11.712
59.292,999.18,12.444
39.284,996.74,14.152
30.012,986.98,-12.932
61.0,987.224,-39.284
46.604,992.836,-20.252
62.952,1001.62,-15.616
63.928,1000.4,-15.372
82.228,996.74,-27.572
54.9,1003.572,-28.792
33.184,995.032,5.124
45.872,980.148,-2.196
54.9,975.268,-22.936
44.896,981.612,-19.52
28.304,990.396,-3.904
41.48,995.52,-11.224
35.136,990.884,-30.5
21.472,991.128,-30.012
35.624,983.564,-18.056
42.7,988.444,-22.936
35.136,985.516,-30.012
43.432,981.612,-17.08
32.452,977.22,2.44
29.768,977.22,-6.1
37.82,981.124,-17.812
50.752,988.444,-22.448
67.588,987.224,-10.736
60.024,991.616,2.44
52.704,993.08,-6.588
56.852,991.128,-16.104
36.6,991.86,4.88
47.58,985.272,-4.636
53.68,990.64,-21.472
59.292,998.204,-8.296
61.0,996.008,14.884
44.652,990.152,0.732
24.156,977.708,-2.44
70.516,979.66,-15.86
73.688,996.74,-15.616
61.244,1012.6,-8.784
70.028,1011.624,0.244
68.564,1008.452,-9.76
54.412,998.936,-17.568
65.148,990.64,-9.516
64.904,986.492,2.196
55.632,987.468,5.856
56.852,982.1,1.708
60.512,979.66,0.488
60.512,985.028,-9.028
71.736,995.764,-22.936
66.856,996.496,-7.076
74.664,993.568,3.416
58.804,993.324,-14.152
52.948,990.152,-15.372
64.172,991.128,-16.104
69.54,998.936,-14.396
62.952,1004.304,-5.612
75.396,1002.108,4.392
78.812,996.984,6.344
63.196,995.276,14.884
71.736,990.64,26.596
77.836,982.832,23.668
81.008,986.492,15.372
71.736,992.104,14.884
79.544,990.152,5.612
72.956,993.08,19.52
82.96,987.224,16.836
90.768,980.636,-13.664
62.22,976.732,-10.004
72.712,987.468,-10.248
70.028,992.348,-9.028
62.464,995.764,-5.612
71.98,995.276,-5.124
90.768,996.496,1.708
72.468,991.616,21.228
84.424,986.248,0.244
71.736,987.956,-14.884
60.024,996.74,-21.716
67.1,1006.5,-15.128
65.148,1009.916,-24.4
92.964,1016.748,-53.436
87.352,1027.24,-18.3
92.476,1022.116,-3.904
59.292,1002.596,3.172
65.636,989.664,-4.392
108.336,992.104,-7.32
100.528,993.324,33.672
93.208,989.908,42.944
102.968,981.124,18.788
87.596,971.608,10.248
79.056,975.268,26.84
88.328,989.664,27.084
100.528,996.008,-9.028
78.324,1002.84,-25.62
75.884,1003.572,-38.308
71.248,996.252,-21.472
64.904,1008.208,-21.716
89.548,1007.232,-24.4
120.292,1005.768,-53.924
100.284,1021.14,-32.696
127.612,1034.804,-19.276
140.056,1031.876,-51.24
129.32,1019.92,-57.828
141.276,1008.696,-75.152
96.624,1006.5,-53.924
95.892,1000.156,-54.9
118.584,976.488,-97.112
77.592,968.924,-101.992
97.844,971.12,-68.076
125.172,961.848,-77.104
90.524,941.108,-85.4
63.684,912.56,-93.208
77.104,909.632,-124.928
49.532,934.032,-106.872
68.076,947.696,-107.604
48.556,961.116,-119.804
55.876,984.296,-143.96
51.24,1016.016,-133.956
87.108,1040.66,-96.38
160.796,1042.368,-87.84
185.928,1048.468,-93.208
175.436,1045.54,-127.124
182.024,1055.056,-129.808
135.42,1089.216,-60.756
81.008,1120.204,-64.172
122.732,1135.576,-132.736
230.092,1128.988,-149.816
166.896,1127.524,-111.508
136.64,1093.364,-94.428
381.86,1040.416,-131.028
382.836,1018.7,-147.132
244.732,987.468,-37.82
352.092,906.216,51.972
414.312,797.148,-1.464
517.036,644.404,-97.112
797.148,571.936,-108.092
752.984,579.012,16.104
854.0,499.468,181.78
836.432,381.86,374.784
948.184,235.216,80.276
1111.908,231.312,-56.608
868.884,261.08,227.652
897.432,254.248,232.288
902.312,249.368,80.764
836.188,274.744,73.932
778.116,267.424,166.164
782.02,229.36,189.344
705.404,200.324,147.62
633.912,199.836,123.952
648.796,211.06,107.848
615.124,222.284,140.788
618.784,209.596,129.564
579.744,167.14,73.2
526.064,166.164,60.756
553.148,130.54,107.36
619.76,47.58,95.648
675.148,16.348,18.056
678.808,11.468,-48.312
698.816,-9.272,-23.18
828.38,-86.62,-66.856
842.288,-147.864,-155.916
881.572,-99.552,-203.008
932.08,-96.136,-226.432
1066.524,-141.276,-273.28
1210.972,-167.384,-294.752
1302.472,-171.044,-304.512
1387.628,-189.1,-216.428
1539.884,-283.04,-114.192
1766.072,-337.208,-68.808
1869.04,-356.972,-15.372
1881.24,-378.688,39.528
1855.864,-383.324,108.824
1813.896,-403.82,182.512
1832.684,-458.964,272.792
1760.46,-510.204,334.768
1762.9,-512.644,383.324
1807.552,-535.824,412.36
1799.988,-544.852,441.64
1732.644,-548.756,449.448
1471.564,-562.176,511.424
1125.572,-534.36,503.616
841.068,-431.636,376.492
692.716,-291.58,207.644
356.972,-142.496,118.584
154.208,-16.348,9.272
-23.668,38.064,-13.176
-40.26,88.084,-55.388
204.96,132.492,-86.376
467.016,126.392,-76.128
641.72,135.176,-87.84
756.4,134.444,-76.372
826.428,124.196,-8.052
893.284,111.752,3.66
964.532,85.4,21.716
933.544,59.78,92.72
997.96,46.36,120.78
1083.848,39.528,180.56
1064.572,14.884,201.788
1139.48,32.208,226.676
1099.708,47.336,172.996
1150.46,96.624,202.764
1155.34,135.176,178.852
1106.296,155.428,146.156
1051.152,184.708,143.472
900.604,205.448,145.912
908.9,259.128,115.412
1042.368,313.052,94.916
1071.16,349.652,109.556
995.276,350.628,112.24
963.8,374.052,97.112
817.644,378.444,183.732
774.212,405.772,255.712
907.68,437.004,156.892
960.384,450.912,116.388
935.74,487.512,123.22
770.552,520.696,240.584
772.748,535.336,222.528
797.392,537.532,154.208
864.248,577.304,54.656
805.932,628.544,72.224
731.268,701.744,84.668
664.168,719.068,31.72
679.052,732.244,-41.724
707.356,819.84,-136.884
646.112,807.152,-69.296
565.348,827.648,-36.112
413.336,824.232,14.884
493.124,855.708,-49.288
580.232,893.04,-177.876
471.896,922.564,-41.724
401.868,920.612,-10.004
433.344,912.804,-68.808
430.66,929.152,-78.08
398.696,963.8,-20.74
422.364,952.576,17.324
321.836,936.96,-10.492
267.912,935.984,-9.76
289.872,935.008,18.544
284.992,958.92,52.216
222.772,968.436,18.544
198.616,975.512,2.196
187.148,978.196,-16.592
177.388,980.636,-5.856
152.256,992.592,-2.684
172.508,981.856,-29.768
129.076,975.756,-14.64
100.284,995.276,6.344
112.484,995.032,-5.612
82.472,979.66,-34.16
74.42,973.316,-12.688
62.464,975.024,4.148
81.252,967.948,-16.348
89.792,980.148,4.88
80.764,979.416,30.012
87.352,984.784,2.684
41.724,983.808,13.908
45.628,983.564,-5.856
120.048,999.912,-42.944
74.664,1011.38,-15.128
66.612,1020.652,-8.784
66.368,1020.896,-20.74
81.74,1011.624,-50.752
70.76,1005.768,-43.92
70.028,999.912,-36.6
84.424,1003.084,-27.816
70.516,998.692,-20.496
69.296,983.076,-22.936
48.068,981.368,-13.42
64.416,975.756,-19.52
62.952,969.412,-4.636
88.084,970.632,-27.328
95.892,978.928,-27.572
60.756,981.124,1.708
57.828,976.488,-7.564
47.336,968.68,-12.444
51.728,973.072,-49.044
54.9,975.512,-23.912
92.476,975.268,-22.204
82.228,981.612,2.44
69.784,977.708,22.448
86.132,968.68,-5.856
80.276,973.56,14.64
81.984,981.368,-5.856
86.132,984.296,-27.572
66.612,1002.596,-8.296
61.244,1007.232,-14.884
89.304,1000.156,-31.476
88.816,992.836,-40.016
83.936,996.984,-34.404
94.428,1003.816,-17.812
82.472,1007.232,-22.204
101.992,988.932,-30.5
94.916,983.808,-22.936
94.916,986.248,-35.136
102.724,990.884,-24.888
85.4,990.884,-28.548
77.836,981.856,-36.844
83.204,974.78,-22.204
84.912,988.2,-41.236
92.72,997.472,-46.604
105.896,1003.572,-22.448
96.38,1000.4,-26.84
88.328,988.932,-40.992
84.912,986.004,-21.472
95.892,985.028,-29.768
95.16,992.836,-26.352
99.796,997.472,-20.496
117.12,996.984,-24.156
96.136,992.104,-9.516
85.156,985.76,-8.784
98.088,982.344,-22.448
107.116,993.324,-30.744
98.576,998.448,-14.396
97.112,994.3,-13.176
101.26,989.42,-24.644
79.3,985.028,-18.788
99.308,984.296,-35.38
93.696,988.688,-15.128
102.48,991.372,-18.544
98.576,991.616,-19.276
91.5,996.252,-23.18
107.36,1001.62,-30.256
111.508,1006.988,-27.328
108.58,1004.06,-9.76
104.92,991.372,4.392
95.892,985.272,-11.956
95.16,981.856,-7.564
95.648,984.296,3.904
95.892,984.052,2.196
105.164,984.296,13.664
102.968,990.396,20.008
84.668,995.032,12.2
97.6,1000.888,21.228
129.076,1000.156,13.908
126.148,1001.376,15.616
120.292,992.104,20.496
111.752,980.636,34.892
110.532,976.976,10.492
100.772,979.416,7.564
104.432,982.344,12.444
98.576,989.176,13.176
103.212,987.956,-4.636
116.144,987.712,-18.3
109.068,1001.132,-17.812
87.352,1011.868,-13.176
115.9,1018.456,-15.616
126.392,1016.748,-14.64
114.192,1004.304,-14.396
110.532,994.3,-3.416
107.36,995.52,6.1
86.376,990.884,10.248
103.7,968.436,-18.788
86.376,968.436,8.784
120.048,964.532,17.568
105.896,960.384,1.952
107.116,962.092,-17.08
112.728,956.48,-4.392
119.316,962.58,-10.98
126.148,967.216,-22.936
116.876,963.312,-15.372
122.0,972.828,-15.616
120.292,989.42,-8.052
104.676,1005.28,-33.916
121.512,1016.992,-22.936
112.728,1040.66,-16.592
142.984,1049.2,-17.568
132.736,1026.752,-22.448
102.236,1015.528,0.244
125.66,1007.964,-7.32
101.992,1006.744,-22.692
84.18,993.568,1.464
119.316,984.296,-0.732
116.144,975.512,-12.444
89.304,972.34,-31.964
93.94,967.704,-37.82
113.46,980.392,-43.188
84.424,999.668,-48.312
117.852,1004.792,-27.816
153.72,984.54,-32.208
102.236,951.6,-25.62
72.712,939.644,3.172
94.672,952.088,-12.688
111.264,965.508,-59.048
85.644,967.704,-52.948
56.608,965.752,-44.652
54.412,976.732,-44.408
103.456,989.42,-72.956
91.5,999.668,-55.632
102.48,986.248,-47.336
96.38,979.904,-48.556
70.516,986.98,-50.996
69.296,1000.156,-61.0
76.86,1003.816,-60.268
102.48,993.08,-52.216
91.988,1000.644,-19.52
134.2,1002.84,-23.424
134.688,996.984,-23.912
82.96,977.464,-26.108
71.248,965.752,-13.176
88.084,984.784,-14.884
124.196,998.204,-39.772
132.492,1007.232,-11.956
137.372,1006.5,3.172
154.696,995.764,-4.392
135.664,990.396,1.22
117.364,984.052,14.64
135.664,986.248,11.956
128.588,991.128,13.908
107.848,999.18,10.492
111.508,1009.916,-2.928
120.536,1030.9,-6.832
124.44,1054.812,-22.692
31.964,1067.012,1.708
16.592,1079.456,-18.544
55.632,1076.04,7.808
94.184,1042.368,16.348
96.868,1016.26,-21.716
101.504,944.524,-32.94
263.52,901.58,-127.368
635.376,913.292,-292.556
670.756,881.816,-202.032
754.692,830.576,-74.908
796.172,678.808,-31.964
861.32,469.944,-31.72
968.924,302.56,-117.608
1172.664,346.236,23.18
1167.052,337.452,112.24
1080.676,280.6,206.18
1065.06,208.132,183.0
1001.864,118.34,87.108
968.68,133.224,189.344
966.484,139.812,145.912
923.54,133.468,109.8
923.296,162.504,72.712
854.0,182.268,44.408
783.24,181.048,113.948
755.18,117.364,116.388
720.776,92.964,91.5
638.304,111.996,103.7
641.72,134.2,71.98
580.964,116.144,58.56
482.632,85.4,70.028
426.756,91.5,73.444
398.208,22.204,84.668
505.812,-64.904,92.964
619.272,-143.96,89.304
689.788,-183.488,150.304
606.34,-217.404,45.384
527.04,-200.324,-4.392
831.796,-168.36,-113.704
1122.156,-189.588,-237.9
1251.72,-170.556,-298.656
1247.816,-99.064,-404.064
1318.576,-99.552,-333.792
1558.672,-210.084,-244.244
1777.296,-331.84,-189.1
1833.66,-427.0,-125.66
1758.264,-460.672,-66.124
1707.512,-442.616,-43.432
1673.596,-389.912,-49.532
1596.492,-374.296,-0.488
1568.432,-384.788,18.544
1559.16,-375.272,75.884
1633.092,-391.132,153.964
1763.876,-467.504,236.924
1884.656,-522.16,283.772
2026.908,-565.348,329.4
1991.772,-602.924,365.024
1727.52,-634.156,440.176
1305.644,-608.536,435.296
852.048,-503.616,421.388
482.144,-370.392,299.144
176.168,-212.036,220.088
-78.08,-53.436,132.98
-132.004,54.412,85.156
-63.928,99.796,21.472
102.724,125.904,-47.58
337.696,156.892,-103.7
584.38,182.024,-127.124
742.492,197.884,-134.444
800.808,192.272,-122.0
854.732,155.184,-63.44
926.224,118.096,32.452
972.828,101.26,49.532
974.536,79.056,65.148
1032.12,79.788,97.844
1108.004,86.864,100.04
1197.064,108.336,128.832
1154.364,91.5,116.876
1017.968,101.504,72.712
1101.416,164.7,120.536
1121.18,184.22,132.736
1093.12,191.54,135.42
1035.048,183.0,99.064
981.612,188.612,79.056
945.5,245.952,16.836
932.812,309.88,45.14
997.472,353.556,35.624
995.276,375.76,14.884
938.912,386.496,44.896
917.684,404.308,42.456
900.116,414.556,40.016
897.432,461.404,16.592
910.852,493.612,-1.708
884.744,518.988,47.092
822.524,551.196,47.336
814.96,585.356,-11.224
810.324,618.296,-72.956
808.128,664.412,-61.0
772.748,707.112,-44.164
751.276,721.02,-31.72
691.496,705.16,-4.636
668.56,740.052,-52.704
667.828,763.476,-111.264
780.556,769.332,-102.48
596.58,782.264,-23.18
519.964,792.756,-13.176
486.292,794.464,-24.156
557.784,821.792,-84.18
559.736,856.928,-86.132
436.76,898.408,-42.944
417.728,909.388,-43.188
411.14,916.22,-68.564
377.224,922.32,-127.612
307.196,971.608,-100.284
274.256,977.708,-78.568
257.176,977.464,-85.156
222.528,964.288,-61.244
231.8,957.944,-87.108
163.724,991.616,-118.34
211.548,990.64,-76.128
181.536,989.42,-36.356
156.16,998.448,-52.216
130.052,985.516,-29.036
134.932,970.876,-24.644
102.48,979.416,-33.184
165.676,980.148,-36.356
132.736,983.808,6.588
74.42,983.808,8.784
82.716,972.584,-36.844
76.372,964.776,-45.872
125.416,985.76,-57.828
107.604,993.568,-9.516
133.712,998.204,-23.424
93.452,993.812,-30.012
66.612,988.2,-35.136
103.212,987.712,-53.192
106.628,992.104,-34.648
95.892,980.392,-4.88
43.92,967.216,13.176
119.072,964.044,-28.792
101.748,981.368,-22.692
100.284,992.104,-21.716
105.896,998.204,-27.084
63.196,996.252,-15.86
69.052,982.588,-34.404
102.968,984.296,-56.608
135.908,997.228,-53.192
118.096,1007.476,-19.276
106.384,1004.792,-25.376
85.156,986.736,-43.676
79.056,970.632,-43.432
99.064,970.388,-35.38
117.364,972.096,-35.136
121.268,978.196,-35.624
111.996,984.052,-34.892
95.16,976.732,-34.16
91.012,976.732,-45.872
96.624,984.052,-45.872
113.46,987.956,-54.656
101.748,984.296,-31.964
97.844,981.612,-35.868
109.556,983.076,-42.944
102.236,986.736,-46.36
103.456,994.3,-37.82
96.38,996.74,-30.5
92.964,994.788,-34.892
115.412,990.152,-41.48
111.02,990.152,-40.992
116.144,1000.156,-35.868
122.0,1005.768,-48.312
76.372,1004.06,-48.556
83.692,998.936,-47.58
125.904,997.228,-41.48
126.148,991.128,-39.528
92.72,987.956,-37.088
92.964,986.736,-46.848
105.164,982.588,-46.36
81.496,982.1,-22.204
134.688,984.052,-36.356
105.408,979.904,-42.212
102.968,986.004,-39.772
107.848,992.836,-38.064
91.5,994.056,-36.6
87.84,990.152,-37.088
112.972,994.788,-55.632
111.996,996.496,-38.064
107.116,1002.108,-20.252
115.656,997.472,-27.572
91.256,988.688,-32.696
93.94,986.98,-38.064
98.82,993.08,-42.212
99.552,997.96,-37.576
103.456,993.08,-44.408
96.38,986.248,-32.208
90.768,980.88,-33.672
101.504,983.808,-44.408
123.22,993.324,-53.436
99.308,998.448,-33.428
96.868,991.372,-28.304
88.816,977.952,-32.696
87.596,970.388,-38.308
106.14,977.464,-37.576
116.876,989.664,-26.352
109.8,988.688,-24.888
92.72,984.296,-22.936
87.108,984.784,-22.936
85.156,975.024,-25.132
94.916,979.66,-32.94
95.648,990.64,-24.156
110.532,998.204,-21.96
106.14,998.448,-21.472
107.36,995.764,-20.496
96.136,994.3,-12.932
106.384,985.516,-20.496
101.748,987.224,-11.956
103.456,989.176,-7.32
110.776,991.616,-9.516
104.92,995.032,-10.004
95.648,990.396,-6.832
99.796,989.42,-15.128
104.432,1000.4,-10.98
110.776,1001.132,-8.296
124.928,1002.596,-17.08
97.112,989.42,-4.392
93.452,972.584,-8.052
75.884,957.944,-10.98
123.708,967.46,-41.48
85.644,976.0,-6.1
104.676,993.812,6.832
119.316,988.444,3.416
105.896,978.928,-10.98
105.164,983.076,-22.692
94.428,982.832,4.148
86.62,985.272,16.592
75.152,985.028,17.568
121.024,987.956,-6.832
134.688,1005.524,-2.44
116.632,1007.72,9.272
122.0,994.3,20.008
102.48,986.98,-2.928
90.036,980.636,-13.664
88.328,987.712,5.856
116.144,1002.596,24.888
107.848,1008.208,14.64
111.752,1020.896,5.856
119.56,1043.344,11.956
135.908,1047.98,24.156
132.004,1036.512,27.816
116.144,1019.432,37.088
153.964,1007.964,19.764
163.968,1005.768,0.0
137.372,993.568,0.0
88.816,964.532,15.86
87.84,950.624,-3.904
30.5,939.888,-8.052
20.252,944.28,-6.344
61.244,968.192,-6.344
123.708,984.296,-3.904
142.008,990.396,8.54
136.396,989.908,19.764
163.48,984.784,5.856
155.428,970.876,-37.332
134.688,946.964,-26.84
123.708,932.812,-20.252
106.384,931.348,-45.14
93.452,938.668,-84.912
37.82,952.088,-88.084
33.428,975.268,-93.94
79.056,1002.352,-130.052
100.772,1015.528,-115.9
101.016,1008.696,-86.132
86.132,995.276,-90.28
72.468,976.244,-98.088
59.536,970.876,-96.38
56.12,986.248,-86.132
69.296,998.692,-110.532
75.884,1010.404,-134.2
52.216,1014.552,-108.336
64.416,1010.648,-124.196
84.668,1018.212,-101.748
89.548,1025.044,-69.54
102.724,1008.94,-73.2
97.6,996.252,-64.66
80.764,993.08,-52.948
98.576,1003.572,-61.732
97.112,1008.696,-55.144
90.524,1005.524,-40.016
92.476,1008.452,-52.216
102.968,1033.096,-72.468
121.756,1068.232,-69.052
185.684,1101.416,-52.704
202.032,1141.188,-19.276
212.28,1140.456,-2.684
273.524,1133.38,-11.712
187.636,1221.22,16.836
-20.252,1191.696,115.656
406.992,1136.064,-201.056
712.968,1160.464,-274.256
410.408,1132.892,-89.548
300.608,1012.356,-99.796
319.396,886.696,-70.272
558.272,776.652,-88.572
650.504,670.756,-108.58
766.648,631.96,-91.988
736.88,621.224,3.172
665.632,569.008,84.668
518.744,463.844,149.572
510.448,337.94,226.676
587.308,318.908,244.0
574.376,191.784,152.256
567.544,204.228,182.756
579.256,220.82,162.992
472.872,178.852,140.788
436.76,177.632,110.044
388.204,131.272,103.212
422.608,82.228,39.04
352.824,28.548,2.928
343.552,10.004,-72.956
259.128,-17.324,-172.508
91.5,-27.328,-286.944
274.012,-82.96,-289.872
631.228,-221.064,-346.236
1056.52,-342.332,-376.98
1383.724,-370.392,-433.588
1583.56,-341.112,-531.92
1717.028,-353.556,-523.868
1743.136,-468.48,-428.708
1739.232,-558.272,-327.692
1840.736,-569.74,-290.116
1910.032,-601.948,-199.348
2082.784,-642.94,-80.276
2196.244,-669.048,13.908
2216.984,-719.068,174.46
2218.936,-781.532,304.756
2227.964,-829.356,402.6
2255.536,-879.62,485.804
2145.248,-900.116,518.5
1875.872,-889.38,490.684
1541.836,-830.82,522.16
991.86,-710.04,487.512
260.104,-505.324,382.592
-208.376,-269.376,209.84
-202.276,-27.572,-60.756
-130.784,177.388,-280.356
-20.496,267.18,-423.828
187.88,265.228,-399.184
419.436,224.724,-310.612
508.252,180.804,-203.74
447.984,180.804,-141.52
473.116,188.856,-86.132
641.476,145.424,6.344
788.364,90.768,60.268
887.428,88.084,55.876
1026.508,109.556,57.34
1111.176,101.26,85.888
1111.42,95.16,112.24
1135.088,114.436,109.8
1138.26,118.34,149.572
1144.848,94.428,200.08
1035.292,61.976,180.316
1015.528,115.656,151.28
1097.756,153.232,142.984
1089.46,156.404,173.972
1056.276,140.788,231.312
1012.356,150.792,214.964
949.404,223.016,84.424
949.16,323.544,30.5
938.18,356.728,34.404
902.312,339.16,93.208
896.7,323.056,147.864
902.068,335.988,169.336
906.216,370.636,139.568
910.608,412.848,95.648
838.384,451.888,83.448
760.06,477.264,102.48
786.656,495.076,87.596
816.668,455.548,57.584
813.008,406.748,-14.152
825.208,734.928,63.44
742.004,685.396,72.224
660.508,696.62,80.52
699.548,681.004,57.828
752.496,698.084,-17.324
670.512,829.112,-0.244
565.104,843.996,48.068
615.124,833.016,-37.576
587.796,871.324,-60.512
517.28,930.372,-58.804
419.192,983.564,-46.604
380.64,1011.868,-50.264
457.012,999.424,-41.968
519.72,1010.892,-60.024
305.732,1046.76,-31.232
263.032,1044.564,-23.668
289.872,1003.084,-24.4
239.852,996.74,-15.616
202.276,985.272,6.832
227.652,966.728,-24.4
202.52,971.12,-38.308
134.444,962.092,3.172
143.472,971.12,25.62
123.22,995.276,-22.204
136.884,1010.892,-49.776
164.212,1045.052,-76.128
139.324,1053.348,-43.676
123.464,1028.216,-32.452
105.896,1007.964,-14.396
98.088,982.832,-21.716
105.164,975.756,-0.488
101.016,967.704,58.804
98.088,957.944,61.488
86.864,941.596,33.672
124.928,970.144,51.484
120.292,985.516,65.148
108.58,986.492,8.052
100.04,976.244,-2.928
92.232,969.656,-20.252
68.076,963.068,-27.816
68.564,953.308,-47.824
31.72,953.552,-41.236
32.452,963.068,-42.7
26.596,958.676,-37.332
33.184,943.792,-50.996
10.248,935.74,-54.656
-3.416,947.696,-54.656
-25.376,963.312,-50.752
-9.516,968.68,-57.828
-34.648,981.368,-84.668
-35.38,1001.62,-93.94
-28.304,1009.916,-86.376
6.344,1011.136,-93.452
-9.272,1006.256,-96.38
-23.424,1005.036,-57.584
-12.2,996.252,-80.032
6.832,991.86,-89.548
17.08,996.496,-74.664
20.008,1003.084,-72.956
-26.596,1001.864,-55.388
-37.576,988.444,-51.484
-76.86,991.616,-55.144
-67.344,1001.132,-93.94
-51.728,1013.088,-121.512
-31.232,1026.996,-135.176
-62.464,1036.268,-102.48
-95.648,1017.48,-91.012
-106.384,988.688,-99.308
-91.5,976.976,-83.692
-69.052,979.416,-53.924
-68.076,968.436,-26.596
-72.224,966.484,-34.404
-85.888,979.904,-22.692
-80.52,1002.596,-31.232
-91.012,1007.964,-20.74
-101.992,1014.308,-40.016
-100.528,1023.092,-45.872
-78.324,1031.632,-67.1
-96.624,1040.904,-49.776
-105.652,1025.288,-48.068
-105.896,998.204,-35.136
-97.844,972.34,-27.816
-81.496,969.168,-29.28
-53.924,970.144,-11.468
-73.688,966.24,-22.936
-70.272,959.652,-41.968
-67.832,964.044,-31.72
-67.1,968.436,-45.384
-50.752,976.732,-70.76
-63.44,992.836,-55.388
-67.832,997.472,-50.752
-79.788,991.86,-63.44
-75.884,986.248,-78.812
-88.816,983.808,-90.768
-80.276,984.052,-106.628
-77.104,982.1,-100.284
-66.368,984.784,-69.296
-50.508,981.124,-61.244
-36.844,977.464,-57.096
-48.312,970.144,-34.404
-54.9,972.096,-34.648
-32.208,979.904,-59.536
-21.228,992.104,-46.116
-16.592,989.42,-43.676
-22.204,980.88,-40.016
-28.792,976.732,-31.476
-30.744,975.512,-41.724
-8.296,983.564,-43.92
0.976,991.616,-36.6
-7.076,987.468,-25.62
-4.148,972.828,-21.716
13.42,974.78,-25.376
5.856,993.568,-4.148
17.324,1002.352,-14.884
6.344,1002.596,-28.06
-9.516,996.252,-25.132
-18.3,1002.352,-45.14
-0.976,1017.48,-60.024
-16.104,1019.432,-55.876
-24.644,1009.184,-46.116
-26.352,995.032,-42.456
-7.564,997.472,-38.064
7.564,1003.328,-29.768
6.1,1005.524,-26.352
0.0,997.716,-18.788
3.172,990.884,-24.888
-0.244,989.176,-26.84
9.028,986.492,-16.104
-0.976,976.732,-15.616
-11.956,974.78,-8.784
-11.224,987.468,-18.544
-17.812,1003.572,-23.18
13.176,1019.188,-32.696
20.984,1026.264,-26.596
7.564,1015.772,-4.88
-11.956,997.716,-5.124
-20.984,986.492,-3.172
-21.228,993.568,12.688
-1.952,1003.816,12.688
11.956,1013.576,-1.952
13.42,1017.48,-2.196
18.056,1016.504,21.716
5.612,1004.06,40.26
13.908,992.836,11.956
11.712,998.448,4.636
17.08,1008.94,-9.028
1.952,1013.576,-9.516
-15.86,1009.184,2.928
-21.716,1002.352,-4.636
-10.98,1004.06,-8.784
13.908,1005.036,-16.104
33.428,1009.428,-14.884
22.448,1008.208,11.712
21.716,991.86,11.224
-11.956,974.536,13.664
-26.352,976.488,41.236
9.76,980.88,1.708
17.568,986.004,-40.26
0.0,992.836,-23.668
11.712,980.636,-18.3
-37.088,963.312,-5.612
-47.824,967.704,-18.544
4.636,984.784,-50.996
11.468,991.372,-75.64
-14.64,981.368,-75.152
-45.872,961.36,-69.54
-54.9,946.964,-71.736
-18.544,940.62,-72.224
-25.132,945.744,-98.332
-34.16,938.912,-110.044
-39.04,939.4,-110.288
-7.564,961.36,-130.54
-12.932,986.98,-142.984
-12.2,1003.328,-133.956
-8.784,1002.352,-122.244
-38.064,998.448,-117.12
0.488,999.668,-133.224
38.796,1007.476,-138.592
57.34,1014.796,-123.708
40.504,1021.14,-103.212
12.688,1034.072,-90.768
18.788,1031.388,-95.16
26.108,1030.412,-85.644
65.148,1026.02,-92.964
113.704,1046.76,-78.324
155.184,1068.964,-83.204
180.072,1077.26,-65.636
202.276,1089.216,-10.492
116.388,1106.54,56.608
137.86,1088.972,4.392
280.844,1097.268,-1.708
279.136,1100.196,52.46
346.236,1072.624,-59.536
545.828,1032.852,-130.296
631.716,930.616,-153.476
834.968,885.232,-200.812
740.052,799.1,-42.212
703.94,657.092,-27.084
795.196,561.688,75.64
991.86,503.372,155.672
1002.596,421.144,109.068
946.232,322.812,233.996
943.792,228.872,275.964
971.852,178.364,263.032
839.36,139.812,263.276
872.544,150.304,221.308
803.248,158.356,213.744
686.86,146.888,228.872
587.796,124.684,226.676
510.936,149.328,234.972
389.668,163.48,192.516
315.736,207.156,139.08
249.124,219.112,102.236
237.9,196.664,67.1
154.452,138.836,32.94
46.36,90.524,-9.76
-29.036,53.436,-57.096
-101.016,-13.664,-112.484
60.268,-109.8,-205.204
312.564,-214.476,-392.596
414.8,-271.084,-492.148
482.632,-294.264,-574.62
718.336,-376.248,-619.028
1203.652,-526.796,-679.54
1907.836,-660.508,-766.648
2257.976,-776.164,-684.664
2395.592,-892.308,-485.316
2540.528,-1012.356,-325.496
2613.24,-1103.856,-189.588
2670.336,-1137.04,-85.4
2592.012,-1175.836,78.568
2460.984,-1200.968,202.032
2314.584,-1162.416,274.5
2198.684,-1141.92,319.64
2115.48,-1124.596,434.076
1924.428,-1105.564,519.72
1597.956,-1039.44,520.94
1261.48,-890.112,510.448
991.86,-747.616,470.432
499.712,-605.364,421.876
100.528,-443.836,375.272
-193.248,-321.104,339.16
-471.896,-147.132,193.736
-464.82,42.212,69.052
-311.1,129.076,-24.4
-136.64,178.852,-127.856
173.728,261.324,-205.204
408.7,273.524,-218.136
544.364,186.904,-111.752
664.168,137.372,-47.58
814.96,107.36,7.564
965.508,45.14,22.448
973.072,30.256,51.728
1059.448,35.624,84.668
1153.876,43.92,135.176
1247.084,44.896,160.308
1114.104,15.616,78.568
1049.2,144.692,37.088
1189.012,205.936,8.052
1152.656,144.936,97.844
1122.888,104.188,155.672
1101.66,117.852,131.272
1110.444,189.832,105.896
1059.448,296.704,-4.148
938.912,325.74,-64.416
842.288,337.208,-16.592
851.804,357.46,2.44
948.916,345.016,11.224
950.624,388.936,101.504
888.892,422.364,141.764
871.08,435.784,61.244
867.908,481.656,27.572
859.124,534.604,47.824
893.284,582.428,10.736
888.648,656.848,-45.628
764.208,684.42,-22.204
684.664,708.332,-29.036
727.12,719.068,-52.216
710.772,750.3,-44.408
774.456,776.896,-85.156
699.06,785.436,-68.564
564.128,797.392,-36.6
530.456,813.984,-29.036
593.164,862.052,-82.472
549.976,882.792,-108.824
534.604,909.876,-114.68
458.476,915.488,-99.796
367.464,923.296,-48.8
380.64,908.656,-64.172
287.188,916.708,-42.944
195.932,938.668,-47.824
164.212,946.476,-78.324
92.72,981.612,-87.84
101.748,1012.6,-64.172
61.0,1023.824,-63.196
20.496,1003.816,-101.748
-12.444,999.912,-73.444
-43.188,987.224,-13.176
-19.276,963.8,-52.704
-40.504,953.552,-20.252
-10.492,954.772,7.808
-54.656,959.652,25.376
-76.86,955.504,-14.64
-56.852,973.316,-28.06
-77.836,999.668,-13.42
-39.04,998.448,-40.26
-40.016,987.468,-50.508
-65.392,986.492,-40.26
-57.096,991.128,-41.968
-41.968,992.348,-51.728
-62.708,993.08,-38.308
-39.284,987.712,-38.552
-3.416,987.468,-37.82
-3.904,993.324,-23.424
8.052,997.228,-27.572
-1.22,990.884,-50.752
-51.24,1005.28,-66.856
-35.868,1011.624,-56.364
-25.132,1008.94,-67.1
-17.568,998.692,-58.072
-15.372,985.516,-47.336
-44.896,980.148,-56.364
-25.376,987.956,-68.076
-23.668,999.18,-68.076
-39.04,1006.256,-80.764
-37.332,993.568,-66.124
-29.768,987.468,-54.9
17.568,987.468,-48.556
20.74,985.028,-17.324
10.004,971.852,-7.808
-0.488,956.236,-20.008
-8.784,967.216,-30.012
-10.248,989.908,-60.268
4.88,1002.84,-68.564
8.296,992.836,-51.728
-8.784,978.928,-27.328
-32.208,973.56,-25.62
-16.836,981.612,-61.732
-12.2,1004.548,-77.592
4.636,1021.872,-74.664
5.368,1017.48,-63.684
-5.368,992.104,-47.092
-7.076,981.856,-35.136
5.612,990.396,-30.988
21.96,994.3,-28.792
18.056,995.764,-30.988
-4.88,992.592,-29.524
1.464,992.104,-36.6
24.156,999.668,-43.676
14.396,997.716,-27.572
-11.468,986.004,-44.164
-3.904,985.76,-39.284
6.832,998.204,-39.284
11.712,1003.572,-41.236
-0.488,994.3,-28.548
19.032,978.928,-23.912
9.516,970.876,-27.328
-3.416,975.512,-17.568
-9.76,987.224,-42.212
-13.42,991.128,-37.332
1.708,992.348,-31.232
8.052,979.416,-35.38
38.552,980.88,-32.696
11.224,982.1,-19.52
-5.124,977.708,-15.372
0.976,976.244,-15.616
29.036,990.884,-28.06
17.568,1006.012,-26.352
11.468,1006.012,-21.96
6.832,996.984,-17.812
15.616,989.908,-10.248
13.908,989.42,-1.22
40.016,996.008,-2.928
11.712,1002.108,7.076
17.324,1002.596,-2.928
20.74,1008.696,8.296
20.008,1007.964,8.296
9.272,996.252,1.952
31.476,991.128,0.488
6.832,992.836,20.496
9.76,990.884,30.012
31.964,984.54,31.72
26.352,984.54,26.352
15.616,979.172,28.548
8.052,966.728,44.652
8.296,951.844,51.728
32.208,962.336,33.916
43.432,992.348,19.032
31.72,1012.6,0.732
22.204,1009.428,-7.076
5.368,993.568,-9.028
3.172,983.808,-13.42
15.616,984.54,-35.868
13.176,984.784,-34.648
12.444,978.928,-30.012
11.956,980.392,-32.452
14.64,984.052,-48.8
19.52,997.472,-52.46
13.42,1013.088,-50.264
9.028,1014.796,-46.116
18.3,1005.524,-53.924
33.184,1007.232,-65.148
23.668,1008.696,-57.34
14.396,997.716,-46.36
1.708,986.004,-31.476
19.764,990.64,-39.04
41.724,997.96,-44.652
31.232,1003.816,-54.9
1.464,989.664,-37.82
0.976,980.636,-44.652
3.172,982.344,-50.02
-1.464,988.932,-47.092
7.076,1014.308,-53.68
28.304,1047.98,-74.176
40.748,1049.688,-87.352
33.428,1030.168,-65.88
7.32,998.448,-52.216
-11.224,977.952,-42.212
17.812,973.56,-38.308
21.96,987.224,-35.38
14.152,997.472,-30.5
45.384,1011.38,-32.696
46.116,1012.356,-40.992
13.176,1004.06,-53.68
7.564,993.812,-60.268
-7.808,977.708,-78.08
-59.78,959.896,-84.912
-63.196,956.236,-81.74
-10.736,967.46,-103.7
-8.54,977.708,-119.56
-40.992,977.22,-103.7
-50.996,984.052,-104.432
-31.476,1005.036,-125.66
1.952,1003.084,-127.124
-26.84,991.372,-93.208
-27.816,987.224,-75.64
-29.768,999.424,-56.852
-39.772,1015.284,-65.636
5.856,1039.44,-80.52
74.42,1052.372,-75.64
187.636,1063.352,-46.36
187.392,1049.444,8.54
191.052,1028.704,-11.956
132.98,1032.608,21.716
83.448,1019.92,21.228
150.548,1062.62,19.276
263.52,1018.944,-3.904
367.952,1027.728,37.332
510.936,988.2,-15.128
662.948,993.568,-50.264
559.004,885.72,-43.92
576.328,775.92,1.464
661.24,714.188,26.84
659.044,639.524,122.244
857.66,503.86,250.344
729.804,413.336,289.14
891.088,372.832,257.42
973.316,393.328,228.384
919.392,335.012,198.86
797.148,301.096,341.112
707.356,243.024,350.628
852.536,266.936,57.096
762.5,212.524,181.048
597.556,143.96,381.86
715.896,69.54,287.188
637.816,-32.696,154.696
565.104,21.472,153.964
508.984,65.88,107.604
400.16,108.824,50.02
342.82,91.256,43.432
270.596,-19.52,47.336
261.568,-69.052,5.856
398.452,-61.244,-167.384
371.368,-39.528,-280.112
282.308,-40.504,-219.356
497.516,-59.292,-347.456
697.108,-96.38,-473.116
906.46,-101.748,-568.276
1075.796,20.008,-702.964
1107.028,-30.988,-587.796
1377.868,-227.164,-505.324
1640.412,-428.22,-541.192
1644.804,-545.34,-458.476
1608.936,-723.704,-217.648
1752.652,-892.308,-107.116
2126.216,-935.74,-149.816
2409.744,-1074.576,-159.82
2507.1,-1182.668,-8.54
2403.888,-1293.932,190.564
2195.024,-1400.56,403.332
2119.872,-1492.06,484.584
1822.192,-1491.328,566.568
1722.152,-1381.284,501.908
1489.132,-1223.416,410.896
1115.324,-1094.096,367.464
828.868,-907.436,290.848
533.384,-674.66,197.396
262.788,-473.604,132.492
-85.156,-254.736,19.032
-233.752,-33.672,-5.368
-233.02,113.704,-5.856
-89.548,193.004,-50.508
24.888,183.976,-16.104
143.716,182.024,-44.652
433.588,210.328,-91.744
678.564,189.1,-144.204
649.528,165.676,-76.128
925.98,144.936,-51.484
922.808,115.656,2.196
1016.504,118.828,46.848
934.032,156.404,-34.892
1013.82,223.016,-11.712
1104.1,229.848,1.22
1050.664,262.788,40.504
986.736,298.9,30.012
922.076,372.832,-27.084
889.136,411.384,21.96
925.492,443.592,-5.124
846.192,522.648,-17.324
762.744,558.028,77.104
773.968,555.832,124.44
830.82,562.176,43.92
842.288,663.68,-92.964
753.228,728.584,-55.632
621.712,705.16,65.392
591.944,760.548,46.604
560.712,870.104,3.172
590.236,903.044,-84.912
620.492,954.284,-89.548
559.004,944.28,-20.74
551.684,959.896,-61.0
437.248,930.86,-69.296
351.36,948.672,-117.12
275.476,934.764,-112.484
258.64,918.66,-69.54
296.216,979.416,-108.824
258.396,986.98,-67.588
244.244,985.76,-41.968
237.168,998.204,-77.104
183.0,991.616,-93.94
152.5,986.736,-77.836
176.412,1022.116,-74.664
135.176,1003.816,-96.624
146.888,1013.332,-128.832
174.948,1039.928,-116.388
178.608,1056.276,-91.256
188.612,1041.392,-54.656
176.656,1022.36,-48.068
122.976,992.592,-32.452
60.756,957.944,-25.864
70.028,961.848,-60.024
125.904,993.08,-60.268
152.256,1012.356,-21.472
134.932,982.1,0.244
119.072,968.192,-14.396
118.34,976.976,-37.332
125.66,994.544,-20.252
139.568,1013.332,-47.58
135.42,1012.356,-64.904
102.724,997.716,-47.824
80.52,968.924,-10.004
77.104,959.408,-28.304
81.496,970.876,-45.384
112.972,1006.744,-68.564
132.248,1002.352,-41.48
122.488,969.656,-9.028
92.476,947.208,-12.2
98.088,965.264,-41.968
105.652,979.416,-21.96
116.876,988.444,-28.792
120.292,988.2,-44.896
110.044,992.104,-45.14
70.76,985.516,-39.04
69.54,973.072,-43.188
103.212,981.124,-40.748
115.656,981.856,-27.572
99.796,982.588,-46.116
83.692,973.804,-56.364
92.476,989.176,-38.064
104.188,985.272,-16.592
104.92,963.312,-16.836
107.848,959.408,-35.624
124.928,980.148,-16.836
127.856,999.912,-30.012
115.412,1004.06,-47.336
105.408,996.252,-42.944
119.072,1007.964,-39.528
113.948,1021.628,-45.872
107.848,1029.436,-64.416
92.476,1004.548,-41.724
94.428,989.42,-32.94
98.576,977.952,-16.836
108.58,990.884,-36.6
109.068,998.204,-47.58
113.704,1011.136,-60.756
103.212,986.492,-12.2
97.112,964.532,-15.372
90.524,961.604,-33.916
75.884,968.68,-50.752
97.844,985.76,-34.648
106.628,987.712,-29.768
119.072,993.812,-38.796
124.684,1000.156,-35.868
122.976,1014.552,-34.892
114.924,1019.432,-54.168
110.288,1013.576,-51.972
114.924,997.472,-39.04
108.336,975.512,-27.816
100.528,971.608,-25.864
128.588,1000.888,-34.892
122.0,993.568,-9.272
101.748,967.46,-18.056
94.916,968.68,-29.28
111.752,990.884,-31.476
120.048,989.176,-18.788
111.02,983.076,-27.328
114.192,985.028,-27.572
116.144,996.008,-26.108
125.66,1000.644,-11.956
113.216,1008.696,-17.08
108.336,995.764,-9.516
116.632,990.396,-36.844
119.316,984.54,-8.296
113.46,975.024,0.976
123.464,979.172,-21.716
149.328,997.716,11.224
139.08,988.932,-4.148
130.54,994.056,-5.612
153.232,1008.452,-14.152
148.84,982.588,26.84
140.056,975.756,24.644
121.268,971.12,2.44
138.348,990.884,-10.004
147.132,995.764,10.736
149.084,989.664,11.224
161.528,977.952,43.92
171.044,975.268,45.872
208.62,984.296,58.316
256.688,982.344,60.268
223.992,965.264,56.12
142.008,959.652,7.808
103.7,944.28,25.864
135.664,956.968,54.9
192.516,990.64,25.62
207.888,1002.596,20.74
223.504,1001.62,38.064
188.124,997.472,27.328
152.256,983.808,11.956
148.352,968.924,35.624
210.572,991.128,33.184
235.46,989.42,39.772
255.468,984.052,25.864
200.568,990.64,-1.22
170.8,993.08,-13.176
202.032,985.76,-0.732
171.288,950.868,-4.88
156.892,933.056,-24.4
128.588,937.692,-36.844
120.048,969.656,-59.78
157.624,976.732,-70.272
193.98,988.932,-80.52
164.212,973.804,-95.892
132.492,985.272,-130.296
101.748,981.612,-141.032
127.124,979.416,-143.716
146.644,947.452,-136.884
142.496,948.916,-159.332
108.092,970.876,-212.036
95.404,987.956,-221.064
83.936,999.18,-239.608
83.936,973.072,-201.544
52.948,931.836,-212.524
69.296,930.372,-247.416
122.0,983.32,-254.248
95.404,983.808,-244.0
38.064,964.044,-249.124
14.884,950.624,-263.276
143.228,1026.264,-270.84
171.776,1040.66,-261.324
166.896,1046.272,-227.408
208.132,1078.236,-201.056
198.616,1141.676,-393.084
327.692,1254.892,-161.04
507.276,1311.256,-204.96
365.024,1174.86,-238.144
384.056,1205.604,-301.828
313.54,1118.984,-234.24
359.412,1010.892,-146.644
628.544,1043.588,-125.904
689.056,1064.816,-104.188
558.272,976.0,-148.596
531.432,881.328,-130.296
346.724,764.696,73.932
440.176,655.384,221.796
675.392,587.552,50.264
788.852,498.004,13.908
782.752,448.716,-12.932
799.832,317.932,192.028
821.06,228.384,169.092
996.252,296.46,88.084
1011.38,209.108,50.02
895.48,161.528,135.664
821.304,59.536,123.464
746.884,58.072,212.036
735.172,64.416,196.908
822.28,152.012,122.976
736.88,87.108,166.896
717.116,46.116,241.316
626.836,-21.716,190.564
493.612,-94.184,192.516
279.868,-47.092,227.652
-26.108,11.224,247.904
-117.852,32.696,245.464
-179.096,-3.416,147.864
-133.956,6.832,-78.08
-34.16,0.0,-244.488
355.264,-8.052,-524.844
418.948,-57.584,-634.4
493.612,-138.836,-650.26
857.66,-249.856,-813.008
1094.828,-394.548,-857.904
1306.376,-600.24,-779.824
1744.6,-874.984,-821.06
1931.992,-1078.968,-723.704
2046.916,-1206.58,-577.06
2164.768,-1340.536,-439.932
2299.456,-1497.672,-295.484
2359.724,-1579.412,-192.272
2310.436,-1669.936,-3.66
2260.416,-1698.484,124.44
1972.496,-1659.932,254.736
1666.276,-1521.584,347.456
1445.456,-1373.72,411.14
1208.532,-1204.384,431.148
1005.28,-1080.92,422.608
742.492,-955.504,387.716
524.112,-793.732,330.132
352.58,-523.136,204.96
218.136,-234.484,116.388
46.36,-63.196,105.408
-78.08,18.056,80.764
-97.844,131.76,23.668
18.544,202.032,-44.164
172.996,253.516,-68.564
281.82,234.24,-44.408
509.716,142.496,-42.212
607.072,53.436,13.176
691.74,-25.62,24.156
930.372,-35.868,-32.208
1079.456,-61.0,-53.192
1089.704,-39.528,13.176
1041.636,-93.94,66.124
994.056,-59.292,118.096
971.364,-10.492,81.252
1046.028,31.964,74.176
1081.164,42.7,89.548
933.788,114.68,83.204
887.184,162.504,36.112
929.64,218.868,-6.588
1144.604,343.552,-33.428
1228.54,373.808,10.98
1029.192,314.76,70.76
823.5,341.112,35.868
762.744,419.924,16.592
874.496,531.432,16.592
820.816,567.056,6.344
780.312,625.616,22.692
759.572,618.54,17.568
753.716,659.776,-16.348
769.82,800.808,-6.1
670.512,732.0,0.732
709.796,797.636,49.776
744.688,883.036,14.64
668.56,879.864,-25.62
545.828,852.536,-18.056
500.932,904.02,-41.968
454.816,875.228,-34.892
459.452,864.248,-30.256
471.408,926.956,-19.276
480.192,954.528,0.0
477.996,988.2,-17.08
438.468,1004.06,-34.892
362.096,1026.02,-53.68
291.092,969.168,-48.556
289.872,970.876,-69.052
304.756,978.196,-44.652
285.48,976.488,-38.552
236.68,970.388,-31.476
207.156,1046.272,-65.392
177.632,1051.152,-68.808
136.152,996.74,-32.94
104.188,915.488,-30.012
68.564,888.404,-57.584
99.552,928.908,-41.968
102.724,982.588,-26.596
101.992,995.276,-5.612
121.268,1003.572,-12.444
117.608,988.2,-12.444
99.308,958.92,-18.056
91.988,961.116,-30.5
81.74,969.168,-29.036
67.1,986.736,-25.376
87.352,987.224,-11.956
110.776,994.3,-14.152
92.232,982.1,-20.496
49.288,984.052,-28.548
20.984,986.98,-34.404
53.924,1005.28,-36.112
86.132,1013.82,-21.472
86.132,981.368,-7.808
85.644,960.872,-17.812
57.34,958.92,-28.06
29.768,984.296,-36.844
50.996,996.496,-19.276
75.64,979.66,-8.296
85.4,973.804,-20.74
87.108,976.488,-19.52
59.048,980.148,-30.256
26.352,997.228,-49.776
19.764,1006.5,-50.508
37.332,985.76,-35.624
65.392,1006.256,-40.016
68.076,1025.044,-41.236
70.028,1019.432,-34.404
79.788,1014.064,-30.256
62.464,978.928,-24.888
54.9,964.044,-29.036
57.828,981.124,-36.6
59.292,996.252,-31.72
51.24,1017.236,-38.064
52.948,1008.696,-32.452
60.756,1004.06,-37.088
65.88,988.2,-30.988
60.756,983.564,-30.256
46.116,986.98,-29.036
50.264,986.736,-27.328
71.492,992.104,-26.352
80.52,1003.816,-28.06
48.068,1004.304,-31.72
40.748,997.96,-34.404
59.536,995.032,-32.94
65.88,992.592,-30.5
66.856,985.516,-16.592
61.244,984.784,-14.152
57.828,992.836,-24.888
47.824,990.396,-36.6
41.724,968.192,-22.204
37.332,967.704,-21.716
50.996,972.096,-20.496
64.904,981.124,-13.42
56.364,977.22,-14.152
44.408,991.128,-24.644
47.092,1006.744,-25.62
59.048,992.836,-14.396
62.22,986.248,-16.104
63.928,993.812,-17.324
57.34,998.936,-14.152
66.612,1002.596,-11.468
70.516,997.716,-8.296
59.292,974.78,-17.08
52.704,974.78,-18.544
50.264,981.612,-15.86
62.708,1008.94,-22.204
56.608,1026.508,-23.18
67.1,1008.208,-7.564
73.688,992.836,-5.368
53.924,986.248,-12.444
57.584,994.3,-7.808
60.024,1002.596,-0.488
68.32,1006.012,7.32
71.98,995.276,12.688
77.104,986.98,18.056
64.66,977.952,22.692
60.512,984.784,24.888
63.44,991.128,30.256
70.028,984.296,36.356
78.08,979.416,45.384
70.272,988.2,35.38
46.848,996.008,29.768
39.284,1002.596,36.844
60.024,1017.236,43.432
67.344,1027.972,39.04
76.86,1008.452,53.68
84.668,991.372,53.924
72.712,969.656,46.36
38.308,972.584,36.112
29.036,972.828,32.208
57.584,963.068,42.212
78.812,948.184,51.728
61.976,939.4,46.116
36.844,948.672,29.768
34.404,972.096,18.056
53.68,999.18,12.688
75.64,1011.136,8.784
78.812,1021.872,-0.732
61.732,991.616,1.464
48.068,975.024,-5.124
45.14,974.292,-21.228
47.092,992.348,-38.796
62.952,986.004,-38.308
74.176,993.324,-52.704
61.0,999.18,-82.472
34.16,992.836,-102.724
23.424,967.704,-100.528
18.056,957.456,-109.8
35.624,959.652,-123.22
65.392,978.196,-127.124
53.436,959.652,-121.756
37.576,970.632,-138.104
26.84,976.488,-150.304
35.624,945.988,-143.96
37.088,1039.684,-174.46
18.788,1006.012,-159.576
51.484,1012.356,-152.5
90.768,1015.528,-151.28
109.068,1022.116,-155.672
105.652,1046.028,-165.432
118.34,1056.764,-153.232
159.332,1082.14,-125.172
210.816,1055.3,-95.404
239.608,1012.844,-94.916
287.188,1034.56,-87.84
355.508,1083.36,-85.4
425.292,1130.696,-100.284
451.644,1172.908,-158.112
533.384,1161.684,-142.496
616.588,1246.108,-172.996
580.964,1124.108,-171.044
536.8,1032.852,-172.264
582.184,1041.88,-181.048
627.568,945.5,-148.352
824.476,865.956,-74.664
960.384,822.036,-61.976
945.012,831.796,-188.856
793.976,668.316,-128.832
697.108,364.048,74.664
501.908,69.052,238.876
576.816,92.72,253.516
611.952,115.9,248.148
661.728,226.92,174.46
710.04,211.792,194.956
554.856,39.772,231.8
523.38,33.916,181.292
536.068,9.516,140.056
424.56,-2.196,146.4
384.056,32.452,84.668
304.024,103.212,43.188
181.048,147.132,-19.032
89.548,110.776,-64.416
80.032,45.384,-148.352
150.792,16.592,-275.232
370.148,-2.928,-468.236
494.588,-33.672,-546.56
696.132,-141.032,-635.864
1138.748,-357.704,-679.052
1389.58,-590.236,-740.296
1789.74,-893.04,-679.54
2116.456,-1098.976,-634.4
2278.716,-1364.204,-543.876
2364.116,-1513.044,-493.856
2596.892,-1435.208,-505.324
2339.716,-1370.792,-371.856
1974.936,-1393.728,-177.632
1877.58,-1405.684,-77.348
1531.1,-1416.908,91.744
1333.46,-1335.168,204.716
1039.928,-1259.284,298.9
870.348,-1035.292,360.632
582.428,-805.2,382.592
437.736,-504.104,302.316
292.556,-236.924,189.1
134.688,-30.744,124.196
-37.088,96.624,107.36
-278.648,223.748,106.384
-53.924,305.488,35.38
176.656,363.804,-80.032
315.736,365.512,-124.44
492.392,253.76,-87.596
532.652,164.212,-101.504
814.716,104.676,-100.284
947.696,-13.664,-97.112
1053.348,-67.588,-95.16
1199.016,-139.324,-105.652
1193.404,-115.656,-60.512
1066.768,-0.488,-4.88
1047.248,104.432,12.2
982.1,219.356,-41.236
1144.36,268.4,-66.124
1108.98,353.068,-35.136
801.54,359.168,-88.572
746.152,455.304,-123.708
1021.14,618.54,7.32
1072.38,661.24,-14.884
1094.584,768.356,-44.652
1014.064,759.572,-51.24
750.3,708.82,-77.104
514.84,712.48,-93.208
544.364,762.5,-83.448
611.464,756.4,-59.78
621.712,774.212,-41.48
506.788,797.88,-83.692
475.8,872.056,-120.292
556.564,921.832,-115.168
648.552,949.892,-101.504
598.532,943.548,-79.788
422.364,890.112,-106.14
306.464,812.764,-141.032
293.776,782.508,-125.904
346.48,873.032,-131.516
460.916,998.692,-99.308
471.652,1046.516,-65.148
382.348,1019.92,-101.26
277.672,946.232,-150.304
204.716,926.224,-177.388
209.596,977.708,-163.48
319.396,1047.004,-105.408
392.108,1064.084,-71.004
304.024,1030.9,-85.644
151.524,981.368,-120.536
97.844,921.832,-129.076
114.436,951.112,-116.876
178.12,988.688,-65.88
174.46,1019.676,-60.756
68.564,1028.216,-100.528
-5.856,937.204,-108.336
28.304,889.624,-80.52
52.46,919.88,-75.64
94.916,1008.452,-41.724
114.68,1037.488,-3.416
87.596,1047.492,-13.664
45.14,971.364,-10.736
26.596,901.092,-3.904
13.176,913.78,-17.08
-1.952,968.68,-4.636
0.244,1036.268,21.716
4.636,1057.008,0.488
5.124,1030.9,-12.688
-25.132,976.732,-5.124
-67.344,927.688,-26.352
-41.48,996.252,-44.896
-18.3,1017.968,-11.712
-4.88,994.056,9.516
-58.804,983.076,-30.5
-109.556,944.036,-62.952
-103.7,921.832,-65.88
-35.624,957.456,-54.168
2.684,1022.36,-50.264
-46.848,1012.112,-66.124
-98.576,948.672,-71.736
-127.612,909.144,-84.18
-138.592,906.46,-78.812
-159.332,935.252,-82.472
-108.336,960.628,-70.76
-30.256,966.24,-42.212
3.904,967.948,-50.996
7.564,978.684,-52.704
0.0,975.512,-44.652
36.112,957.944,-44.896
76.372,998.204,-53.924
108.824,1055.3,-31.964
122.488,1062.864,-26.352
91.256,1002.84,-39.528
86.62,993.324,-50.02
90.28,1019.188,-44.652
61.0,1024.312,-40.992
104.188,1030.412,-39.772
136.884,1018.212,-31.72
152.5,1007.72,-24.888
134.932,1005.036,-26.84
68.808,1003.816,-33.916
35.38,1000.156,-42.456
60.756,1026.996,-31.964
84.18,1024.556,-15.86
76.616,1015.772,-24.888
49.776,1054.812,-52.216
49.776,1118.74,-52.46
65.392,1120.692,-23.912
97.112,1047.98,-8.296
119.316,998.692,-9.028
98.332,980.636,-17.324
80.764,985.028,-13.908
61.976,953.308,-6.1
11.712,965.752,-34.892
-2.196,970.632,-35.136
16.348,943.548,-25.62
-9.516,952.576,-49.288
-33.428,978.684,-55.876
-28.792,986.736,-50.508
-26.596,971.364,-65.148
-13.908,972.828,-75.152
4.392,976.976,-65.148
-2.684,977.464,-64.416
-5.368,979.904,-66.856
-9.76,951.356,-63.928
-31.232,952.088,-83.692
-66.612,978.196,-102.48
-67.1,999.18,-93.208
-44.164,1001.62,-84.424
-14.396,1009.428,-86.132
11.468,1010.648,-78.812
6.832,1008.452,-69.784
-8.54,986.004,-71.736
-4.636,1002.596,-78.568
24.4,990.152,-77.104
42.456,982.344,-75.884
36.356,984.54,-74.664
30.988,988.444,-84.18
14.396,991.616,-91.5
-18.3,995.764,-95.404
-20.984,999.18,-82.96
4.636,1006.988,-71.004
21.472,985.272,-55.876
9.272,988.688,-71.492
-25.62,1009.428,-86.864
-24.888,1023.58,-85.888
-4.88,1016.26,-84.668
16.592,992.592,-81.496
11.956,990.64,-90.768
-6.344,978.928,-81.008
-1.708,977.708,-80.276
-9.516,995.276,-92.476
-22.936,961.116,-82.716
-10.736,940.376,-80.764
17.324,937.936,-77.104
27.328,961.116,-74.176
17.324,972.584,-71.736
0.732,968.436,-80.764
-7.808,1000.644,-104.676
-22.692,1022.604,-113.704
-1.708,1038.464,-110.044
32.452,1024.8,-93.696
38.308,1017.48,-77.592
15.372,995.276,-65.148
-0.244,992.592,-66.124
1.952,965.508,-60.756
4.88,984.784,-69.784
5.124,997.96,-70.028
3.66,993.324,-71.98
13.664,984.296,-78.568
12.688,987.956,-86.864
-2.684,997.96,-91.744
-11.224,998.692,-100.284
-11.468,1028.704,-117.608
-9.76,1028.46,-118.34
-15.616,1033.584,-119.56
-8.54,1004.548,-110.044
3.416,989.176,-105.408
-6.1,990.152,-104.676
-14.64,961.116,-88.084
6.1,958.432,-83.204
18.3,955.26,-84.18
13.42,955.504,-86.376
10.004,927.688,-83.936
40.26,899.14,-78.568
41.724,919.88,-83.936
18.544,917.44,-76.616
27.816,960.872,-76.128
27.816,990.884,-78.812
36.112,1006.988,-77.348
29.036,1016.26,-74.664
5.368,1012.6,-71.492
-12.444,1024.068,-83.448
-10.004,1028.704,-90.768
-5.612,1042.856,-88.084
-2.928,1037.0,-82.716
4.392,1021.628,-80.52
-1.952,1013.82,-85.4
0.244,1004.792,-83.204
9.028,1003.328,-77.348
-10.248,1000.644,-81.252
-20.252,995.032,-81.496
-3.66,979.172,-74.176
10.736,978.928,-75.884
4.636,963.556,-74.664
-7.076,954.04,-70.76
-2.928,957.944,-70.516
2.44,978.44,-74.908
0.488,973.56,-74.176
4.392,986.98,-81.496
0.732,1003.816,-86.376
-12.444,1003.572,-84.424
-9.272,999.668,-80.52
1.952,998.936,-77.592
4.392,1005.036,-73.444
-8.784,1004.304,-71.004
-15.128,1005.524,-76.372
