# PAMAP2 dataset (wrist-mounted sensor)

acc_x[mg],acc_y[mg],acc_z[mg]
-667.1288,628.2623,128.61911
-623.87933,681.911,187.85541
-600.5099,669.7945,213.1094
-607.329,720.734,224.0097
-682.27844,690.199,295.3089
-716.3702,628.459,353.5778
-818.96344,528.9705,357.43918
-999.145,495.47018,387.6701
-1262.0221,382.29947,514.2144
-1419.8154,218.73477,443.73605
-1445.6985,221.77995,230.13806
-1388.4448,229.60738,171.80489
-1189.9797,111.783455,131.18127
-1097.6849,82.93606,113.199005
-1086.3185,190.34636,136.34259
-890.1638,294.54706,150.56087
-617.5511,335.5429,184.64282
-487.73218,330.1583,243.9781
-333.679,308.0734,206.01456
-346.80527,378.7801,196.74402
-429.10815,417.10587,217.0003
-561.01324,475.13422,267.1342
-874.5385,572.1481,397.87424
-1153.5701,610.44824,466.09116
-1368.3307,625.1628,462.05246
-1610.8405,645.1782,547.89996
-1691.2396,635.39484,521.51917
-1520.7123,582.53815,367.5184
-1458.371,550.95306,293.7804
-1263.0192,499.09644,176.14384
-1013.2197,388.02692,80.273
-749.39386,302.7177,35.929825
-547.44934,192.98396,-10.696431
-405.19025,153.6161,-37.790157
-332.2383,205.96017,-39.42714
-342.50397,341.87384,-34.577328
-409.04764,420.16818,-4.385745
-552.56635,520.0122,63.527283
-804.5489,490.76984,232.56856
-1148.9081,290.8643,342.80673
-1613.03,254.8946,302.26358
-1873.2452,416.22733,462.57605
-1887.3685,533.829,583.2291
-1597.4597,411.25903,473.4369
-1178.5596,212.40643,377.00397
-918.7072,285.93576,262.53812
-781.70996,432.12677,141.39685
-667.1937,559.64056,94.224236
-569.59125,615.0088,29.823092
-537.67957,718.3645,53.4905
-553.4902,664.03625,132.59357
-721.5767,758.1395,292.1734
-925.32684,727.07697,384.67917
-1259.72,744.29456,391.0578
-1712.0598,792.899,474.1229
-1686.1046,629.0524,427.8633
-1659.4426,477.57504,300.20566
-1774.0619,346.23608,216.42253
-1530.4454,261.9143,174.7334
-1145.548,227.21461,81.01234
-783.8366,217.65474,25.874754
-610.71387,229.51985,-25.657763
-494.7483,207.19916,-51.091908
-437.24136,212.81253,-52.511307
-430.4372,235.73343,-48.35611
-476.7294,275.57245,-26.278269
-672.721,387.34424,48.750027
-1018.69214,462.2693,213.92195
-1416.9252,427.62088,319.36365
-1747.4136,413.01172,386.92825
-1848.8207,374.7358,469.35263
-1802.6276,212.87561,531.1454
-1502.6724,253.65068,493.96628
-1176.1622,527.0909,393.0236
-866.4564,615.7496,233.27739
-683.01526,574.0041,180.65979
-543.8208,500.47342,146.11758
-505.2064,516.0329,134.37706
-543.0149,554.90234,186.33664
-678.6412,643.53156,314.78925
-873.16504,651.4314,402.27252
-1263.8019,671.25665,445.8069
-1557.631,609.19525,428.58127
-1535.4902,544.18896,402.2838
-1589.2682,508.47214,332.83615
-1790.6064,368.27478,236.25584
-1731.4603,301.66495,188.3341
-1251.5912,257.2864,160.15373
-958.4785,287.10675,98.333305
-807.88214,347.40338,19.428228
-691.6739,252.25162,-42.769127
-566.4615,177.31741,-100.22888
-470.30627,169.30884,-58.334404
-461.93835,266.64633,-41.933563
-559.75665,433.9484,5.9753966
-811.3224,600.9727,127.44714
-1146.6821,558.21906,275.277
-1426.2366,456.12643,390.04803
-1603.2338,365.81628,401.28088
-1805.9847,292.41782,426.38113
-1683.4785,272.98804,477.71582
-1387.7042,367.97348,443.28787
-1117.5128,549.9443,312.0401
-899.6886,621.95233,202.28328
-797.2048,610.92456,170.6386
-635.4399,552.7538,95.16117
-622.42065,608.356,136.11781
-660.98035,641.2513,187.48705
-726.50964,679.8079,270.10776
-858.73486,693.0968,336.42004
-1167.0636,721.5847,377.732
-1444.6399,707.9169,437.17615
-1502.4575,528.26874,359.60968
-1523.776,446.67224,205.44356
-1641.651,336.3823,19.054897
-1625.4454,243.4082,15.110504
-1334.5658,231.56792,60.845364
-1047.1978,260.08615,-29.036505
-871.3648,298.5684,-85.24016
-747.83636,293.41922,-107.93634
-777.1288,171.63239,-187.90031
-601.1608,121.44884,-158.61784
-400.7022,193.66391,-69.60921
-314.7534,355.55466,-1.235899
-368.20963,580.6189,49.71301
-544.4311,883.6827,132.7751
-887.134,919.3819,432.08646
-1152.2129,491.64343,497.56564
-1523.3146,457.16098,485.3666
-1908.2885,470.82788,624.97876
-1713.2365,486.0085,567.94574
-1211.7295,258.86935,362.19763
-1064.6652,196.028,374.73102
-946.72797,324.34192,300.75864
-814.57574,499.00955,176.80374
-637.9819,601.688,111.499985
-430.3256,576.59033,23.92254
-408.75763,555.81506,96.815834
-434.80743,460.35104,90.64244
-552.24677,503.5692,92.13873
-695.04645,535.6183,74.86133
-807.2618,557.4786,79.220245
-797.4011,517.89215,51.826153
-830.06995,500.00806,15.794581
-968.5184,513.44415,21.251827
-1203.1735,731.88995,-1.608357
-1501.038,697.89935,-100.7937
-1632.051,676.7557,23.023382
-1539.4935,643.2809,64.58704
-1272.2128,460.63782,-98.32549
-1250.7677,470.3793,-139.41046
-1094.0055,447.21112,-65.103806
-937.1059,490.17606,-54.68204
-806.99713,429.50644,-133.23338
-679.3269,381.57788,-122.10842
-671.8527,438.0842,-114.536
-649.0865,456.75162,-26.877016
-613.0634,443.11932,-16.806639
-641.4625,452.32083,4.2191005
-785.6115,503.79483,138.61803
-950.7369,482.55487,273.7847
-1162.6326,499.14957,434.42194
-1263.0083,309.16043,533.9244
-1120.8623,116.055214,557.9686
-946.3101,111.88902,668.0931
-1001.35345,176.61157,650.58386
-1040.8801,304.19278,724.374
-852.6927,416.68723,666.08685
-698.55664,500.6585,510.17468
-658.18365,489.7451,452.68295
-704.25385,520.5515,413.5789
-737.6306,580.7344,323.1874
-713.83234,548.9072,249.22989
-779.46545,530.796,196.2851
-872.6318,524.0018,185.73883
-1046.9014,527.2741,134.57901
-1358.6322,691.21716,89.39149
-1771.5585,776.2042,84.169464
-1783.9816,654.0719,149.59874
-1471.9043,395.78625,-11.141682
-1543.1702,416.41092,-127.17905
-1444.0072,309.4712,-53.882244
-1099.2362,265.27335,-15.029584
-879.4136,337.85675,-21.105942
-748.63776,321.3729,-44.354465
-634.2944,314.59476,-70.76624
-566.27734,301.59177,-49.069485
-597.0431,384.44507,-41.864986
-716.00287,450.6623,5.7052054
-835.56573,472.5923,114.994705
-1078.8055,545.4295,298.65778
-1292.3206,438.82944,349.84003
-1320.5281,284.32245,369.3354
-1332.3331,198.81404,371.85056
-1419.3262,217.33505,371.6917
-1319.8945,347.34732,364.03433
-1130.9542,473.57584,385.10333
-900.85016,519.90515,271.6209
-786.0601,553.8054,144.0564
-732.45233,583.9999,141.07104
-675.212,646.26196,117.62431
-699.256,708.7595,160.82254
-790.23895,703.82074,233.64024
-833.36053,712.407,291.1983
-1078.836,708.97375,345.22076
-1405.3317,775.4785,432.32166
-1617.0981,734.33887,371.86545
-1603.0356,545.3646,244.53499
-1774.0575,366.6456,180.97566
-1644.9655,184.72424,169.8501
-1396.9364,246.38976,157.1106
-1061.3799,273.00665,99.426384
-776.5832,295.64,15.863363
-680.6992,283.32385,-22.474977
-606.68616,266.66785,-37.36288
-542.27045,232.49057,-34.860012
-539.1627,329.4618,-3.8183446
-608.07404,418.1283,43.282665
-856.55676,504.2804,128.33687
-1175.9637,427.2913,243.0042
-1314.0967,291.17944,365.83914
-1451.3456,302.7326,392.69022
-1643.3492,327.44452,419.76056
-1632.6154,412.50778,510.571
-1326.8981,435.96222,430.4804
-1055.0211,549.767,228.98662
-882.0761,606.2063,126.763916
-781.7726,578.3165,69.28848
-742.9904,585.1482,76.035385
-693.866,620.04156,56.62038
-712.3062,708.00256,105.0706
-819.8095,728.5573,205.70476
-1136.2762,849.69324,315.58514
-1448.8203,971.6965,404.83795
-1529.614,827.39667,393.1274
-1638.2683,763.71735,267.42242
-1829.4092,599.51855,157.57278
-1918.2266,537.7511,251.46042
-1617.7429,456.17307,177.30542
-1227.6289,337.3816,19.950962
-914.8473,244.47821,-7.7894163
-689.5423,157.05692,1.7341479
-533.8706,105.82521,-3.3459353
-438.07465,128.70322,4.2299614
-473.27008,237.02824,-6.4932966
-521.5277,354.79388,44.106396
-704.62,431.83072,188.18373
-1030.6625,699.0332,303.87332
-1225.7844,793.1064,338.00113
-1406.3105,548.39014,319.08838
-1803.1111,669.5943,423.12582
-1907.0063,674.2658,392.00754
-1742.4119,699.44275,361.55392
-1358.0739,847.0176,278.77197
-1016.5762,714.23596,118.3935
-759.90515,680.82635,45.496376
-654.095,720.89813,54.763607
-552.21893,700.17737,55.319233
-569.0677,772.66797,118.54062
-663.964,749.18695,189.18782
-927.59576,775.6508,267.6255
-1356.7881,837.21515,288.17456
-1778.0212,969.07434,260.49615
-1807.9658,779.5038,223.22646
-2056.0664,640.62164,86.09278
-2202.6243,351.57816,47.708973
-1804.8131,369.2857,49.164955
-1432.233,345.5613,30.03929
-989.5347,245.95625,-85.91049
-755.8428,241.84569,-83.86776
-572.8306,194.32639,-69.01567
-444.73965,188.62357,-53.245903
-329.3134,184.7546,-45.44447
-298.68192,286.0817,-2.430369
-392.02533,457.7373,96.120094
-701.0986,747.09125,318.06155
-886.4898,726.72845,334.12607
-1204.077,622.72314,278.6858
-1531.4954,771.7367,393.6242
-1587.5883,598.9005,367.49628
-1709.0248,580.6537,300.13037
-1728.419,739.8255,345.2833
-1373.7142,885.2278,323.7519
-1007.3962,694.6223,160.56456
-830.5686,475.19977,136.1717
-664.54407,511.81647,86.88923
-539.2161,651.0857,103.13255
-471.4545,672.32367,169.31294
-496.31033,638.4075,224.06328
-681.47876,693.69727,338.2989
-950.09985,641.6035,445.51025
-1043.9651,640.811,460.17786
-1232.3608,634.7876,341.95605
-1392.3044,690.96423,305.11392
-1808.4077,624.315,264.2059
-1946.1703,324.7019,130.71207
-2143.077,233.30977,85.14513
-2035.3713,252.4305,111.68585
-1735.3308,318.25995,36.454586
-1493.5131,420.4215,13.003085
-1074.5991,326.54022,-19.83132
-759.2116,236.39296,9.0673685
-532.55365,146.35948,18.592516
-406.0443,102.16144,49.461197
-268.21756,77.819664,75.67359
-184.21446,126.66476,125.607635
-39.9002,95.357,198.09651
-15.449194,79.86835,192.06454
-282.39084,466.80328,233.56444
-521.4774,668.2822,301.15833
-827.4932,369.32718,316.03732
-1659.1434,240.94559,430.30093
-2405.0383,371.79538,554.5536
-2694.9436,745.61646,762.7294
-1891.1398,687.7512,665.2113
-1325.86,317.60336,347.93237
-1161.781,214.986,300.52234
-940.3312,451.14407,56.140587
-727.5772,715.38074,-44.841568
-434.7892,712.59894,-113.65533
-273.2539,652.2919,-43.00131
-294.95367,529.93085,81.39868
-362.27197,502.56998,109.7573
-531.47516,645.8567,189.07178
-629.94366,698.77795,232.70448
-761.1166,711.57855,197.73792
-906.14197,717.3834,217.37611
-1093.3346,600.84515,248.508
-1107.5216,549.33496,301.61362
-1302.9475,747.1897,332.04837
-1796.077,720.03906,410.52957
-1791.3458,876.07043,200.41524
-1728.2803,819.7887,55.81255
-1511.5924,362.69116,-27.04992
-1161.297,272.7732,-95.60964
-923.2941,476.9657,-181.72484
-693.2401,422.89114,-219.40448
-505.00024,392.56607,-196.61996
-465.1668,479.10455,-171.04666
-406.6437,439.1039,-135.10817
-339.5985,400.17804,-106.83293
-373.9544,482.52216,-13.429958
-434.2511,567.86115,129.0161
-527.1913,641.54645,236.16585
-659.1542,531.3007,410.6258
-808.5599,427.41608,624.8173
-1039.314,262.73267,666.94824
-1478.2692,296.7312,775.97375
-1399.2352,234.26639,1001.1226
-1177.7207,228.1624,791.728
-1136.9446,280.9148,540.09576
-1056.3163,294.80438,477.8966
-1005.0755,430.35162,429.5467
-894.8009,594.8629,321.93478
-780.199,729.8745,293.68652
-700.2984,721.2863,241.41881
-684.1561,700.7197,210.34065
-773.2252,615.46783,178.88458
-732.7598,485.37152,99.84343
-806.53485,473.37448,110.91654
-819.5279,440.68604,61.908688
-977.50146,473.12628,1.4332274
-1251.3103,491.96106,-33.970135
-1515.9867,530.85345,-106.16143
-1920.0166,703.0615,-85.00583
-1993.4231,623.1199,-152.34328
-2033.7513,524.39124,-256.6883
-1858.071,400.54153,-218.4694
-1445.8613,310.92233,-44.544434
-1027.6545,338.26318,5.9081106
-786.17035,347.3738,-45.170303
-664.5114,386.85052,-33.3561
-555.61176,303.54602,-71.23743
-508.31317,248.58005,-52.1665
-646.3642,351.69345,-5.18649
-782.6534,376.5104,89.61394
-903.58435,400.0042,156.75746
-1134.9183,456.00552,364.5759
-1287.397,374.51663,391.02133
-1489.8906,371.63504,521.0747
-1511.6797,215.859,574.7377
-1462.7772,124.63781,374.9504
-1490.6487,317.3927,391.82092
-1257.7137,483.09152,408.03555
-936.3189,605.25494,256.27814
-728.5971,592.709,106.04339
-618.4784,562.4978,83.56729
-605.98224,567.3799,72.80867
-639.7522,624.38763,77.76159
-659.9723,676.9272,83.559074
-729.6993,726.8593,141.47658
-927.8474,866.679,264.40952
-1254.6677,868.9344,321.07422
-1493.3953,755.5208,314.96725
-1571.3489,634.63495,280.38434
-1842.4445,533.1852,199.72574
-1819.0675,304.4845,160.49571
-1658.912,222.4339,220.79773
-1333.3204,182.6118,176.75842
-1002.587,271.89603,74.84553
-871.39716,312.4187,48.528397
-659.87714,214.6655,10.436602
-611.4041,234.03383,20.00653
-513.6558,236.03856,34.17195
-553.26685,360.4203,52.381317
-685.81244,585.0202,129.47586
-898.32684,700.966,247.46017
-1078.3097,590.2068,275.48438
-1289.8925,360.6869,413.89462
-1428.7189,219.40419,424.0932
-1538.5984,318.23773,405.59073
-1551.5323,458.44736,515.53204
-1385.8341,533.86127,429.34167
-1092.7963,634.44354,278.39243
-878.5284,583.71814,221.09793
-781.2054,491.7966,118.56705
-669.54785,623.6342,72.91238
-617.5941,731.30664,79.03547
-628.5258,726.3482,79.99475
-798.3615,760.761,172.01547
-1103.4415,775.5184,263.26776
-1418.4379,873.017,308.45837
-1535.2036,793.216,265.13217
-1671.3835,725.57446,214.8723
-1932.4824,470.7086,164.25429
-1847.8496,185.329,188.20229
-1594.9551,177.03474,236.0514
-1123.7831,229.33417,143.65775
-880.1155,327.0076,78.99344
-793.558,368.1795,26.321222
-682.6222,256.71896,-1.8735079
-557.67615,201.68622,7.6715627
-546.9092,211.78633,23.403011
-626.9875,369.00256,106.885
-785.2985,609.6814,223.7117
-900.18176,574.53534,272.2527
-1037.9628,559.8555,268.5632
-1085.4044,356.2397,347.66083
-1395.4642,394.0908,374.34143
-1677.3236,606.9095,381.31607
-1643.8752,662.5773,458.64612
-1312.4917,701.0104,374.05206
-991.36475,642.7416,152.87672
-819.22034,539.841,93.755936
-742.82446,569.18726,109.3468
-689.10205,633.88556,126.74506
-657.53064,742.1189,120.15662
-682.8518,778.64307,232.06612
-975.46686,780.1113,375.26407
-1321.6946,797.45966,372.55807
-1576.1416,758.547,311.5838
-1537.648,557.7868,294.93762
-1710.1504,462.71362,221.93224
-1847.3524,332.83676,227.16226
-1552.0632,281.46146,214.30066
-1190.0874,265.64987,117.602905
-992.3813,334.92926,78.72037
-755.3598,292.27094,33.659954
-603.8447,237.80348,-0.6458232
-501.1196,168.9997,-7.974707
-465.2513,237.99892,10.3856945
-525.1791,386.2365,51.036163
-641.72577,525.12213,127.07613
-871.8781,712.33514,241.25175
-1098.1895,607.0594,355.3733
-1220.2181,359.6997,357.18127
-1387.2828,565.34406,403.7376
-1418.6188,599.3496,434.1689
-1310.784,393.6197,435.69608
-1224.8018,494.98804,383.77887
-1061.9396,631.5751,274.2624
-859.10736,646.0175,176.7746
-732.26044,478.31946,117.4097
-687.57086,557.65875,127.64799
-722.4534,676.4827,205.26071
-680.2451,728.68774,250.74762
-750.95734,779.49774,323.579
-948.21875,744.5371,360.68262
-1486.662,867.9576,430.5141
-1795.4098,752.9328,409.1423
-1621.1537,566.6416,327.81122
-1696.7524,613.6067,241.84596
-1964.0746,557.94855,200.04634
-1678.9342,439.15173,162.28917
-1231.3918,437.06357,92.03563
-918.97424,487.52875,-5.908199
-665.7664,273.10547,-60.73951
-469.51733,180.25098,-38.869896
-390.31073,161.35884,-38.94182
-333.67398,137.9183,-12.303607
-336.27716,215.7321,12.355177
-413.5964,438.43942,80.57303
-669.2429,615.2067,263.60294
-962.9332,930.221,356.50925
-1124.5732,493.63092,326.43967
-1567.1934,479.8765,417.86633
-1807.2773,466.13885,422.43658
-2033.3733,462.9623,358.23346
-1868.2311,741.0792,412.42398
-1282.2406,792.0511,228.83093
-945.7725,674.2431,89.24294
-741.53644,586.0358,54.508247
-570.47534,687.663,15.648886
-554.6009,703.2867,41.75316
-518.741,671.7322,69.21034
-671.4354,571.8562,160.94548
-833.1672,705.8453,176.07652
-1294.1611,884.92786,220.75746
-1682.8363,843.8337,322.43423
-1780.2887,774.3756,367.1495
-1890.3042,553.5448,206.5253
-2135.151,475.60925,178.83563
-2094.5574,352.87598,218.08206
-1506.8473,303.41367,147.80005
-1055.7539,334.58127,34.841286
-738.5768,230.86624,-7.4808064
-547.9163,155.34425,-4.0220046
-421.0301,113.00341,-3.4578254
-342.47308,154.98723,-25.786911
-318.83847,286.66147,-9.905236
-363.68457,429.59637,15.589027
-622.7071,691.91174,129.22743
-840.6318,648.46094,219.19083
-1217.2185,638.56744,316.85742
-1444.7079,437.10043,278.87347
-1865.066,462.77768,399.16574
-2035.4908,776.82587,514.84595
-1754.086,557.2748,449.03656
-1392.5295,622.7481,372.34756
-1002.0525,580.08923,185.13599
-787.9034,541.7106,76.86428
-620.84937,592.8542,74.95142
-522.09985,606.70215,58.86642
-509.0963,650.3413,125.13482
-558.3116,623.5705,157.78334
-792.7911,748.52454,288.27277
-1105.0681,799.7976,321.5708
-1477.4656,810.2398,250.21957
-1707.8505,698.5235,224.00285
-1679.0385,642.91626,181.04916
-2140.812,597.548,122.58457
-2068.975,318.4545,87.403404
-1807.657,342.52322,38.578064
-1352.6724,274.9328,28.834879
-931.1459,319.8366,-14.536624
-759.7396,217.05617,-73.15804
-555.7827,107.60771,-69.33285
-341.10358,108.56385,-40.899788
-249.20564,151.9866,-33.07899
-257.08746,316.68433,0.56924945
-364.86273,579.05255,83.03422
-480.42163,668.6986,172.9304
-759.2243,655.8159,342.12427
-1064.3822,506.56274,409.20383
-1537.2546,542.4905,475.70453
-1922.933,479.50946,636.8767
-2041.6642,416.74133,590.7486
-1765.1584,347.91428,521.8029
-1432.124,411.91544,385.2754
-1123.6251,609.1992,259.578
-828.4578,642.20184,102.24876
-559.13904,724.4927,-5.2573576
-388.0429,718.4853,19.454067
-271.66293,592.90265,-11.478895
-305.77554,589.7068,121.290474
-473.19583,568.9026,227.39856
-672.304,663.43866,288.10983
-939.75836,667.84375,404.0191
-1166.8629,534.8252,445.16476
-1316.1903,529.395,476.62643
-1556.5503,469.9087,246.21906
-1988.2915,605.182,132.34659
-1863.5203,429.96588,-40.593662
-1866.3555,247.65215,-298.0585
-1808.7032,196.00838,-311.9303
-1641.1958,218.86218,-268.39984
-1392.7472,364.61475,-305.24475
-1141.6162,363.1168,-349.9756
-873.92017,330.17938,-334.9046
-664.0372,292.2241,-248.08998
-538.2889,333.33127,-183.21521
-398.82068,374.76395,-139.5381
-233.19333,379.1914,-125.62769
-179.99608,493.0748,-91.92434
-133.44447,542.57,13.832083
-162.2066,662.4038,101.716064
-258.94986,818.7458,149.79456
-347.02728,755.41785,245.17596
-516.8865,527.88416,398.28998
-825.03876,201.71178,580.2355
-1240.497,319.56168,688.12494
-1544.7017,527.1359,824.1881
-1461.3566,510.00333,855.7742
-1273.4806,321.65292,721.41724
-1250.1575,172.9971,611.47363
-1129.3687,187.10495,494.0333
-841.0591,290.06482,303.60892
-744.19507,439.57437,239.34064
-669.76544,557.215,230.16875
-630.78076,616.77313,183.04884
-606.3215,623.43024,173.30867
-649.7436,528.09595,236.03627
-568.783,459.7774,159.61119
-731.28204,527.90704,90.89942
-734.1235,526.38055,78.305504
-934.2348,496.99048,96.40658
-965.68066,418.8814,79.49742
-1294.5181,521.1138,125.47822
-1609.1625,567.501,96.52555
-2005.3063,648.3458,102.5246
-1914.1649,596.8573,117.48888
-1675.1787,448.68372,-24.536236
-1682.657,445.3652,-114.7256
-1461.1415,378.18588,-98.625275
-1276.0677,399.52176,-71.1816
-883.184,344.51776,-74.80782
-625.3935,348.3067,-56.116844
-479.00955,315.4663,-47.873623
-396.46753,276.37546,-14.179309
-330.94302,244.86502,33.429825
-339.18463,337.31558,110.17481
-379.45786,378.02176,169.14296
-661.6493,633.33765,316.52023
-890.26886,582.9868,357.1541
-1207.638,277.4189,256.3498
-1792.0863,291.14044,289.37854
-2088.9207,465.76645,500.98187
-1865.4045,580.58185,431.68692
-1355.38,268.87738,118.591064
-1164.9733,306.3772,311.40787
-964.1347,378.68433,241.87051
-746.69214,562.93713,68.943855
-522.0263,619.37836,-15.163891
-404.06,618.4906,40.152126
-341.5755,498.3543,105.7426
-402.50076,476.54373,112.707886
-558.7799,564.67755,238.67761
-876.438,670.2585,348.85883
-1121.4996,707.1051,398.4674
-1590.6584,629.64685,398.86728
-1842.502,540.94324,412.8725
-1595.9907,424.11707,338.33792
-1598.9084,356.25366,252.95827
-1640.5178,294.69147,175.72855
-1546.0009,268.23083,190.93275
-1038.4443,217.95811,137.65001
-740.11237,241.75331,60.12962
-534.8245,237.6398,31.488956
-481.24356,233.09782,28.165785
-384.1993,184.98717,25.692476
-385.59384,185.50845,24.885294
-405.04034,263.29834,56.23461
-614.84705,434.5755,129.39642
-847.19196,591.6881,224.21347
-1057.497,417.6268,205.36801
-1391.7789,322.24203,219.53093
-1811.4961,445.56192,428.4961
-1940.1641,625.1324,648.24884
-1617.837,530.3312,483.56116
-1202.2646,172.93336,336.13126
-1008.82623,120.16619,339.35986
-804.7131,268.40756,214.81514
-632.7912,518.4329,91.28534
-478.45,614.42346,54.634865
-379.82974,620.1673,74.312386
-405.5361,547.4084,191.56445
-507.4644,438.6631,259.06882
-668.57196,536.82526,330.12335
-926.3201,697.0585,452.0203
-1116.5072,723.7541,494.3941
-1482.2498,828.1367,476.1422
-1650.7992,651.447,348.57382
-1491.0067,460.77325,280.78424
-1665.7476,487.573,230.84389
-1739.2504,395.02072,146.28287
-1397.0892,373.50598,73.34769
-984.9374,321.85144,36.401657
-764.3034,386.3021,2.0115058
-571.3896,296.19794,-76.78495
-356.7696,189.33444,-105.37496
-325.766,200.08922,-41.227608
-265.84976,218.40576,-6.450863
-310.98715,387.02762,86.40432
-249.93388,428.91724,167.43259
-224.55962,612.4576,315.61526
-330.86328,1011.3105,339.0644
-632.97784,1343.6626,500.37653
-1033.9983,1388.1171,576.12317
-1276.7759,986.89777,399.34106
-1551.3086,815.61206,408.8428
-1559.927,567.7199,245.66348
-1489.7196,431.68045,-64.582275
-1341.0071,220.66377,-161.12306
-1241.9332,135.82858,-105.53486
-1089.0797,254.75244,-9.603286
-895.0034,507.96988,31.614157
-647.1138,581.75574,-10.5126095
-412.7972,551.48773,-23.015259
-274.34518,474.62228,30.092258
-259.7053,430.90268,112.012924
-250.09442,377.5201,100.73658
-253.24149,442.12656,116.528275
-371.43317,457.21878,253.10152
-519.2209,426.19586,372.39386
-834.59894,400.45712,512.32526
-1356.5767,391.37973,620.30414
-1816.0292,161.12753,694.7111
-1885.9332,109.107506,755.9225
-1559.4663,204.8565,658.25525
-1412.5371,486.94614,522.42267
-1203.3334,507.03726,400.58002
-1059.4395,669.8194,189.45537
-1214.5717,513.75507,-100.74542
-1188.9048,614.45337,-10.384184
-1080.595,758.5104,-26.843143
-979.0729,620.4796,-117.0721
-820.77155,744.92926,-169.72365
-686.39777,550.62146,-176.71724
-540.3134,461.0139,-147.04616
-379.25195,305.47986,-97.30822
-315.66476,292.6482,-39.749657
-286.7799,294.89938,-11.458957
-235.1829,265.13037,21.622087
-243.91774,260.2806,85.155365
-279.99768,333.92245,191.32088
-317.64966,421.80707,271.8715
-397.3458,614.9514,413.44446
-483.38394,488.05896,451.9073
-770.21686,592.59216,490.96176
-995.86084,454.77167,505.73636
-1361.067,356.2113,557.9438
-1828.2501,574.8019,623.7523
-1733.084,994.8268,816.7088
-1139.0344,848.5375,540.5939
-946.48956,547.44794,328.38217
-982.2797,335.8256,373.6506
-827.1041,273.82135,215.4159
-699.00464,537.7256,197.18376
-617.45337,547.80225,111.687325
-587.19684,598.98914,73.64476
-751.6055,620.7637,143.41394
-883.1858,495.5604,235.45226
-961.39294,444.71576,218.7717
-909.0095,467.74854,210.14381
-943.36707,394.31946,190.5649
-861.607,331.85876,157.68727
-843.7282,331.3533,159.23476
-798.4409,349.59286,151.20862
-853.5772,467.87823,102.34751
-975.5974,508.05933,19.140268
-1145.1571,566.8049,-41.88526
-1406.1577,707.96857,41.55906
-1206.9755,704.1673,80.59946
-1030.1652,559.1091,-98.49176
-1208.7509,508.02393,-202.6627
-1256.2609,492.69272,-152.06914
-1153.1405,414.94476,-88.52935
-1065.4435,442.14957,-91.05098
-995.5068,424.4277,-116.99779
-885.8047,450.9934,-103.737785
-754.8157,476.8038,-83.14206
-723.5949,578.33575,-64.91075
-703.3236,604.48004,-16.709364
-625.5977,580.827,74.37935
-579.59106,594.7539,121.17627
-558.5891,549.514,181.32146
-577.64777,552.2778,246.79033
-657.36926,579.6673,326.73212
-916.3875,587.9865,493.6458
-1133.9337,479.18793,549.2521
-1343.0349,419.57224,530.4318
-1431.8468,361.4303,537.719
-1433.4608,281.311,408.5905
-1416.7506,175.41765,259.45236
-1381.6707,90.11369,165.1249
-1198.4911,79.23962,156.76184
-993.66895,263.14682,237.90927
-739.3946,380.40195,177.19041
-558.11237,469.37238,146.20824
-486.1861,403.31314,137.31781
-417.4708,381.72458,117.83719
-405.63116,356.18942,152.40375
-427.46033,400.42526,141.76079
-353.1877,420.55704,86.37931
-545.92615,466.02673,215.16373
-687.06537,395.50806,310.9594
-1017.2541,438.86142,384.01053
-1358.9247,404.91302,489.85602
-1778.4727,422.16977,585.2283
-2022.914,377.6556,740.6438
-1525.872,370.91156,479.05307
-1617.4015,474.92105,367.03238
-1298.2368,366.41098,287.44632
-1276.6204,437.6337,44.92319
-1619.0868,534.01355,51.09043
-1397.3159,392.42783,100.49165
-1069.0471,410.3613,88.70262
-757.10504,480.4755,35.95725
-539.1211,482.97372,7.1861167
-466.14856,504.84598,-18.605999
-425.71893,445.89273,12.161894
-398.88922,440.2712,63.25516
-251.89046,287.78806,62.43999
-225.15567,405.22815,61.37809
-189.06664,403.02774,86.82457
-235.29645,515.08057,134.01814
-262.94077,560.8339,169.33623
-401.91528,540.16077,148.84686
-378.7197,492.08548,133.15295
-394.2299,729.0142,176.90593
-421.6056,883.53534,279.9269
-692.2652,1323.0658,515.62683
-1132.8557,1583.5262,724.90875
-1546.0614,1330.8434,863.8173
-1884.0823,1117.1196,757.35535
-1722.6382,773.23346,449.52805
-1225.5209,548.09607,197.04266
-890.8701,63.073948,-110.1749
-806.3585,-150.42328,-252.39038
-819.11017,35.87818,-160.06194
-803.4637,200.20479,26.036272
-760.8161,222.20271,169.72003
-689.81134,175.71959,186.09903
-630.6835,255.16608,216.48013
-522.87317,315.93182,256.9056
-373.10184,347.76297,181.99133
-284.8792,417.14703,178.98135
-317.56738,313.42838,165.73712
-298.41434,322.36337,175.46577
-451.25647,378.30777,274.48523
-597.0854,368.98044,348.3683
-1051.1808,596.60016,489.62442
-1699.9814,597.8441,597.6242
-1972.8989,375.55203,620.49744
-1834.2318,297.72778,623.013
-1476.8583,512.80994,520.0827
-1445.1426,696.3397,374.5958
-1031.0381,373.81848,197.71902
-973.419,409.031,111.253746
-1108.0858,489.58008,94.37261
-1124.8954,576.7372,90.48476
-1117.8433,710.80963,14.053449
-1055.5714,679.53094,-23.765337
-867.7638,615.5879,-36.297264
-766.83545,611.4453,-9.888868
-568.9185,525.23596,36.438553
-390.92856,410.46713,43.291107
-224.52068,297.06107,66.92755
-219.76248,315.72177,153.55061
-148.42612,230.97862,185.80704
-143.81712,257.07544,128.79573
-175.38933,407.53134,129.18878
-221.42056,496.10767,211.89307
-235.33388,457.7984,191.36566
-311.57495,736.74243,148.22626
-462.71262,1276.4913,253.02077
-952.2503,1813.4686,447.51456
-1188.632,1649.688,502.304
-1451.9501,1586.509,517.0526
-1473.7422,1218.3457,560.0885
-1090.1017,673.8717,418.81976
-747.8065,407.0829,163.93958
-760.8178,301.2869,-40.707985
-830.5247,339.47858,-79.4323
-831.65906,337.19266,-28.350197
-771.88794,382.6238,29.230387
-748.91376,467.64127,172.73479
-750.01385,376.91455,189.87073
-670.97455,326.6366,103.087204
-628.9319,367.99606,127.86828
-595.0085,352.67325,174.53995
-573.2719,359.85355,153.33409
-547.7167,363.69647,133.1226
-596.9291,356.08716,175.76488
-621.83203,327.45337,221.1388
-653.9193,342.48288,225.79906
-731.1092,397.61356,267.73392
-743.23663,412.30093,304.6322
-760.06616,474.58084,329.02612
-897.52527,518.9783,388.5004
-1115.5631,578.20123,382.73178
-1313.0127,613.03564,363.24615
-1421.7229,682.062,387.29498
-1151.153,511.93625,275.1152
-953.09076,571.7097,129.6718
-976.05554,615.2258,37.89129
-988.6861,515.87134,-18.791449
-970.29956,555.99677,-61.31118
-891.6261,535.91437,-134.04504
-825.37305,557.6223,-220.4594
-780.1651,533.76416,-239.719
-786.0032,517.8662,-236.60913
-712.0467,503.6775,-184.23923
-628.0548,524.3061,-122.387886
-587.24023,517.2224,-81.87641
-570.9919,513.86804,3.268826
-595.10583,530.81195,92.13993
-679.077,538.74274,190.78354
-780.1899,489.31573,361.47842
-797.8178,363.83093,540.115
-905.67346,265.6373,544.125
-1203.6031,371.50674,611.42426
-1297.459,478.77948,847.4141
-1080.5713,449.33508,730.73883
-916.2158,300.83603,523.4762
-914.3797,313.77377,466.3892
-1024.2157,432.06146,457.08063
-986.7427,286.75818,450.39734
-828.7234,337.96188,341.28275
-688.89154,435.6832,291.8979
-687.3827,503.67688,295.78067
-693.4799,515.4994,249.00394
-759.352,487.47702,182.50958
-787.3263,430.52536,151.965
-947.2014,429.80792,212.33699
-897.0632,325.6678,199.26755
-869.5415,324.3417,193.56696
-817.8792,323.22772,226.79343
-823.03186,358.7935,270.67734
-811.502,386.27985,234.54135
-1021.9953,458.47025,171.0221
-1250.6066,512.0895,144.0643
-1449.9105,742.624,220.5069
-1526.5481,834.4761,279.56866
-1501.9109,421.77545,46.323902
-1484.0599,333.90457,-33.2138
-1278.2356,300.06006,64.00716
-1032.1176,372.37097,123.54658
-833.51605,507.98392,70.21777
-776.1956,520.903,-23.308153
-695.7394,460.0998,-48.463562
-624.75977,403.3338,-20.898212
-606.91205,402.24353,29.129211
-594.12286,418.99063,74.65159
-604.9722,493.71725,117.289055
-637.1333,478.02008,177.70116
-759.0869,501.27972,273.5585
-933.15405,442.24673,360.23004
-1077.3472,392.851,364.7204
-1216.1559,328.8854,400.3502
-1241.3763,319.05014,502.30435
-1247.0756,321.8107,456.67908
-1337.0377,293.24088,361.3972
-1258.4747,140.00694,323.23282
-1151.6539,295.75546,313.99396
-917.08844,675.9694,271.88037
-692.1582,542.2008,251.27554
-529.14374,471.45026,123.514656
-490.965,547.38617,145.9433
-565.303,513.37836,219.29549
-602.69086,509.70157,212.90024
-728.7794,583.61993,317.93146
-872.375,555.8456,396.68628
-1138.2548,619.2793,490.2583
-1572.5245,644.0463,537.08234
-1724.9332,558.47015,417.29535
-1554.169,448.9051,339.83994
-1290.506,306.87128,222.7093
-1341.8422,301.47137,173.5504
-1241.8612,255.05717,154.56728
-920.15845,254.1838,82.0313
-719.2956,285.8004,65.19776
-615.4419,280.7133,39.682705
-563.5187,262.0597,22.719175
-524.36743,226.79407,35.71924
-525.0185,253.74226,57.730595
-675.7352,361.09534,118.79864
-870.48785,400.68726,172.45753
-1116.4424,423.4442,276.8456
-1345.6887,329.6728,234.00456
-1601.273,303.20923,228.25916
-1479.384,314.80817,287.74887
-1581.9991,310.8853,183.98785
-1588.6748,415.93927,167.22696
-1384.5012,530.80676,266.2896
-1113.3031,547.6473,217.46844
-867.9812,513.9396,203.16331
-750.0762,472.15378,219.60434
-650.29144,480.53537,130.0904
-546.6318,551.3898,61.42992
-553.571,674.22363,131.9661
-635.1137,674.5379,244.31723
-758.1681,698.893,279.69644
-843.3675,690.12024,318.55737
-1332.3318,748.96686,340.4371
-1635.5271,619.1389,298.24435
-1569.1962,383.25046,208.32762
-1816.2633,197.63318,152.70511
-1621.9037,111.558495,108.63722
-1492.823,273.40237,74.07898
-1125.4985,275.18048,70.950554
-925.8492,332.02518,4.523976
-767.0711,296.7647,-41.09816
-579.6047,272.4801,-18.901386
-498.99728,239.80417,-3.2884052
-478.75647,266.9395,32.609303
-546.20435,336.9061,77.01447
-708.2017,399.30466,132.1791
-946.3859,384.0731,214.09291
-1250.0662,321.57944,232.13354
-1591.4819,364.50403,293.12668
-1800.1339,384.3601,436.3868
-1577.0237,353.19986,516.40063
-1395.1617,217.2657,419.02338
-1299.0651,134.55202,378.94193
-1133.3306,264.14093,394.6479
-906.8326,428.13986,263.55798
-665.711,536.7243,128.39189
-485.64194,630.4911,166.63805
-373.07153,553.445,200.18404
-341.55127,504.89185,243.70445
-458.7066,485.9946,275.3044
-641.3381,508.04147,293.78207
-920.92645,526.26294,369.47385
-1149.0734,548.8931,457.76987
-1528.1223,577.1468,485.1814
-1749.0802,530.9907,434.88037
-1512.3187,415.15628,322.51663
-1442.4269,431.61786,238.75914
-1499.9225,339.79456,166.48332
-1254.0776,312.38,106.37597
-1115.7438,318.9958,64.34442
-891.54254,325.66632,6.203053
-664.10333,310.08774,-79.46601
-555.88477,310.1921,-103.98463
-415.09756,229.3024,-74.00712
-370.08493,273.6313,-42.389763
-343.70084,359.22037,5.588882
-365.48755,434.56485,76.379005
-492.32095,644.7243,178.49965
-625.89874,635.9504,334.31894
-873.33374,385.44614,421.67847
-1295.5999,330.75482,469.40912
-1807.9413,395.0046,613.77264
-1956.1556,522.0365,825.75555
-1599.9401,299.35184,601.83636
-1215.3174,129.72441,321.7919
-1173.4594,185.21068,430.98053
-1081.2415,258.60553,315.83145
-826.0886,642.2715,151.7223
-529.8348,790.12787,109.6265
-327.83835,658.98596,102.350685
-258.56522,468.57135,125.554344
-283.64847,366.37747,159.4717
-356.98193,355.24796,150.31718
-532.43646,490.3694,221.57367
-746.56085,501.82388,321.99905
-834.91315,420.94336,329.3267
-1018.55096,374.74973,377.0037
-1368.8939,361.3089,469.51556
-1362.2181,351.7526,489.53384
-1362.2427,411.00317,392.20795
-1598.1282,467.74765,381.47168
-1475.1229,460.01877,248.74667
-1294.5017,344.06815,-40.877472
-1315.9515,249.7383,-60.612984
-1292.0468,125.784096,2.819126
-1125.8857,210.82463,6.609077
-948.4452,316.33447,-52.64639
-766.69696,402.71283,-103.476585
-655.42883,437.66794,-147.21198
-595.7488,405.56073,-118.06217
-561.19916,396.33633,-80.31235
-535.87146,426.90186,-51.0982
-507.495,489.4148,-35.4004
-491.87686,565.1884,-5.1967707
-511.8446,615.3601,27.920408
-526.7938,615.1821,144.10942
-523.7642,603.50995,215.3532
-511.32104,586.13934,254.61714
-581.5637,524.73456,321.0148
-743.9679,416.92316,424.32028
-887.04236,354.43408,590.6995
-1084.1927,464.59467,748.44165
-1389.1235,648.5872,885.3185
-1342.5963,652.55133,806.9768
-960.06104,355.59314,552.13495
-866.5973,76.75549,372.08658
-877.7495,74.644775,344.4534
-860.3725,233.70105,346.69
-808.04785,412.8672,320.84344
-731.1495,542.6532,262.35278
-701.03644,550.781,266.2078
-744.87054,441.29422,241.11783
-805.1815,403.1559,247.49774
-776.0174,406.56058,180.09949
-786.01135,442.51443,192.32674
-835.12354,419.69727,234.54272
-776.79944,339.58234,225.0374
-807.98035,312.92816,234.63103
-797.1313,311.2709,251.67079
-826.0021,367.5785,284.76892
-978.3788,432.26584,276.89188
-1144.2072,490.8605,294.95886
-1384.5294,549.8514,276.088
-1549.3329,697.47034,303.44705
-1373.1482,549.428,222.88046
-1203.9684,379.99753,29.039528
-1373.3148,365.17966,20.469387
-1180.6177,261.9206,19.66557
-1037.8137,336.8195,28.267672
-954.89526,429.8458,20.981483
-799.2503,422.84634,7.958051
-676.74554,449.85272,-1.2134261
-616.5541,406.75058,19.815514
-581.82,393.06772,92.21233
-531.27155,387.3887,172.64972
-548.3579,377.58203,257.1338
-721.3908,370.07166,313.6022
-947.27515,346.9362,335.17776
-1244.2164,302.67654,346.40118
-1477.3942,289.24954,314.2558
-1515.7336,358.5865,379.72382
-1476.0199,383.0535,368.3393
-1289.5681,259.53928,228.51222
-1224.2948,220.58775,151.65347
-1127.0721,324.87894,197.93747
-964.4194,482.73645,144.91974
-743.9,631.8545,108.73572
-554.1231,563.78894,98.09797
-440.57257,471.99963,113.48834
-445.25732,456.54437,185.83278
-444.77368,448.70502,178.56398
-595.5195,550.03784,282.50964
-729.7945,578.55475,357.59207
-1002.06,593.4639,419.6394
-1408.3108,630.49054,501.70734
-1707.0128,652.1985,470.3417
-1524.7844,478.42322,324.44522
-1373.119,319.6782,181.50545
-1384.0728,252.61678,157.3912
-1293.5608,276.6762,155.7186
-1111.1675,332.7197,118.036804
-856.1242,319.80194,52.435673
-712.1706,356.13333,-1.9149543
-592.5407,312.48236,-24.3516
-502.38458,244.7857,-17.205746
-454.86246,220.66888,0.4585075
-538.81964,299.12405,26.134892
-613.11597,354.62088,72.75605
-833.4506,413.56824,134.89743
-1065.34,412.49585,224.55003
-1353.611,328.55276,255.79172
-1669.4805,327.16928,309.34372
-1675.5294,364.88672,464.899
-1501.7112,301.8864,493.185
-1281.0258,142.16214,415.13565
-1121.7628,160.23184,373.95474
-933.4097,287.8349,281.1566
-729.22266,444.73267,197.82999
-571.83844,558.9027,157.56596
-448.112,530.8237,121.88493
-416.57983,536.97424,207.40926
-501.7153,448.14014,285.64957
-531.06085,431.6071,236.49916
-757.6152,546.3333,351.94275
-982.9911,571.2722,455.914
-1228.5784,580.5343,505.8038
-1567.6451,596.4201,542.3807
-1811.6888,424.20663,485.4892
-1443.558,249.6549,366.92587
-1285.9619,300.92996,292.0532
-1300.5638,278.78336,248.63513
-1142.3636,345.64487,198.87416
-983.75146,335.66595,184.53363
-751.7149,282.53958,141.22797
-582.62897,258.28778,73.00512
-477.01627,223.39162,37.118095
-397.75797,197.92642,31.862993
-386.44153,219.95488,82.91413
-488.217,301.72882,109.644806
-653.1354,402.9277,149.61243
-931.96643,496.2754,238.558
-1268.854,387.51254,279.939
-1668.0775,334.73758,294.2467
-1952.0695,480.86267,520.1645
-1700.5121,486.56262,547.5533
-1235.8285,152.40424,250.95135
-1106.9811,120.31795,276.3739
-972.7579,281.04398,213.24588
-794.1154,456.4918,72.333595
-588.2579,630.6313,10.748683
-455.0484,635.5738,53.589382
-398.56314,507.73627,143.23436
-446.68002,422.77316,208.78879
-501.04053,447.78473,234.5006
-698.6459,523.4808,300.7935
-952.59094,658.41095,423.57895
-1192.4316,636.63336,500.99872
-1516.821,588.42126,523.94073
-1772.8365,379.37216,481.6128
-1447.7253,178.95381,356.87875
-1212.0653,213.53543,266.56573
-1220.2335,270.74393,202.30989
-1135.1188,380.93243,147.66087
-960.631,338.28323,91.44512
-766.83057,292.59662,49.4129
-611.2156,330.77692,-7.5998187
-555.1796,320.92337,-46.311783
-479.29633,282.81177,-44.846493
-427.3719,284.61548,-15.06824
-406.58847,357.5492,29.751602
-516.20734,429.9476,61.831566
-738.9618,539.5052,154.55682
-1012.09186,473.1053,248.11205
-1323.2574,373.5185,314.97952
-1614.5277,318.55655,416.468
-1695.6127,324.59885,606.98224
-1372.9784,259.31497,570.8153
-1127.4846,138.2206,362.2719
-1076.4592,28.663885,365.88324
-997.78534,156.10632,334.0497
-833.4127,419.32147,240.82196
-596.95807,627.5474,234.61894
-422.78174,578.4683,221.34872
-351.1198,449.85724,169.51279
-375.21933,366.69757,169.32225
-445.03625,337.53012,190.02682
-553.0621,415.37024,221.47902
-626.7337,459.77112,369.5544
-680.33167,398.15216,576.7636
-871.08344,351.0253,497.60846
-1333.0847,420.743,666.85004
-1538.2296,384.78482,668.5774
-1490.9906,504.66333,463.90576
-1532.1512,592.9648,333.11807
-1386.3749,467.84338,324.0073
-1180.9667,311.7713,95.12413
-1223.0778,260.83386,-52.516987
-1260.102,204.06566,-59.516407
-1133.943,285.06708,-45.47401
-982.5106,366.93967,-50.05703
-851.3079,445.70728,-131.97757
-711.2812,468.06717,-194.67966
-649.7498,493.04398,-155.59972
-645.9488,512.0968,-156.77039
-574.4222,511.87585,-154.15419
-537.1145,558.02374,-136.4371
-481.01776,536.89795,-67.04447
-457.34967,527.38696,32.8623
-440.78006,548.10785,193.6221
-427.5189,540.85706,279.0349
-483.44568,599.4206,387.59995
-597.81476,499.90152,469.52142
-752.2084,297.27786,586.32556
-919.6356,90.194,727.4651
-1187.6462,147.75592,698.04517
-1485.7501,457.40475,730.12604
-1333.45,663.1984,819.2628
-1008.41925,478.5483,607.28326
-1030.9786,316.50873,384.26385
-997.4579,215.6746,340.00815
-881.06854,256.3528,248.506
-832.5437,379.43756,165.60342
-749.0989,504.42102,124.9244
-719.0358,570.3349,167.82161
-670.58264,543.496,212.60556
-681.84265,487.89816,251.05986
-689.15424,465.57162,277.88043
-768.9001,465.52924,251.96971
-833.92017,413.76328,216.27847
-846.2073,343.42178,176.35143
-911.7429,361.41217,224.65434
-1047.443,347.40167,233.89143
-1152.2312,375.57718,211.96272
-1437.5543,595.00287,214.64334
-1787.3939,738.9832,153.44444
-1356.6862,516.1242,81.3285
-1328.8759,308.0875,-22.513105
-1432.9464,269.2715,-58.171463
-1266.3501,304.1757,-69.79309
-1019.3181,360.65454,-78.487816
-892.92194,367.95184,-91.552246
-730.46497,401.3075,-75.4073
-655.4985,420.16095,-38.62527
-570.0731,387.88556,-9.193028
-567.0881,355.62735,38.091293
-569.90674,394.88675,111.990105
-747.0892,458.77094,193.16351
-956.60645,479.35483,331.09668
-1111.3645,417.33258,393.12067
-1256.4701,276.43854,322.0487
-1522.7114,276.1827,393.91254
-1527.2372,293.2683,508.39224
-1436.3799,281.1375,421.49762
-1245.1494,213.6825,294.1185
-1037.9797,231.77684,335.1448
-825.8518,371.24908,212.58641
-651.10034,559.9617,128.24614
-519.37976,550.0165,129.70786
-443.5408,510.6,112.341675
-480.02725,473.9319,202.42754
-570.8461,427.93243,221.66113
-666.11383,467.76935,219.69434
-809.4619,524.01294,292.21814
-1181.6702,620.59845,350.2046
-1525.245,685.1775,392.37738
-1461.4287,560.3266,361.03442
-1342.8694,331.3096,246.53592
-1443.3779,233.81097,222.67636
-1413.6735,167.76079,235.76276
-1258.0896,248.1686,210.06691
-1106.0044,284.21445,158.5393
-854.74255,298.0347,107.683525
-692.446,335.26266,81.97683
-556.5502,253.19154,53.480415
-477.80594,198.87067,35.680492
-471.19977,189.58984,59.469975
-597.47375,294.75195,97.80242
-776.18207,515.871,173.70801
-1001.2977,582.16046,227.25768
-1234.2397,434.8904,210.09047
-1466.5111,310.70834,249.00702
-1532.1967,369.00507,412.1954
-1504.1073,414.80142,454.71732
-1366.4169,369.75137,356.91226
-1184.0183,240.0992,325.70227
-995.56885,262.84186,273.97336
-757.03436,417.7403,154.53706
-599.3736,546.4931,153.1768
-513.91614,531.5757,97.14891
-432.40054,582.553,95.35291
-446.95493,521.4652,207.0832
-518.57275,495.95612,289.71228
-691.8478,554.90393,355.22778
-909.26917,571.1917,394.18198
-1342.2473,636.3196,429.42987
-1793.595,587.9881,458.1639
-1675.374,570.33527,432.00778
-1346.7291,419.08707,301.20523
-1460.9316,375.51743,268.44412
-1425.3396,288.60464,230.48721
-1097.2476,267.81845,142.94456
-881.3648,322.69022,83.87085
-718.90607,327.90903,60.0168
-557.2293,308.25357,21.558908
-477.32596,288.8043,19.365887
-411.6402,221.77011,9.821643
-424.82874,230.70775,21.802994
-567.65594,355.3363,66.677956
-784.80145,488.61252,155.71658
-1057.874,531.6822,229.87685
-1310.6862,409.25974,244.23982
-1658.6732,383.17514,379.3055
-1697.651,344.624,515.39325
-1574.0348,288.8739,447.47525
-1323.0416,186.96953,385.55865
-1160.3658,177.64153,405.22397
-889.11975,419.02585,239.32066
-670.1941,507.34827,149.95842
-557.27106,506.72644,144.8577
-460.60086,516.91864,122.69954
-486.46323,526.5317,207.82135
-490.27094,439.11246,188.28203
-606.4785,495.04605,207.0439
-804.5277,597.1799,300.72516
-1068.4518,680.3033,332.006
-1560.2896,823.52356,389.51608
-1695.6202,695.2415,315.4771
-1542.8328,466.7179,199.64856
-1652.6476,373.7093,227.81715
-1673.3892,123.820244,191.88235
-1486.6013,263.2785,167.11937
-1221.9158,257.27753,107.20411
-880.08356,217.28275,24.933035
-660.00256,255.83391,7.0387926
-494.89062,201.6815,-11.831527
-399.41922,159.19455,-8.716172
-280.7623,125.190865,1.7054346
-296.32574,251.43517,18.479576
-328.0569,365.56064,46.93824
-550.8479,530.732,112.665436
-797.33875,562.93854,206.84605
-1159.3947,386.29974,265.6779
-1768.6947,373.64682,348.5795
-2217.8967,494.34134,657.3061
-1811.3313,515.6207,715.88214
-1293.9717,278.81683,431.33478
-1218.513,49.35158,397.24615
-1088.2872,69.75201,330.90298
-874.4792,290.39685,200.7873
-645.6359,524.43805,155.09872
-473.77917,638.6249,174.76175
-366.1678,544.7299,173.40057
-344.26877,426.22745,202.45453
-393.18372,314.95215,224.5612
-463.38092,341.26407,216.89008
-609.8524,413.59427,250.29599
-759.4622,392.30588,317.0651
-876.106,305.96848,341.61237
-1028.694,225.43213,368.5231
-1109.967,167.29973,441.9988
-1284.8701,185.05226,517.2373
-1208.2511,258.86487,534.4242
-1302.5282,377.12808,453.80096
-1586.3065,464.13947,382.40582
-1424.0807,345.0696,246.11864
-1170.8147,195.75815,8.961769
-1089.8116,114.681786,-80.60607
-915.03125,82.19909,-36.12103
-824.76587,230.4828,12.735684
-874.2357,397.68362,-5.8839364
-834.37976,502.44275,-68.707886
-814.5155,452.35184,-130.02641
-821.93726,382.991,-87.27437
-830.69104,371.58398,-45.552334
-836.5353,409.63898,-48.792233
-790.5551,420.77716,-52.984962
-750.841,407.4828,-6.649459
-730.29803,401.55145,33.654396
-725.1005,411.2701,66.90411
-675.23914,406.6688,76.98352
-683.7898,412.43433,110.127686
-738.504,423.21207,159.31277
-930.511,452.18436,264.8849
-1024.0149,428.07755,359.73245
-1090.1552,425.16113,493.82022
-1161.1995,364.4245,582.9819
-1053.6853,332.20233,619.9485
-841.5217,299.66956,590.4228
-656.3,298.72476,459.1643
-722.525,284.86816,373.4698
-785.8729,283.8509,351.1699
-851.351,302.84094,336.06314
-814.1677,353.81552,298.42395
-854.69586,432.4014,298.2702
-829.45404,447.52582,295.95352
-842.10626,458.7632,235.13402
-841.2979,446.43826,232.77774
-829.44464,407.27338,248.15804
-771.6802,400.4746,228.38052
-801.13416,388.67758,291.96854
-822.3904,318.59982,287.485
-799.0033,295.81445,260.18237
-910.6896,359.33246,272.97092
-1086.9698,458.3381,303.69403
-1296.9447,531.1723,313.01245
-1694.892,731.71826,391.44608
-1344.7207,574.3861,298.17114
-1094.2213,320.97488,84.60327
-1372.9609,331.189,46.66728
-1307.367,251.21953,48.78331
-1111.2122,327.4312,54.756992
-1024.2219,409.37564,14.485727
-898.78253,396.97165,-18.670563
-773.67926,398.8471,-54.357624
-656.46387,355.5191,-54.578854
-571.44745,331.2297,-5.3913336
-540.7481,362.57288,76.267105
-556.93,389.6781,184.37538
-608.27094,390.51175,273.48355
-852.04175,376.2877,323.89645
-1103.2448,302.053,332.5308
-1344.4822,273.51794,342.53064
-1522.3501,322.57272,408.44077
-1507.7493,428.21844,516.8552
-1320.5238,282.1037,415.19724
-1169.453,123.79419,252.59837
-1051.2205,122.27045,303.7267
-1017.37225,342.6477,304.43353
-777.8453,555.7909,177.0064
-592.6109,590.7631,178.96666
-458.07983,501.1892,163.63591
-472.71667,423.51794,207.60863
-502.68695,405.37357,200.08743
-643.3823,495.90756,249.84006
-757.5501,557.1272,321.04437
-1044.386,562.1697,393.19275
-1270.1421,570.3072,453.14224
-1616.8992,581.85254,441.1334
-1538.0646,515.28656,378.00888
-1364.3586,362.31985,225.15286
-1352.5464,278.26794,170.1279
-1333.7795,205.8849,178.10431
-1227.9131,246.39587,180.98074
-864.12683,233.01367,98.18451
-657.9659,282.39355,49.693344
-547.6124,313.197,22.471563
-519.6244,326.53192,31.690344
-435.71527,255.67609,8.665289
-463.3799,285.72955,34.429703
-603.28424,358.84326,89.35528
-880.8361,491.30164,215.87225
-1140.1282,424.67596,268.4802
-1470.0985,362.4589,284.498
-1706.5193,302.41962,408.77332
-1655.5305,310.9032,583.0443
-1362.0316,199.80658,417.21417
-1197.0085,196.54535,352.23584
-1000.0984,224.78033,343.99503
-848.9211,340.57623,267.82977
-705.1397,499.33453,191.41821
-564.6918,511.64474,155.46645
-455.2149,486.12787,140.2062
-438.94925,467.0711,182.13168
-530.4466,470.48416,241.7906
-638.2289,547.1263,269.99417
-838.22845,655.1085,443.53754
-981.04407,660.74927,492.71024
-1154.4093,572.1525,495.72946
-1422.5519,476.69727,558.17316
-1775.1829,477.878,611.3388
-1482.4685,420.31262,531.8923
-1251.1527,368.6549,327.75256
-1367.94,405.07626,260.328
-1187.1974,331.7668,178.69682
-899.8363,302.06378,89.50582
-692.65027,308.69342,38.13123
-563.833,339.4104,14.700713
-443.6028,319.49994,-2.266855
-391.13733,281.00378,-12.47996
-373.1712,246.57129,-3.8860836
-463.35168,313.2778,43.41666
-635.7361,397.2342,103.65436
-918.6168,456.48804,218.42087
-1183.6586,388.90518,298.30307
-1496.691,364.45877,321.96082
-1735.2637,364.2195,439.5679
-1719.2518,446.00894,600.4091
-1321.2544,242.57451,457.16586
-1102.914,11.226922,315.15686
-1009.7146,46.34818,302.044
-877.32446,271.0647,197.62622
-720.84326,521.78406,111.59992
-556.95715,644.40735,124.39599
-427.59796,572.6443,161.94455
-405.68063,483.42554,214.95218
-466.9827,417.9447,270.20514
-562.3498,513.1794,305.59055
-736.6865,602.05963,388.67114
-1001.7507,686.79816,461.90512
-1284.6001,735.222,446.12204
-1676.6868,725.51495,430.97226
-1458.6232,387.0989,322.88165
-1175.4506,308.69998,219.80348
-1426.2661,284.41873,186.12865
-1313.2231,242.08464,164.80025
-1131.2054,351.40082,104.65558
-962.3991,324.07687,64.2458
-774.63873,366.95926,65.281136
-651.2682,347.96042,0.34874398
-558.2736,247.77533,-20.872454
-488.13443,227.33989,-9.477984
-432.75104,244.11021,51.737705
-416.6275,324.18222,95.08383
-592.7692,460.46683,153.34088
-800.61633,545.1995,239.14882
-1085.3835,480.2091,302.20267
-1384.343,335.82224,389.3048
-1640.4332,314.16757,551.7936
-1681.2914,366.96988,681.6109
-1317.4095,277.19833,509.65387
-1130.0773,110.28401,384.86996
-1089.5885,99.803856,416.61276
-1050.271,228.47316,374.20496
-796.16724,392.53952,240.77371
-564.21765,597.58624,200.5583
-429.053,566.79266,225.38979
-382.93002,472.7197,182.3577
-391.91418,428.4065,178.27843
-458.81448,373.58893,181.17622
-556.52045,411.12207,216.28886
-655.2259,412.47174,246.7679
-778.15283,373.20044,308.82788
-904.87756,345.97556,403.69873
-973.40125,300.64334,475.5588
-1170.8492,306.60248,521.81744
-1322.9469,306.61838,511.58713
-1485.686,353.1266,466.99814
-1690.1072,319.3147,337.32486
-1488.2917,172.58109,138.95535
-1296.0397,86.248344,-17.92476
-1199.4786,22.133352,-75.062584
-1140.9799,78.14598,-73.649994
-988.3557,240.45494,-101.65129
-877.4561,375.48648,-117.09357
-739.26166,408.05075,-150.04622
-679.7357,372.49896,-198.16751
-616.182,406.5607,-158.93379
-649.1068,426.65836,-108.50785
-655.54816,468.2673,-55.653427
-647.50995,513.3788,-27.13094
-680.5929,545.97363,-15.124637
-679.47217,547.646,37.26563
-672.37445,544.9351,91.80273
-681.2304,517.5282,138.30862
-694.15125,484.45596,190.30252
-703.5855,453.884,223.03734
-797.9211,438.0307,306.18826
-935.1492,402.64844,378.20056
-1004.54474,358.42313,442.02353
-1041.6697,311.8699,501.332
-1112.2329,336.2216,505.27487
-1271.6571,451.93024,553.2369
-1144.1082,514.6045,565.8786
-756.6932,436.64545,419.0143
-843.3998,371.25244,327.52518
-950.8226,264.9474,291.8709
-910.3328,231.21327,224.82318
-854.5985,283.99054,181.8313
-767.14606,334.3365,173.93607
-809.88135,373.20245,186.51424
-869.9308,377.31143,201.03827
-865.29706,377.90973,189.28064
-841.5807,375.41653,226.66354
-812.0121,358.821,221.27188
-834.93787,355.47586,181.90428
-772.39026,298.09387,183.55986
-727.2788,276.97263,198.42299
-731.52606,327.70374,236.49829
-839.94385,361.24387,298.65555
-847.02295,356.71957,310.736
-1052.8224,390.5894,350.46893
-1243.6344,423.23972,373.75723
-1626.0787,668.04065,407.2878
-1484.2501,601.32556,288.19775
-1190.2214,285.46365,22.080763
-1400.1464,193.30762,-19.818192
-1258.354,116.677505,-16.258572
-1045.7715,295.16394,26.919224
-964.63257,444.0554,6.322926
-858.7122,467.60394,-3.7092855
-717.4831,429.15326,-8.030989
-677.0645,384.53522,-16.04443
-627.99664,331.85446,12.336791
-583.7315,307.30426,69.81594
-605.65497,351.17258,167.21333
-662.58453,345.8593,228.25336
-828.10693,354.42224,262.79016
-1135.0524,340.53,323.62964
-1354.2161,253.1837,326.01096
-1580.7206,300.45593,384.82745
-1549.2444,337.52106,526.5531
-1265.2202,250.74867,423.07004
-1160.0828,169.45895,295.10245
-1084.2955,172.69249,280.1888
-932.3364,321.92203,196.0608
-715.007,484.83032,122.03155
-566.1366,537.7801,77.08914
-456.88416,532.0312,124.44321
-452.1754,460.2524,156.95172
-451.1098,409.60266,153.38637
-580.89215,479.395,206.21893
-743.1644,525.19794,298.25006
-904.63574,575.45325,376.76166
-1187.0878,616.68726,487.20685
-1622.2067,669.51495,522.5922
-1700.3123,489.3777,393.07568
-1336.8713,248.55806,272.11298
-1246.1766,220.9224,220.22574
-1264.6151,182.93991,201.39606
-1236.6047,300.74423,184.70549
-1002.22327,300.74225,116.49329
-807.0981,276.44733,34.663216
-630.87616,291.24084,31.693386
-551.84985,269.17752,16.76513
-480.16855,214.57086,9.348408
-436.00592,193.73564,16.18682
-477.63507,191.84383,41.599426
-725.2261,250.49214,93.304955
-1001.25146,316.95496,152.02223
-1368.572,424.81787,241.4274
-1620.3632,385.52524,290.35965
-1842.8148,377.87054,445.2171
-1652.2537,304.47235,612.44904
-1116.3062,155.49564,438.7586
-1052.9338,8.779419,301.67957
-994.7668,106.95094,250.30757
-840.5519,295.09888,163.90962
-634.90717,510.48727,140.31914
-460.97568,613.2546,192.8847
-324.35223,521.00946,170.73048
-309.31708,434.21832,172.70374
-410.84946,368.5796,214.51157
-527.2886,400.86374,223.20702
-670.3732,523.0682,332.22855
-806.62744,512.22986,402.95392
-1184.1484,595.7294,484.0849
-1851.1611,599.47565,702.03125
-1993.9717,441.77515,638.39813
-1522.8743,182.45117,391.08698
-1195.7872,208.94852,377.5905
-1185.6016,372.82053,332.67313
-1126.1714,400.5617,234.42642
-1002.8072,387.2744,131.90048
-811.1308,259.12216,67.71911
-632.50214,240.11551,39.199604
-493.75687,247.74214,25.850906
-406.9642,266.57144,-2.7810538
-346.84067,251.5382,-0.3043825
-363.59262,261.8488,11.140838
-422.5293,287.7598,57.7202
-652.4148,400.64548,138.12122
-894.6546,428.84106,245.11465
-1329.7633,439.8326,336.72635
-1717.7299,406.52716,397.99426
-2018.0859,401.63745,583.8365
-1622.7478,309.21906,599.4759
-1079.8903,83.58251,382.15625
-1041.8429,118.482544,382.91025
-918.76074,211.11957,313.59128
-781.52295,403.67963,184.48186
-604.32104,591.607,160.3105
-455.9091,570.0182,217.82912
-374.23544,442.55814,261.32407
-370.21164,367.9042,290.68903
-427.82544,349.0971,272.4511
-650.51917,415.15994,333.78375
-847.6906,421.7453,394.4407
-957.713,393.16187,461.61987
-1111.0112,393.70532,470.4274
-1334.5466,455.6039,468.98227
-1422.5006,586.5747,460.53714
-1336.4656,483.92374,366.44565
-1236.7694,257.09686,199.71803
-1119.4274,198.99428,152.97392
-1126.157,205.15656,176.87793
-1027.0748,266.08508,189.6405
-811.80383,355.6601,155.20767
-665.5609,361.35138,99.872986
-566.13055,311.87918,64.837364
-523.79565,272.12756,49.139114
-492.18542,232.52516,62.7658
-540.2989,215.70633,78.199646
-669.76044,258.38516,107.630226
-898.2061,298.64157,162.49757
-1181.3013,320.23013,233.36375
-1492.8888,321.10382,286.46872
-1697.279,311.73627,341.8425
-1726.7495,330.60272,491.37766
-1207.872,237.90817,426.55682
-1009.2904,205.04698,373.9443
-1020.6839,170.11649,331.9059
-872.7595,240.79836,271.35675
-767.3655,343.615,205.01434
-674.6898,420.73,188.6961
-572.0772,455.43118,193.78278
-500.5605,460.14337,178.95981
-495.90057,440.35846,204.65492
-544.2223,399.1413,263.041
-641.0268,397.6564,331.64572
-789.8208,411.85095,415.33575
-847.172,365.6788,534.79407
-915.94763,290.77963,620.80176
-1003.11646,239.2662,658.5732
-1105.8715,191.03563,615.4981
-1392.9868,415.63443,598.9395
-1296.9547,416.08783,537.50195
-1081.054,357.02417,394.2854
-1108.9634,371.93878,295.4124
-1011.39496,409.63412,222.64766
-920.09906,465.99323,146.88892
-857.6415,468.26428,84.817856
-804.7843,510.48553,94.74668
-694.791,478.4529,93.46101
