# PAMAP2 dataset (wrist-mounted sensor)

acc_x[mg],acc_y[mg],acc_z[mg]
-655.6938,211.40434,81.24837
-980.50793,421.42722,302.39923
-1873.3861,949.75134,597.2471
-1700.6902,757.7607,336.0583
-1392.1819,396.33844,210.7751
-1295.4933,1261.4044,770.1134
-1203.4756,692.68353,684.53406
-1139.3771,789.6582,576.99286
-1251.9913,819.9564,645.7175
-1432.6001,1005.5042,766.03064
-1621.3901,748.0662,311.3619
-1476.4824,582.83636,461.87692
-1409.6809,762.60394,233.11096
-1070.9084,319.0758,183.40562
-746.469,460.49335,21.79536
-515.2623,291.67905,90.51738
-452.97772,330.22507,89.09491
-253.1154,206.26317,54.98769
-238.35541,261.8948,48.131363
8.938276,154.57353,135.87418
46.949707,129.79527,44.743065
148.05148,305.3223,524.96387
98.791954,2375.522,1539.886
316.8349,396.00195,629.067
543.753,177.23239,838.501
-1047.603,1360.2162,1015.6282
-1936.6356,990.9036,-45.67548
-660.50323,585.1584,-172.5161
-160.43246,-1121.7039,-400.77115
-394.91748,1516.1238,798.08484
117.097916,1723.5563,839.1446
-336.2959,589.55225,279.57938
-1032.7881,1861.0142,417.21054
-255.65512,193.04356,-128.40413
-455.09976,-264.05386,165.7012
-620.8277,479.83417,197.69626
-610.3655,190.29485,249.5678
-664.2475,459.9903,250.75826
-1279.7218,318.341,240.2418
-2439.7632,1413.4347,616.6959
-2147.5483,600.04895,600.34973
-1613.2125,758.2376,754.8074
-1313.447,921.2791,574.50574
-1612.7863,630.1068,316.0051
-1378.5265,698.30646,105.34127
-1079.3202,691.0037,122.836266
-835.7633,911.7266,120.68798
-603.00134,278.44217,-175.58807
-435.11163,89.91688,-57.84314
-216.89806,-21.555803,-138.93872
90.80758,-130.40417,-127.22883
241.71208,-93.51316,80.81091
294.762,-476.48447,-341.55878
63.678783,1309.6821,715.0494
-287.58212,2348.8037,1065.3271
-304.38824,197.37413,240.79619
-700.6516,1163.1179,807.881
-1128.6179,754.08594,497.89337
-1133.504,704.0567,464.62976
-925.6075,660.80707,399.39078
-596.03406,871.39276,506.9494
-206.80847,616.4563,355.50104
-126.20757,693.0339,296.08643
-217.26161,497.2238,401.8412
-393.94394,1114.9556,481.96432
-61.34585,592.2874,156.033
-133.03778,598.82434,478.7964
81.49267,654.06177,519.12134
265.9387,655.33575,635.8643
-446.2401,926.3627,497.076
-812.3181,841.26654,422.7428
-3049.1301,913.58997,539.32495
-3093.4243,244.52538,512.2515
-1563.7198,406.09732,831.1493
-1284.054,1021.53156,608.05884
-1115.2222,743.11816,114.148224
-997.7372,751.6254,99.0327
-447.45596,567.34827,72.37955
-350.14056,151.61574,56.675236
-161.23079,199.44139,-174.51323
-145.48547,134.05074,72.203384
29.359753,-5.90455,-231.82275
110.666695,19.586348,184.97168
368.47635,64.89672,-44.6883
230.45541,-59.928875,526.3256
255.30142,3173.0913,2082.7615
257.9822,258.08063,289.30695
-551.66943,689.73706,516.8601
-662.2989,1106.2883,711.20074
-1082.1841,810.7873,652.8568
-1131.4032,770.72845,436.89224
-877.41864,455.2001,63.81867
-185.15845,-99.882515,-293.35764
-52.13024,-424.11545,-223.36555
-396.54364,-167.63873,-102.92801
-609.92377,230.96956,148.47282
-1800.3953,642.35834,623.59174
-2481.2197,1037.4108,648.271
-1802.9348,819.5842,330.92914
-1527.9004,738.95325,818.8008
-1277.3922,899.61975,734.50134
-1325.6808,485.70682,828.9301
-1766.7756,646.9205,681.91797
-1552.1083,18.604033,277.56436
-1373.0071,765.04,397.08038
-1564.2053,476.89935,330.62735
-1356.4741,670.4167,24.294472
-997.3611,448.59222,-14.73701
-800.5656,477.18976,157.90088
-477.6568,191.30965,118.05424
-369.72635,440.56372,86.252884
-115.858,140.118,56.65624
-95.18639,323.5686,109.537056
77.47994,52.02352,89.208855
89.27902,422.81537,115.46569
53.799515,-38.45914,31.471817
45.373543,1300.0856,1291.0637
157.44171,1476.8717,1295.965
-168.18684,618.16833,667.524
-1596.6417,1463.8743,967.3117
-1616.9027,730.25287,-64.499
-1179.4792,-40.516403,60.79207
-565.0639,2172.597,1329.4121
985.3373,235.65523,214.78494
541.7883,658.92773,739.9534
63.511894,1439.3994,1012.9206
-231.2241,253.18512,115.730545
68.07533,-652.9001,-384.56537
-26.049225,876.4152,679.7941
152.01361,836.18164,534.7659
-420.19086,-53.71667,-12.007005
-1555.7827,1047.672,401.4205
-1878.7855,1209.2821,534.362
-2644.4297,471.27997,521.0476
-1968.5554,123.45889,408.42004
-1603.8015,529.18256,987.07166
-1270.5924,572.7238,557.176
-1175.5747,577.20557,387.16595
-987.7755,634.05786,231.71753
-780.2853,847.6532,149.74808
-606.36957,527.06085,-21.103651
-487.74234,517.13477,130.27979
-320.22562,333.02182,-88.50046
-139.70944,95.762695,47.978333
-46.882504,246.67561,33.326843
148.1298,68.003555,147.87311
104.609344,207.54915,24.421568
190.39081,-714.9529,-41.05155
-149.76268,3353.0151,1532.1826
190.79033,1142.3126,565.54913
-216.6515,409.6285,729.7867
-1006.15265,1064.3534,483.8219
-1255.104,452.40704,226.55974
-834.36774,857.45544,387.1439
-580.66095,792.9709,545.63684
-284.0962,630.0454,214.96378
-296.55988,866.35657,345.8474
-236.66606,761.1273,102.40436
0.19642045,800.62964,470.78247
183.55984,966.7496,440.33603
364.17328,387.5147,319.7758
259.56186,1002.39056,582.76917
29.438179,693.93994,522.3598
24.716028,531.668,295.6058
-5.3942156,408.1033,582.4245
-338.5557,1146.1444,887.69794
-2261.1243,976.146,733.36
-3572.0586,1276.0538,72.770645
-1796.4746,206.05019,151.35783
-1129.3296,1207.8655,720.5229
-900.91223,657.585,238.37866
-816.5211,474.8768,130.61603
-642.4874,386.31036,178.97232
-524.2043,415.1783,95.070366
-271.43726,184.4658,86.65741
-157.76404,490.9069,113.59862
87.784294,-73.62402,-72.396774
237.09381,208.15707,160.23502
285.62344,-261.1977,-81.966354
239.55617,720.2275,630.41315
143.7328,2522.1794,1199.8401
-352.38876,122.2538,367.8695
-439.5034,941.7361,496.05917
-1084.563,628.84326,478.54944
-1033.3889,941.78845,767.017
-832.2112,787.869,235.04305
-560.87665,424.82526,326.72894
-437.63824,715.64514,296.41653
-165.25473,540.5558,346.8979
-446.84958,986.9473,476.13455
-522.20013,740.46265,287.20657
-414.64935,586.6584,247.28809
69.51483,519.2914,517.9952
-263.42822,976.50525,664.4838
-110.32751,389.14597,574.3163
-16.388771,356.09525,927.62445
-32.65702,-684.79834,403.72842
-3764.551,783.9665,354.17365
-3602.2407,435.26825,104.453896
-1124.736,822.21,270.25583
-1323.1372,998.5651,679.87164
-787.37384,160.15884,48.23436
-1106.9613,836.5704,173.10625
-730.1812,618.608,73.293755
-594.12933,815.74493,181.4664
-371.51892,169.60732,93.34689
-356.53357,638.4464,14.461732
-276.24084,126.47364,-47.064095
-80.08665,324.53943,176.87614
109.66311,-112.16393,-260.29102
-82.8499,370.58475,365.50513
-88.68659,-191.719,249.15321
-1120.4839,958.7771,540.44403
-508.55487,2588.3906,818.0581
-1136.8544,-1045.7072,-53.56846
-1939.603,1232.9646,613.07367
-1397.5519,375.80112,40.011047
-1249.5032,594.6852,282.4922
-613.58746,307.37524,209.08571
-503.83008,537.58606,648.5871
-607.3233,312.40005,385.6664
-738.04395,525.0158,267.38293
-683.756,378.01962,295.54697
-706.5324,372.30856,430.105
-775.9632,313.55267,254.20428
-1479.417,501.189,353.36273
-1546.2894,910.82465,230.55174
-1434.1158,992.84735,693.70526
-1445.8501,1097.5419,725.6201
-1421.8898,1182.1538,583.3054
-1417.3806,820.06445,746.5988
-1226.275,1069.0433,459.56024
-888.02466,416.424,283.5355
-619.786,580.9186,311.64502
-508.9463,368.41733,44.78973
-421.23978,442.47586,174.49214
-320.57938,235.65979,20.385887
-144.3238,123.255905,60.414642
-93.50711,309.52554,141.05002
-1.6274306,-10.166009,-15.251729
-5.846156,287.3557,173.57129
-55.606926,-255.28493,-21.356678
-66.25121,1667.2924,836.70264
-329.8244,3044.9412,1381.8054
-213.69891,-161.13673,76.66688
-905.17993,1268.2214,819.1432
-1167.513,738.912,445.03687
-758.916,496.8875,491.4099
-320.8419,1111.0469,846.7583
-326.52582,1152.6073,698.2874
-323.79883,16.362312,128.92575
7.3345222,40.999725,226.11464
-98.15809,49.492203,-85.73349
140.8733,93.04032,73.511696
-527.50977,-62.301895,12.058058
-778.8146,1125.9158,634.77246
-1677.5603,252.05493,870.5581
-3061.6675,926.59705,282.57367
-1621.1667,-385.1481,-46.25407
-1474.0662,1074.0813,991.5086
-1592.0004,664.3032,927.25433
-1211.5981,-184.44034,383.9031
-1511.285,508.47473,321.13834
-1493.436,429.76358,450.48087
-1251.8694,381.11987,183.49503
-957.3663,426.3254,63.666733
-895.5848,416.49664,66.54774
-564.7915,440.31,-3.5406744
-562.0613,392.16766,63.561787
-233.8707,265.5503,147.31166
-236.53786,222.46674,131.18747
15.233767,259.07108,282.27457
-57.885395,152.82027,158.07082
328.59137,670.54333,485.96268
86.595894,1064.5566,569.74335
482.8422,789.90955,534.70123
68.877686,468.81674,543.02484
-778.10895,923.37537,831.76556
-1721.1621,1123.2266,271.20193
-1849.8341,681.5224,145.0154
-1393.4569,685.5582,112.85187
123.003365,279.53732,378.0865
422.76984,403.42828,1048.2561
215.35524,463.02826,697.3531
-963.40955,1853.6772,839.6159
-540.2867,559.319,-31.528545
-410.65088,-462.99374,-137.45485
-276.25555,-12.076231,20.240314
-380.30505,-213.60509,270.96927
-1225.4551,385.81653,438.5067
-2550.822,424.7011,630.7344
-2334.442,811.2601,516.5827
-1600.0503,1037.7915,640.2717
-1476.9088,692.92523,733.73517
-1073.5015,327.5071,367.23282
-1559.8848,581.90063,286.7658
-1222.7108,207.55316,91.55063
-1146.0212,600.45276,135.16545
-1009.1156,327.95728,-5.3939543
-909.50696,505.2918,50.537308
-629.4398,257.85913,110.27822
-467.5401,434.2043,74.38588
-269.69742,422.73624,92.782875
-191.37138,590.65186,240.59541
27.29816,489.08746,202.34105
12.769121,550.6848,288.32806
412.3916,-153.1626,204.77502
282.851,812.2345,718.69415
130.24821,1330.5275,959.79456
-101.77595,563.73615,366.0353
-1036.8883,712.54376,386.08005
-857.82294,281.03055,414.98468
-1112.1199,1206.1659,384.9997
-462.44073,682.64105,458.16788
-527.8484,402.164,551.87634
-684.29474,421.04407,263.96405
-379.41357,226.77737,328.68597
-479.23547,875.97626,640.15393
-641.39514,419.47067,317.14655
-577.1879,671.18536,190.16405
-599.45465,466.87015,144.39816
-666.8325,802.3464,257.17783
-1119.125,255.72223,190.82397
-1763.9008,935.72565,460.96777
-1485.9648,721.2109,435.20825
-1543.3688,1180.1985,1020.8556
-1478.9377,1110.166,482.95102
-1603.5438,1142.5598,562.32654
-1432.9346,724.8547,80.00628
-1314.0178,1178.8602,-223.93462
-995.6874,261.6316,-85.711754
-654.7379,863.3405,49.56281
-344.90994,2.2791836,-176.36139
-289.70645,461.9143,120.67175
-103.47084,45.01128,-151.38167
-117.450775,383.87183,196.776
137.96524,-223.19637,-138.14111
154.34328,407.84726,199.5951
131.97746,-849.3876,-290.4728
-509.4681,1504.0948,878.6251
-755.37396,4065.2678,1451.2113
-592.7057,-652.3537,244.2086
-1778.878,1701.6938,565.21515
-1558.3466,247.8863,111.58583
-833.0493,785.11523,601.41534
74.15625,626.8317,946.9024
166.3805,981.929,983.42786
341.49866,74.92857,618.7141
22.190945,394.96985,1003.57495
147.81598,728.1685,918.3673
-128.23766,825.79504,455.31296
-73.647095,361.37692,369.80914
-168.35718,597.8443,314.2202
-352.51093,710.0302,344.11325
-1576.845,580.0033,360.04742
-2375.228,1483.6161,-69.05322
-1888.4615,817.7878,525.8456
-1589.8309,1126.7888,622.42926
-1394.0922,822.24084,433.27875
-1403.6355,960.1191,465.85275
-1093.4883,885.9149,43.773834
-938.0941,864.9022,98.705864
-492.7694,740.76337,-59.57273
-432.68658,561.8394,9.291983
-210.04677,117.82129,88.95804
-132.57637,401.8327,26.168129
-0.74483144,-152.18642,89.918106
39.037136,380.05032,147.1015
237.24973,-245.84793,145.33807
108.291275,664.0196,68.7018
-128.85582,-1045.0177,336.62332
-1015.03204,3531.4324,1720.7173
128.46393,2521.276,507.7906
-1224.1844,469.73672,851.805
-1502.3221,885.16534,90.95034
-1187.1617,-29.15412,251.55112
-381.29495,559.8994,521.9584
125.174034,-718.8452,646.356
-223.5837,229.898,619.8207
-159.18309,46.697166,281.76572
-737.3479,649.5254,522.09406
-1053.9459,820.8775,549.8265
-1298.3851,1105.3489,266.33533
-1387.6556,889.778,406.7099
-989.1963,651.50183,91.66413
-989.19727,495.51578,260.3924
-1086.6337,709.1539,303.0783
-1377.2211,387.0607,439.37613
-1494.2058,816.5525,296.43097
-1587.838,671.1212,546.03973
-1695.0472,744.17426,230.16753
-1459.7971,686.7225,200.80435
-1440.9482,700.25574,-55.73093
-1140.7393,536.1912,43.266296
-928.4872,661.54004,-86.89205
-699.7247,637.847,75.50157
-479.3373,590.4053,-111.55843
-365.64948,414.88455,192.08815
-147.37318,205.21646,-89.75195
-81.25075,349.52316,247.93346
151.9168,220.22852,-66.273544
120.731445,520.88416,315.0215
48.026024,-374.9166,-250.89511
-73.73667,628.82477,1026.5421
74.12578,3396.229,1479.785
149.9385,-161.38782,224.30046
-437.80142,1334.1212,762.23694
-622.66815,247.55103,408.88812
-828.91815,878.3131,519.75977
-505.76184,420.74585,252.16661
-347.6921,1053.4314,526.30835
-213.70201,412.20337,234.67743
-294.56104,749.16345,452.32623
-315.2832,460.9851,200.70299
-270.3406,536.33215,310.93518
-614.0893,544.753,355.93185
-760.85645,1016.4183,581.00385
-251.92125,-4.2897,207.57121
-325.70535,426.4702,343.56293
-601.7038,627.63086,543.614
-1496.3595,780.5197,477.6227
-2804.0007,1135.1418,408.0433
-2039.0549,904.87463,117.71136
-1493.8616,1046.2771,637.69275
-1532.927,741.83203,429.8247
-1478.5916,666.8352,185.38048
-1177.2163,646.2095,13.89167
-916.3271,610.49457,113.30732
-568.4542,200.19724,-7.380447
-406.09027,206.00682,-80.7312
-302.2208,172.69257,114.13047
-22.251684,240.64438,-101.3177
121.70012,116.039,162.67447
327.1984,-37.696712,-85.4553
341.61545,-493.36023,82.917046
94.186455,3384.155,1508.7108
41.278866,633.4081,569.8281
-224.41728,541.9522,606.175
-710.3189,1252.897,535.42725
-1184.2101,754.9624,322.1902
-970.66205,755.96326,-19.393454
-317.93445,621.2503,621.4158
80.739525,834.50134,801.94763
-128.55531,921.04974,943.25946
-851.221,777.0793,403.84683
-104.48309,-42.05752,-113.20712
361.56683,-770.4689,-131.61183
-101.90945,-818.3284,-174.91487
-907.1606,402.16174,-99.01441
-1590.861,1293.9149,675.54645
-2334.7507,1092.4968,796.5636
-2693.9297,506.16592,-31.520327
-1730.1842,594.6937,507.38928
-1556.6306,1092.1365,1031.3037
-1228.9388,444.81674,523.0481
-1265.388,152.02144,386.9423
-1496.3087,447.85983,210.91472
-1352.3926,502.7199,146.91846
-1224.6565,412.98105,74.17305
-901.4093,499.2468,167.42632
-764.60815,553.4652,-3.0030556
-606.4033,285.14532,153.85681
-395.79996,470.0491,100.48391
-277.7089,370.06833,242.5774
3.7356179,148.77892,63.684982
90.19791,316.7499,297.3672
131.14423,-355.2617,-185.12076
357.74448,723.8394,903.7332
356.37323,1743.042,1228.1337
-248.44797,465.16156,533.149
-1817.6377,1534.4941,558.22546
-1423.5955,310.3862,-274.58264
-826.92444,-413.90863,-167.23141
-1018.31006,764.7021,721.308
-563.951,2909.7297,1194.5985
-409.85278,1184.9216,314.6028
-51.835506,-334.53815,-15.539483
7.8984227,-316.82666,145.32526
4.19955,488.50116,23.823069
-104.21292,-132.1636,12.061813
-483.7974,699.0165,319.63205
-2186.2803,756.56384,805.2348
-2578.4146,1376.9767,218.52689
-1439.311,-335.56726,-67.11166
-2080.7642,614.2417,1167.3975
-1664.4474,662.0627,511.42944
-1479.3582,-143.94893,543.73865
-1399.449,324.32672,277.0202
-1503.136,732.29736,328.57635
-1037.6945,536.8375,109.292984
-949.64716,946.292,73.09532
-716.9634,367.4715,-175.38292
-680.9737,596.55383,64.995285
-174.28508,-290.58084,-183.60196
-58.202877,214.28723,190.99992
413.25073,-671.37213,-141.30002
340.41312,191.2524,269.35242
427.95096,-725.7797,-254.15044
-404.339,3313.322,1970.3434
-21.176298,1607.6289,678.60095
-300.48962,-84.79047,658.7678
-1258.6772,1857.3881,848.7279
-1654.5446,463.81186,369.95087
-1165.5133,1093.4731,274.76532
-186.42038,-230.82501,290.17258
-13.378296,-351.02844,77.541214
-771.8396,381.07263,512.15137
-536.75366,2424.0237,957.67596
-47.318695,225.41348,331.80182
-518.11304,1552.5497,451.37933
263.29126,-140.58876,65.585434
-231.8149,267.4773,93.76686
-620.20886,639.9568,501.00558
-1880.2894,954.98804,591.4251
-2467.8638,892.9779,157.9197
-1864.0316,575.0006,592.2982
-1657.9176,1102.4341,860.4067
-1631.9192,856.59894,507.7853
-1666.6803,570.8955,432.9293
-1469.8228,885.5601,324.7027
-1231.7117,768.33527,365.27533
-753.69366,411.92465,164.32019
-433.62982,504.20203,237.3333
-238.2557,172.08504,39.910557
-132.92802,155.25896,105.9718
-48.011665,175.38103,-42.886185
10.239124,173.46024,87.347466
193.10225,69.74632,-208.80212
45.193302,208.08296,175.18892
0.105917454,-133.12187,-240.78816
-455.96405,684.9693,1138.7302
-509.25635,3829.2058,2371.9263
-938.54266,-80.715515,210.11
-1460.5897,1524.116,780.2469
-637.28186,333.83203,86.4339
-209.56393,242.25569,459.78784
-161.60374,-1.4876331,83.42902
-371.24362,110.00098,268.04068
-529.7574,333.3835,121.600204
-640.8463,285.4726,289.22318
-1318.081,686.2167,163.0054
-1886.3542,2116.4487,867.38794
-1224.9512,235.77303,189.64304
-1512.472,465.92032,50.551323
-1313.2302,939.1005,599.1921
-1433.7606,504.97418,792.8035
-1375.0116,885.41486,556.76074
-1872.796,657.9477,679.386
-1791.7627,841.6808,232.64438
-1580.9567,557.7862,390.6133
-1333.6925,724.55664,316.8163
-1142.575,219.80812,222.01688
-735.68164,482.62396,120.939026
-561.7111,469.45627,136.6655
-409.43658,529.5503,74.36639
-275.7657,190.7718,98.55155
-146.99338,525.1685,64.92072
-90.56074,55.930836,111.97993
21.903612,469.61124,122.64345
200.05948,-150.88116,24.087545
229.05623,480.51788,249.72565
181.66391,-681.25964,45.03023
-242.74239,3469.2268,2224.0547
-458.9474,1589.6968,951.8967
-728.55884,-175.96692,271.47327
-947.7575,1877.2418,645.8811
-402.13318,72.33582,294.94055
-267.6137,1852.0673,1009.67487
5.9038305,675.0295,213.35396
376.66742,550.8983,258.31277
429.2568,-401.93765,82.3984
148.0082,101.13063,68.60601
107.666916,-209.69844,-50.25791
-179.72751,256.6668,61.82431
-457.08182,188.4354,-39.432205
-1676.7897,849.14667,441.37036
-3210.0906,1340.855,682.45044
-2063.2246,77.10607,71.97906
-1571.1575,634.87787,666.6174
-1931.8099,1438.1586,1147.9169
-1425.9595,-83.26011,316.52066
-1512.3047,658.3424,477.1536
-1324.0372,424.38895,242.24504
-1177.5869,692.1681,326.7201
-867.4266,366.60452,-1.0671259
-822.35046,778.72217,230.72507
-472.3056,132.20049,-43.063625
-428.6061,494.72665,278.2791
-104.826065,-19.66057,-102.929825
-170.04651,722.182,322.85187
85.06018,9.441341,-33.215286
151.62384,547.8011,308.37833
642.9965,-1342.592,-326.7941
163.32018,1905.0482,1059.5981
165.75813,3181.9766,1316.9623
-600.19824,-484.92694,652.43585
-1711.8685,1797.5638,525.2788
-1051.6218,-142.09395,-72.43149
-750.3938,1555.0116,751.8873
-77.5698,628.3781,378.04324
137.07634,840.17755,513.0181
217.39131,899.63635,554.1281
281.5977,549.1213,432.5145
340.3852,750.4341,556.5843
346.17355,756.09454,548.4727
453.1779,384.7436,437.07196
328.88806,976.6479,587.69495
471.88147,344.6974,141.84412
281.17163,613.95416,262.06454
248.32759,667.69244,428.57892
-345.78952,1252.2756,544.935
-871.5175,785.9509,333.61066
-1778.9137,1566.5145,333.52222
-2179.2598,1290.0957,227.91689
-1800.2306,1400.7274,603.3895
-943.6507,898.0169,515.7459
-688.9691,592.5231,595.34216
-478.82596,437.7981,427.9878
-360.62326,237.87189,299.94144
-315.53897,491.03723,113.56806
-181.20981,481.12723,48.562767
107.553856,392.37552,-65.27818
106.5574,306.6668,125.76522
192.16902,7.6538777,-16.558218
436.15692,332.49472,949.74884
137.40334,1587.6895,1420.9636
-463.37372,913.3035,525.12396
-1111.831,590.9331,293.64917
-1339.0542,710.663,197.95915
-1137.2678,1014.05426,667.6546
-618.57587,1061.5032,308.61847
-487.4556,605.6256,205.7221
-196.7244,503.08377,176.29494
137.46216,-30.4439,134.78415
-324.68625,-65.727684,113.14523
-434.70578,4.940982,107.77713
-711.5258,381.44965,246.42955
-1158.2787,1030.0853,670.0831
-2276.2517,1051.5474,983.1583
-1930.7559,548.47565,52.583607
-1574.3817,874.091,414.16754
-1832.7455,754.16406,1087.9866
-1563.3818,592.6371,399.30768
-1539.6761,508.7541,291.30197
-1373.7753,417.4623,322.45523
-1265.432,799.1384,269.98773
-993.02185,333.07062,-68.61575
-801.91235,575.02234,71.33877
-539.2712,284.94913,39.4239
-396.5073,305.25482,60.17137
-156.35423,50.682537,-74.92223
-66.53728,384.87704,142.20743
132.66801,4.1889224,36.707645
183.38615,363.80148,170.67268
328.3515,-230.37236,190.34196
-44.909477,2409.6392,1892.0283
117.194084,1026.2311,694.23737
-214.98549,507.74622,648.0855
-941.674,1082.7705,758.43097
-853.59,542.4591,683.58405
-1531.8455,1431.0078,482.11618
-794.9786,12.247209,-279.16492
-19.769728,397.8281,64.20538
402.65445,962.64264,740.3163
474.59366,454.93408,430.49756
-144.10564,2327.0164,993.3187
-172.44373,811.1312,213.34932
-669.9262,-239.98857,-41.673412
-75.83217,503.55762,305.63315
44.596645,983.63776,504.77893
-13.92998,983.59155,232.3594
-208.10138,960.9194,365.59317
-986.88586,1178.4644,433.6333
-2459.9814,1936.3125,525.0203
-1926.3147,1570.0021,490.99744
-1412.0037,1152.0311,723.65826
-1123.1603,870.57935,456.10715
-993.2648,522.084,403.07855
-608.6746,313.50903,73.980316
-512.0144,513.2191,171.65031
-293.27487,134.22308,-10.967869
-198.2188,99.056465,128.17918
-6.7185082,17.848652,-141.77957
-3.685122,378.9505,126.80949
315.72534,-275.42648,7.656567
423.67984,360.54962,423.05392
407.68555,2701.842,1484.424
374.09177,273.61267,652.118
-454.553,1064.2042,743.91766
-1835.8989,1284.6022,499.62704
-1757.3057,795.03845,-26.982857
-746.2599,366.78897,52.5675
-189.33954,-164.77246,88.5086
-289.34482,-48.0444,180.2605
-425.12704,137.44484,52.17096
-848.86237,573.1839,308.30408
-1213.0094,540.3185,431.24286
-2134.8965,794.0474,669.266
-1830.1572,727.8263,153.47826
-1184.5366,767.6047,285.35645
-1091.8489,1096.8188,979.1261
-1054.8783,713.2416,827.44696
-1220.9811,452.6518,673.25195
-1602.6356,454.26624,756.6626
-1874.5978,559.4055,510.3743
-1727.8972,399.66367,398.5322
-1641.0349,673.727,352.72446
-1501.7849,471.3653,198.45738
-1041.8158,426.32498,9.78221
-752.8519,551.0956,271.5602
-398.9857,138.18309,-11.543406
-310.41824,167.47693,96.23408
-163.58679,169.10156,-31.249176
-215.61046,344.02057,281.27887
-29.21361,38.94614,64.66128
-15.631305,479.2771,385.34
78.929,-129.61954,-152.54471
-6.158771,1441.3165,1237.7194
101.14513,1619.4835,1122.5117
-386.93063,287.03473,655.3111
-1320.6776,1559.8345,776.37036
-1053.3577,-1.2569487,-104.9227
-913.51587,1064.9019,753.01935
-313.5998,910.26184,789.96155
-196.18065,1368.6401,772.8903
-100.322975,771.13293,329.3664
-86.047615,98.85514,18.881767
6.0550547,1126.2438,490.8735
253.44621,453.4373,225.11107
-22.546999,843.51117,414.46115
-58.706863,831.8169,378.97336
37.434155,558.95154,235.70325
-84.657295,567.1457,345.46173
-289.08746,744.64453,615.9486
-1039.8912,254.58311,356.27213
-3321.111,1678.1118,643.4975
-2670.9312,729.9984,147.36365
-1520.9761,560.6067,659.89856
-1169.1039,924.5509,611.16864
-1078.5704,665.298,279.05466
-924.97034,461.03522,88.61412
-736.1109,726.98016,105.72321
-464.7392,502.7203,-12.641559
-500.6724,500.46494,239.18513
-116.546844,-56.92875,-160.84784
-90.63642,492.53226,290.43176
237.24425,-324.74484,-47.68687
251.80896,331.69577,225.50378
523.56555,-1211.7572,-196.45494
187.3691,1754.8253,1005.1026
273.51157,3330.6255,1206.3816
-903.49023,-306.518,641.0296
-1873.0557,1240.6111,152.8809
-1286.1733,134.23904,195.46014
-715.45074,1229.4424,799.32733
-200.51218,875.218,714.89636
-262.8295,1204.1785,659.02295
115.20664,-276.86563,192.31924
4.61852,1203.355,751.7602
196.19254,304.48306,330.00186
10.592883,1246.4054,556.0299
-235.18842,434.16745,418.96967
-333.9341,391.41653,130.45586
168.03012,529.53235,453.77063
-68.698074,926.47186,511.50253
-178.41551,509.9637,272.91885
-373.14105,856.2071,267.77206
-1796.4316,683.4516,486.7241
-3895.2502,1259.2998,737.9296
-1995.5424,-424.8153,-157.35901
-1364.1819,1012.4937,771.0029
-1029.2507,678.99744,515.134
-932.4991,408.8584,127.91447
-646.50385,392.95883,-66.84259
-635.8233,1084.1326,-6.6294336
-485.86307,3.6655066,-75.2804
-398.58203,494.15,-25.321856
-108.65142,274.99594,-20.326733
-134.92824,369.25845,142.72441
29.506805,423.52396,177.4481
163.56288,44.31168,-15.55086
389.0346,254.15479,622.4514
-38.083546,2282.278,1637.7871
185.35518,881.18524,723.4999
-464.59924,537.8337,546.5292
-1398.3658,812.8902,377.38254
-1527.7245,403.10358,59.69783
-491.2183,-466.06635,-409.26242
-551.60016,-380.35263,-134.96826
-816.69604,-276.9933,-181.67868
-1395.5154,600.24805,517.05914
-1348.4467,105.161316,419.74808
-2041.4137,540.1467,463.22604
-1792.2614,721.3932,443.43594
-1161.1934,934.7315,856.3693
-974.8903,754.2604,983.60645
-953.8311,631.51184,816.59546
-1050.4423,488.97974,686.45593
-1450.7622,784.0491,603.03375
-1555.9844,808.8773,311.56323
-1710.1831,507.87534,208.58116
-1666.3508,1068.4102,65.68114
-1395.1296,510.3853,-87.656715
-1246.6249,779.4413,-142.92644
-949.8773,549.4417,15.3217125
-658.8715,430.83835,17.526249
-532.35364,463.1941,49.164146
-239.11258,255.35397,58.03105
-230.63504,292.2553,59.816277
-215.6708,446.52145,43.617317
8.546325,126.400246,1.5877199
-65.67574,386.36298,-38.655167
-159.94925,211.30846,120.65112
-526.5538,353.4847,119.15195
-736.71185,-471.3294,36.173794
-1156.4589,2954.3757,1295.6566
-441.8845,2882.243,407.02548
-969.15247,-178.08386,339.62756
-1229.6241,826.7445,406.7523
-698.7976,-490.85498,92.47105
-615.94763,591.8992,415.49277
-446.44922,-280.6962,266.6259
-632.66583,766.4685,522.9719
-793.9471,116.979805,311.64017
-1318.5286,545.8812,275.98355
-1165.3275,232.93344,122.69433
-1097.797,517.3221,360.29105
-988.2627,609.79205,490.4204
-1061.5958,982.922,548.61237
-1135.118,691.22125,441.31635
-1194.9187,1132.1825,481.6323
-1316.6896,1181.4197,296.86688
-1573.9547,1110.8265,179.03328
-1225.6626,785.471,96.34615
-1138.375,1095.3228,89.92552
-971.43585,611.12445,75.830086
-833.53217,989.6222,61.481514
-510.90875,203.12823,16.282299
-370.34985,545.8147,104.70034
-106.345375,-108.07362,9.752138
-254.51462,527.187,141.45284
94.78603,-276.9585,-15.251778
-161.57224,627.2198,193.55603
-16.681372,-698.2686,-40.280605
-669.81415,3430.7554,1281.3121
-331.37946,1292.3835,619.10535
-491.59622,267.643,370.1456
-500.4192,1321.3969,499.34354
-435.11588,562.23566,590.197
-308.14255,859.15533,706.1203
-478.46332,569.46204,777.31134
-272.19348,477.3053,458.97867
0.025373116,-19.287657,421.29593
12.9584875,-33.53437,229.32294
-161.12012,-110.150505,78.718094
-511.28882,308.65796,93.84064
-1415.1799,769.1352,661.93286
-1905.0344,1336.506,480.38815
-1207.5541,48.345886,-113.912636
-1101.3533,363.51938,413.2288
-975.6056,1054.6846,623.5307
-1129.105,541.2367,703.4154
-1252.8107,678.0932,489.74182
-1734.8052,900.7458,491.12042
-1771.9249,568.18164,468.32498
-1411.9493,755.1177,267.94894
-1333.3755,690.0022,124.9636
-1111.1708,527.32184,12.197602
-793.68896,521.7248,5.1004233
-572.83405,336.1381,38.320175
-425.90033,497.35632,151.23792
-337.03653,289.62802,97.659935
-222.63832,359.29602,119.760086
-203.51923,369.34085,234.6839
-0.36215606,714.8895,155.43608
49.159977,252.37927,216.01044
268.70306,650.4712,265.8067
101.79588,1043.4481,744.0816
-140.61584,839.1547,588.8872
-364.69202,1126.4453,392.825
-769.5655,896.61414,271.14905
-1188.839,822.3726,177.41614
-1472.6396,930.0728,249.79015
-776.89136,313.48593,-88.04848
-225.24123,131.23239,420.37256
-178.40065,490.50195,902.2792
-389.95004,823.69995,712.95337
-760.6914,1034.8541,602.98676
-372.15527,-70.091156,320.49307
-401.90445,-203.93472,117.00409
-675.86035,-78.09104,251.8119
-1029.5664,488.2251,492.44232
-2129.6638,266.17416,590.2881
-2017.4149,422.26562,-135.92697
-1440.9933,1097.2831,572.6112
-1639.2808,719.46954,978.7492
-1180.6696,468.63544,225.6121
-1330.0209,259.067,226.95694
-1407.1443,322.97205,264.17447
-1469.1848,610.44745,144.72873
-1144.6958,387.95303,87.07633
-974.7435,306.84097,142.05803
-657.4518,289.01642,38.794235
-382.05685,170.21095,79.727234
-148.69254,194.94455,223.41563
-126.924934,214.05249,118.0878
-89.019455,319.3792,338.2021
-315.64487,839.7402,378.93066
209.10704,609.40155,130.55028
308.4363,147.84341,606.46
430.36392,1388.4564,1100.2603
37.821278,565.5605,803.20807
-895.80316,380.99643,387.26492
-1151.163,721.1629,498.73062
-1217.7866,1051.2067,507.48676
-1402.2277,1063.918,309.85727
-1137.5658,144.13289,-326.6515
377.39978,-738.71313,-348.00067
229.3771,-913.83606,32.997852
-1162.5471,472.28336,205.76564
-1884.8372,985.7614,783.4014
-2120.773,1068.2753,509.00272
-1274.5592,394.1346,82.72345
-1282.9567,923.1844,854.5224
-1140.8984,656.6831,874.0942
-1304.5248,435.07657,654.16425
-1825.3315,688.53864,553.319
-1802.368,372.12854,408.97137
-1487.7944,600.7624,301.2472
-1457.6472,583.2614,213.34024
-1148.9857,218.81252,-107.8536
-1009.8153,468.18814,-61.461636
-609.19354,389.09464,-98.77394
-601.149,307.16522,106.20517
-410.043,281.83905,57.90097
-330.4321,462.68436,158.82834
-102.64113,279.44235,121.87837
22.35296,312.85245,127.06771
107.682434,119.5387,151.66928
-19.090115,273.4637,302.186
-140.96428,1106.8715,801.7599
53.918404,1133.1152,873.86035
-562.87335,548.8375,668.4388
-1401.4143,1232.4071,609.5027
-2013.0942,1201.5277,230.96017
-1526.95,498.58203,-513.2871
543.5717,-833.5383,-343.71512
502.6036,-1097.6993,187.85722
-1221.52,669.61194,307.38477
-2693.5635,763.30634,623.87573
-2045.2913,947.6601,-104.78069
-875.2977,866.02856,298.77948
-1048.2858,641.3903,723.68024
-830.3115,429.43723,443.9804
-1166.7015,357.07904,431.09143
-1269.5834,296.7151,437.4943
-1548.8545,506.48935,477.1833
-1735.9517,456.39722,496.24808
-1835.1506,604.9487,515.9318
-1634.5078,407.29752,303.08765
-1519.1621,339.04282,160.74245
-1064.2427,432.609,84.8482
-751.96124,492.07108,123.42275
-595.83405,444.7663,73.15967
-504.52652,376.58215,97.48906
-458.27994,423.56534,171.34512
-180.59642,160.63626,45.465683
-68.7231,341.48486,42.20189
145.77838,-40.76481,220.94072
149.45265,-15.230174,-53.329784
310.30408,149.38814,549.0858
201.74702,3097.1785,1889.4479
267.77878,378.6885,340.74887
-930.79645,1238.5902,616.92834
-1817.7634,984.70825,107.64768
-1664.3022,707.455,234.33302
-601.8067,986.60583,598.69476
263.17737,455.07587,648.85645
375.30322,250.41241,566.00214
-52.785393,1044.8854,829.94855
-74.07518,604.99347,636.71674
-0.7916245,375.41135,350.1787
-109.81241,617.3002,313.71216
-330.30453,725.5008,585.5468
-388.27325,727.86816,338.1926
-258.7433,340.42462,440.04007
-437.33826,921.4603,458.32785
-1272.867,829.16943,325.41116
-2855.275,1730.3622,185.88521
-2321.3516,1061.4419,527.7796
-1381.5347,846.8048,642.5525
-1417.8763,1038.5363,748.52893
-1220.1102,244.88722,169.987
-873.27924,672.1633,256.19305
-650.1279,422.8328,-30.735085
-503.96887,352.95822,165.44989
-286.27676,-130.39035,-225.46167
-112.886086,189.50716,32.07375
19.226776,-24.532284,-174.75673
222.05458,317.73294,268.4869
333.7476,-384.41336,-352.07544
194.05,1061.7972,1228.2452
146.91757,2458.647,1485.4547
176.7464,-31.35009,406.32416
-1030.1057,1869.9839,869.7603
-1637.5851,180.94858,-24.715958
-1182.1019,226.80475,17.989252
-735.9779,-92.90959,337.30466
-623.9223,2363.6118,1097.2836
130.425,646.9648,468.12692
-722.0498,2052.961,827.5457
-75.887924,-219.45216,-177.52882
-198.9904,147.30829,36.773724
-131.48425,233.75963,79.75281
-169.71164,138.8579,65.585014
-328.06387,436.09735,210.06108
-1179.8265,552.15485,527.59
-2378.6182,1388.3206,783.8443
-1865.9054,559.11053,298.42505
-1849.6666,1004.5754,1000.2371
-1598.7887,703.90625,788.68634
-1369.0759,455.8159,466.40894
-1375.9305,433.72876,332.8089
-1343.5546,625.8448,142.36765
-1069.4503,581.95807,2.4130492
-858.2176,471.51263,-28.410082
-537.8125,368.50446,11.7473345
-483.99515,406.47427,106.18669
-161.04167,79.109024,-55.649673
-108.95062,318.2352,265.04358
120.46817,-10.181385,36.856415
82.1226,417.72504,387.25266
192.57048,-273.4479,-7.1275973
-225.81093,2281.0898,1890.8258
-4.4329877,1957.2827,1110.6375
-84.219055,70.45819,611.9393
-941.1998,1371.1643,672.0815
-1204.3312,549.53436,164.89822
-811.18646,1162.5795,445.49808
-205.83165,608.9596,439.15158
134.34268,814.9484,670.2004
219.38455,867.3036,700.0099
226.20958,700.04535,335.24506
243.07668,386.23737,383.47778
179.28238,1088.6495,631.66425
312.3928,296.18817,288.45685
277.4998,970.6954,436.31857
328.16135,423.30475,299.5679
143.09851,863.5605,350.89474
39.91511,536.82495,133.76665
-128.12659,1184.7281,364.18002
-674.00543,750.1165,439.09375
-2317.4958,2200.7017,382.62643
-2195.866,2062.5273,685.8022
-1272.4487,1212.4366,796.17596
-907.5497,1139.3109,639.3762
-756.9901,714.2553,543.8312
-530.8083,342.50116,282.982
-377.9348,506.7831,285.29886
-210.77684,58.807606,56.69268
-67.453316,246.63635,-18.72914
33.53527,38.223198,78.46481
125.22052,448.19684,61.04095
254.40971,-100.864426,60.258217
76.253815,418.89423,-25.689337
18.4857,-1017.29535,168.60265
-138.73299,4645.6113,1809.6339
-211.48044,560.2527,430.19138
-1039.3182,871.84973,653.6553
-1131.3883,886.125,125.972336
-848.7811,252.5863,363.55725
-172.54047,91.72638,139.63106
-273.70197,-358.199,45.28038
-458.87823,374.4076,73.776085
-771.9357,353.20004,367.51367
-1199.7307,799.509,375.45502
-1300.4376,725.7124,325.2861
-1318.823,762.60266,146.46371
-1363.9541,137.01671,300.92227
-1303.8998,788.5084,493.98788
-1157.051,752.1077,707.5181
-1361.9495,607.933,716.47174
-1525.0074,690.5536,596.0272
-1694.0613,643.9537,546.03986
-1518.8058,843.8343,427.55618
-1478.7429,864.04254,328.13953
-1500.5991,452.4156,26.473341
-1110.0898,550.18945,23.82799
-790.6791,441.76315,161.6145
-573.52405,286.88327,153.99883
-391.516,147.64279,45.87568
-345.86743,363.47107,107.887856
-272.49286,415.35117,134.42294
-127.61099,335.51517,113.20814
98.77908,269.26257,76.48741
101.100044,413.97195,23.8546
325.32767,-146.35449,15.799625
76.80412,2794.178,1309.6218
549.56836,55.61863,1059.7128
127.379875,1095.8779,1153.5317
-1981.4299,1602.287,548.3138
-1487.0499,961.2232,-300.8906
-219.76872,173.75314,23.001026
89.89797,-613.14636,-10.972099
-287.0408,-20.190544,28.20507
-622.98346,449.37976,133.30713
-908.7845,754.7649,173.37138
-1342.4038,1539.6051,361.97592
-1122.3019,1173.9209,280.3504
-949.0661,766.22314,348.10214
-912.58887,886.21515,465.9741
-1157.1642,792.84705,581.5693
-1304.1012,701.9836,627.32904
-1416.1881,747.44476,704.4318
-1307.4423,717.124,527.7764
-1588.4465,890.09564,656.03906
-1674.7002,810.2168,351.0544
-1462.8246,729.4086,385.7207
-1379.5428,665.22363,228.42401
-948.4685,550.08716,119.81509
-604.20496,301.73798,83.35236
-418.09167,292.16232,41.66241
-193.46658,122.63811,7.462891
-95.90333,267.50647,172.91385
-79.896164,171.86229,-14.28699
-11.40712,345.42026,242.62126
189.67871,-188.58942,-199.10597
154.03406,536.5209,858.53357
64.399605,2890.6829,1496.9287
412.58267,-287.46384,476.52075
-862.431,1467.609,712.2934
-1091.2241,646.5597,155.49449
-1230.1882,1492.433,752.71106
-804.5827,812.8981,313.562
-459.6037,1118.9901,586.57227
85.09896,346.04218,248.7051
177.93187,717.2323,740.64355
202.68074,812.1859,551.66095
45.222507,1000.01324,466.2598
101.66111,221.24493,125.58905
-107.06758,911.1171,479.9299
-37.32146,219.21121,116.246056
-131.87286,963.48193,310.30893
-137.15063,490.70807,110.37825
-244.35533,894.0318,304.50482
-1097.2625,901.5889,369.8548
-2435.5984,1975.3024,477.21472
-2255.7961,1585.6871,449.09195
-1473.7465,1007.3279,909.0848
-1255.36,993.27386,796.5361
-1308.7656,574.76074,393.0975
-1021.8215,545.63885,119.10563
-816.28284,701.53,185.2788
-539.3952,180.22443,-133.73384
-427.75818,212.48215,51.97019
-39.186344,-322.89957,-164.19801
-56.12529,287.495,94.202065
133.88753,-117.32008,51.952404
191.12158,681.8644,365.1322
411.15115,-314.05197,105.42693
263.79306,2346.337,1431.1057
470.66003,1517.3052,891.7955
283.36987,216.34058,738.72577
-1040.1902,1853.1881,905.46277
-1645.3417,746.79865,5.114182
-1022.7273,930.1025,158.64221
-297.96,393.72922,250.52263
126.382835,-23.507103,149.98404
-36.788746,-112.37645,181.86235
-291.1421,174.65553,213.99782
-794.29443,478.1973,335.02197
-812.6315,970.0347,315.64758
-1104.0488,876.91144,567.3869
-1232.8557,815.64935,401.60464
-1408.3044,760.5392,578.636
-1306.179,728.48627,714.5513
-1349.579,763.59814,716.63025
-1435.3835,595.7812,601.1857
-1745.9713,744.1675,606.6933
-1742.5366,621.7869,214.32059
-1511.9907,611.2316,427.66605
-1445.1534,525.42065,285.92487
-1276.8445,479.41232,227.20856
-938.2551,413.7009,105.11849
-716.0198,524.29364,271.21487
-426.34222,226.5912,180.46037
-369.65027,340.33997,212.58392
-170.08958,114.43202,34.120033
-141.50362,396.953,244.39758
136.16452,-14.07119,-67.9341
109.73867,493.68408,327.4547
402.21606,-399.74133,-255.90688
259.62613,1440.0399,1146.0226
620.15515,1969.4352,1394.1042
264.77933,259.21268,459.94907
-1178.7014,1395.9144,725.37537
-1816.5823,792.5748,81.09096
-1263.8605,251.59973,-35.800983
-549.756,1045.2195,587.6705
394.53564,841.07043,709.26324
194.3028,370.22595,763.8127
-425.11026,1771.5948,968.99005
-261.51193,-248.47519,82.28777
-810.4156,822.5807,329.39368
-145.44655,367.36847,126.18165
-46.971878,911.9476,491.05936
-73.8467,587.1778,252.34286
-308.07092,554.78314,262.1891
-372.97495,797.94556,195.27174
-621.27264,1046.6221,695.9054
-1968.8702,1250.7815,753.2155
-3026.917,1825.021,236.8316
-1790.5151,807.89056,674.1994
-1626.7859,1191.7435,934.19543
-1377.0271,172.42793,149.54912
-841.2343,973.07635,33.74696
-578.6432,236.66364,-2.7695858
-368.59717,310.00287,-2.5094488
-203.01912,-305.09293,-224.94598
-73.38327,245.07593,26.59644
152.40665,-491.4537,-202.84976
166.99104,365.64526,225.92543
338.29553,-825.9813,-228.27919
252.58191,2107.7437,982.322
338.82303,2141.1848,1188.6456
50.41552,-277.16263,165.60272
-543.3064,1286.5386,727.0231
-1440.8218,698.25757,485.07153
-1698.0282,805.10974,306.36447
-1251.5834,578.0625,374.06058
-1102.849,995.51105,548.87933
-138.2841,252.65413,214.7828
-46.47623,678.4211,668.0292
-60.518654,699.26166,654.7625
-182.23366,827.931,419.18283
-198.01944,577.7956,234.75203
-245.96216,745.92065,352.5598
-258.5952,588.30634,380.37814
-406.68207,730.12134,550.52454
-388.61298,640.13324,444.00125
-1138.6714,905.7854,430.00714
-2175.0273,1157.6666,234.77356
-2014.232,1038.9604,585.8231
-1577.4048,1140.2506,602.1254
-1410.6763,952.79144,551.92316
-1353.2549,558.9419,253.2009
-1194.7369,744.3506,90.40823
-948.61505,494.4144,44.395794
-656.4277,432.30072,62.479042
-532.46326,229.01012,-81.471924
-431.41962,242.33624,87.67781
-40.95497,147.47926,-25.723015
-45.973515,504.6075,173.26183
236.6382,140.50165,114.31063
232.21071,494.6741,374.5912
504.90967,-391.0374,73.72852
173.00189,757.85004,805.9997
72.01751,3453.6025,1554.2478
-307.1835,-572.86646,348.66397
-1451.8867,1404.2567,659.90106
-1059.9264,313.88727,346.6286
-1124.5013,1055.9108,804.3202
-528.96826,343.05838,397.6624
-47.769886,123.63721,468.97314
162.00272,-333.8442,184.38997
-52.797333,1.3538054,8.318239
-420.0036,235.06189,539.20636
-1111.0806,900.03925,673.15356
-1086.5483,1038.4066,382.75687
-1433.858,884.20557,573.5261
-1256.8878,400.1439,448.43112
-1278.5627,854.6707,535.4974
-1264.7415,616.0062,551.6142
-1427.9961,903.05347,555.6441
-1606.8032,648.8887,540.89325
-1669.4097,657.5314,334.63092
-1561.1538,698.2128,249.20847
-1427.7727,557.20026,197.68004
-1087.4508,513.87054,25.61915
-825.5691,458.35828,25.771294
-484.0893,285.48987,-37.63896
-461.2936,461.3307,52.0539
-304.9318,473.694,46.127228
-163.27438,532.2693,87.01827
-114.97347,371.30505,110.83428
77.05207,714.9472,189.81616
186.5331,190.20308,234.28284
138.24913,502.3317,315.8701
192.78694,-405.5944,217.93164
-140.88998,3260.733,1662.4996
-103.02596,768.4211,603.746
-863.6125,641.30945,475.5779
-1019.4926,1102.9828,410.47864
-794.121,173.005,516.4335
-300.41516,914.28564,696.25323
-65.331276,610.629,633.5604
-41.72968,660.84656,590.00214
-125.23097,309.57602,399.34906
-110.4201,911.65753,526.0978
73.896,661.74774,353.88165
-33.204716,786.0541,320.05475
-160.55385,530.9934,243.22432
-179.23315,783.73083,183.50322
-529.7968,587.7055,0.04534577
-1150.8749,1193.6997,240.43716
-1662.8378,1367.7352,365.1806
-1530.5822,1103.3141,341.3627
-1458.8368,1288.3197,724.7728
-1225.4282,1073.3453,830.77563
-1316.583,1015.3276,531.38983
-1214.2985,985.37537,154.63176
-1095.9204,707.5834,41.749584
-787.5363,675.3514,93.855446
-527.17554,362.0208,-47.73244
-336.84158,322.88385,159.53331
-114.51988,73.9613,-5.9195285
-121.49218,383.4896,162.99925
112.80353,84.17909,-6.6273303
212.46384,549.17035,348.98077
374.14197,-378.20956,-150.21635
33.402462,507.56607,596.07306
-228.79964,3478.4895,1284.6854
-331.05356,-215.25854,369.76025
-850.6954,1580.389,1035.0022
-624.8314,-19.250383,335.5629
-824.79553,514.2293,700.84875
-414.8118,332.87317,438.21255
-477.96216,849.5701,664.70734
-312.31796,580.16376,431.15994
-304.6999,510.67975,501.44455
-226.17584,728.20123,180.81013
-473.6682,864.2415,119.124725
-636.76355,681.0168,134.69814
-676.9914,600.7538,190.59894
-812.40137,496.30515,115.1702
-1277.4564,1029.5466,245.89388
-1385.9645,981.64026,62.73697
-1396.353,774.33234,646.0055
-1332.8915,1397.9424,604.9025
-1622.2395,1167.3234,612.88824
-1655.086,1219.2886,408.35367
-1290.9717,899.7234,416.7524
-1006.50916,839.4654,194.84195
-758.7027,507.3323,174.88977
-552.61414,709.5356,162.84294
-321.36398,304.20416,128.62033
-115.48155,299.03784,100.3564
175.08186,-183.45203,86.38587
206.26437,-40.532055,-110.04092
374.07275,-422.9905,51.512836
404.36014,-110.242004,-220.69695
63.619175,-463.4076,223.81834
-1396.3611,4591.359,2333.5996
-1024.521,119.61364,41.298058
-1816.3224,637.573,244.6071
-737.5546,962.2528,386.61304
-683.06177,1134.3776,1046.4546
-459.3425,1053.1516,577.59045
-509.50595,350.66678,638.57477
-297.70306,693.5578,555.3664
194.77135,107.38965,584.22577
195.24149,575.9992,482.48395
-301.6581,1130.7965,664.0305
-317.42575,919.3589,528.9496
-412.71072,126.686,144.22607
-580.86505,419.7452,214.24382
-557.01807,611.5986,478.51022
-430.76865,686.19305,345.10272
-569.8982,532.9089,482.82498
-1392.174,717.184,450.70407
-2058.007,1297.2458,472.03906
-2061.0903,1097.1592,357.29987
-1475.9779,555.30804,648.48425
-1436.6506,828.6103,453.29633
-1426.067,585.7676,162.78444
-1085.1807,631.66284,135.14713
-902.3171,616.89514,145.87607
-724.5812,516.4537,118.12205
-478.1563,321.15085,108.5205
-235.05746,284.4319,-39.822517
-171.75273,140.55217,132.66783
124.334175,107.4849,29.89765
202.70255,145.21596,220.63708
550.60266,-493.71228,-360.53796
311.92596,-33.445293,470.01666
181.8362,3104.157,1880.0964
-676.6322,197.42827,531.9023
-1930.3464,1607.2721,880.5432
-1577.9412,556.70404,70.44362
-1191.8173,1360.0308,642.4537
-288.8008,946.4906,500.90717
395.2071,-124.94613,416.17285
266.42606,-158.15056,125.49098
-207.87746,282.49176,237.812
-187.55418,196.75644,-113.51874
-611.2857,585.6932,313.56866
-1022.0104,1007.7123,423.20212
-1171.6382,1104.3037,621.1595
-1498.1501,728.58527,318.83688
-1658.261,576.9638,440.4659
-1512.7125,360.81885,543.2133
-1466.8022,858.47906,661.13104
-1538.3883,761.8908,671.27057
-1800.5673,578.9314,669.4805
-1520.7596,531.5418,155.60765
-1491.3668,784.7902,577.70386
-1389.9622,471.87555,209.19388
-1157.5563,865.1879,285.2695
-788.28033,367.85803,191.90219
-451.56024,438.63757,277.42017
-126.38644,72.353745,27.637192
11.776666,294.68512,214.41336
59.216473,-48.71618,-9.594652
48.672596,244.28683,251.46223
159.25143,-204.6676,-202.19685
223.83386,194.03183,45.789886
-53.157978,-824.2315,-510.80997
-755.5638,2171.4246,1580.6969
-1339.3192,3709.1765,1908.4237
-920.67377,-987.4177,-81.52285
-852.17566,2281.6057,887.1652
-169.13017,41.558258,139.16779
8.56379,1495.4988,1097.8354
-126.23544,1184.305,784.7396
1.2989141,483.04236,305.7044
44.212887,147.54315,186.70457
122.041916,-211.9541,-82.93791
241.21788,-289.5818,-169.6913
-1.8672445,-233.72314,-165.42268
-500.1841,431.2551,-24.739141
-1794.3075,740.51556,978.1289
-3268.3135,1306.8062,473.7805
-1612.9207,349.8224,-493.4361
-1474.0583,250.42009,759.44476
-1798.6466,1191.7454,903.8018
-1784.4442,-517.03284,629.0414
-1395.7035,129.66606,324.4243
-1405.3263,178.08806,493.118
-1417.8722,571.8555,318.34787
-1005.8615,242.81567,76.56476
-970.6608,586.28296,-64.582954
-722.65765,366.20053,107.07375
-620.9497,942.901,233.8483
-488.09885,261.79773,172.15543
-345.59515,534.9663,80.35652
-166.31114,206.3012,124.018875
91.48035,292.9361,-101.203804
151.82387,-213.68507,120.6143
129.794,123.201904,-537.05115
-134.19331,-1494.5707,227.52238
-986.3674,3115.1855,1634.0275
-638.6616,2725.6482,109.59406
-1051.5681,-523.85754,847.5498
-1344.5509,1339.6095,295.07523
-1177.007,181.09486,432.5399
-857.1785,698.7943,0.49407905
-139.59474,654.2676,460.45096
6.3356004,657.12885,356.20566
-257.22122,756.6427,437.39557
-376.0687,595.76764,294.58405
-573.9589,320.65796,289.70706
-450.77908,501.47632,191.43521
-480.9258,610.6572,509.42126
-461.29352,638.7015,240.42213
-729.19147,732.6344,539.27844
-1216.4093,457.75858,402.0863
-2277.9907,941.5064,538.55927
-2373.7373,606.4174,772.0167
-1631.7717,782.20526,827.5566
-1648.6995,841.7368,794.3453
-1553.8535,479.63705,423.70206
-1186.8479,502.56805,244.89531
-807.5817,455.6183,244.8463
-640.7943,397.2719,-1.6071141
-401.87402,182.08774,86.00965
-155.60927,27.8091,-146.17776
22.992573,140.06493,61.16109
105.54038,11.556848,-155.41983
404.42902,-64.75819,58.651608
199.84941,-123.231766,-249.27965
-84.42376,479.99484,890.2738
-891.00446,3053.7974,1658.1953
-1136.0458,700.16406,263.20822
-1003.5359,764.5062,676.43365
-918.3648,1037.7794,635.1983
-615.9586,736.4722,793.5117
-423.33017,905.23,654.6983
-185.93964,333.6277,504.01083
-73.8971,250.68852,360.36475
102.82379,165.10316,189.68608
128.66257,-186.98096,52.291645
-251.48404,164.76619,81.31379
-637.8609,69.63268,158.25429
-2263.7976,626.05676,629.30927
-2292.2512,1159.0232,146.71556
-1322.3728,68.26254,93.80353
-1410.6251,751.2229,806.3881
-1257.7477,743.21063,658.28937
-1628.5559,236.1307,671.625
-1846.4489,155.8102,395.94302
-1373.3378,275.3728,443.31882
-1468.1654,609.47845,653.7742
-1659.5417,518.44855,158.9168
-1314.6882,362.5034,101.67595
-895.4594,645.8652,242.3461
-573.9748,377.1878,202.70226
-278.46396,238.686,13.730885
-32.797226,20.24599,80.39977
60.207027,171.13745,-0.74013686
113.28947,-40.109615,92.9224
232.05078,205.85376,25.981327
397.03214,-187.55623,-168.8986
281.90512,1680.6329,1396.3035
616.3742,1514.4944,1336.7263
171.7987,187.50963,814.53656
-2028.8973,1313.1185,796.1311
-2266.422,605.7922,196.64317
-1468.5144,903.13477,399.2888
-391.82748,-114.9571,103.02189
-396.19894,589.6862,596.9651
-162.38495,2486.0798,1265.5618
265.07306,618.2531,496.1601
-163.94249,1073.1592,514.2939
-356.29797,1108.2631,523.19
9.949078,-232.59903,128.30934
-336.59235,-4.101019,339.10336
-272.6814,270.75095,254.04013
-288.96887,133.55003,386.7398
-546.5342,370.80817,331.39194
-1975.9124,827.9395,612.86224
-2275.648,1054.3236,541.7877
-2032.4854,749.69055,377.81143
-1717.0851,393.1574,471.50122
-1397.1356,689.3344,494.8079
-1518.7251,499.60568,403.56915
-1339.9324,325.6263,206.47527
-1059.1415,700.79584,153.32903
-954.74445,373.0768,236.28697
-688.1893,368.52872,95.96815
-626.3454,319.4264,131.97652
-312.1672,171.70442,-46.47336
-250.18214,262.9791,62.681873
72.90656,47.468185,111.4508
148.16681,368.56284,153.12064
577.17114,-124.61255,-69.040855
432.34845,1250.5885,1279.5887
461.26608,995.9414,923.32306
42.853355,453.55386,516.9997
-840.8312,830.70746,584.14996
-1549.055,935.9152,550.9668
-1750.6647,1255.8904,372.74396
-1225.776,639.3925,199.11055
-297.28818,608.15094,332.32632
41.603542,525.4834,611.18207
-199.42842,991.6082,747.7008
-73.93706,876.522,533.1699
-138.50174,309.33365,68.573296
-386.64328,921.6233,514.1867
52.59493,331.20026,235.65532
-259.7106,692.0638,594.1906
