# PAMAP2 dataset (wrist-mounted sensor)

acc_x[mg],acc_y[mg],acc_z[mg]
-198.41913,606.62573,369.85916
-302.05484,684.2499,502.77505
-232.40292,546.8513,281.8254
-2498.257,1039.1436,1327.5675
-3401.6365,1079.638,278.10587
-1601.3478,186.78682,-158.22342
-1748.5706,564.72656,1019.5435
-1323.9489,540.97614,482.31445
-1106.4828,409.16483,120.31886
-756.0125,417.97244,73.22998
-570.9671,415.56332,101.753044
-419.13135,439.47223,138.27594
-317.90402,-39.257957,-6.26924
-147.84583,499.06802,123.651436
29.146591,62.381268,36.677483
134.60326,613.05225,286.0753
460.50244,-599.5723,-143.99516
477.94528,1311.4158,1538.3383
1013.51196,1757.8862,1527.3406
436.1076,130.11404,660.8287
-1511.1544,838.10364,371.20724
-2357.0105,1204.7871,332.8187
-1995.598,1290.406,-21.788328
-719.2892,286.23657,-83.23452
45.918846,130.65135,381.76147
210.70941,-677.5929,328.0915
-315.60452,327.84988,438.85156
-557.64075,141.40659,314.53656
-1582.5577,1174.9618,723.31213
-1280.9331,514.418,318.37552
-1777.5422,830.05133,395.8112
-1473.5876,620.56836,315.04706
-1216.2383,582.0946,460.58203
-1142.9396,613.3347,646.5763
-1222.5756,567.51215,555.48975
-1459.7084,454.5047,591.40125
-1902.9551,351.926,494.07477
-1574.7644,467.83743,345.06818
-1712.6785,645.03125,444.36676
-1593.1919,323.19565,270.40894
-1293.1045,431.5805,100.59291
-866.60986,337.75418,296.12668
-633.5905,487.93536,22.887135
-310.63815,171.84692,124.207054
-187.92567,290.18304,68.75323
-22.477575,39.692055,105.38425
-17.339853,320.92276,1.1691011
156.48828,132.723,94.298515
31.259686,289.54404,-68.443184
293.66223,-130.35124,536.4581
-165.57744,2893.9604,2040.4993
-148.27293,870.38934,756.7686
-632.57196,619.6171,638.27875
-1021.0956,1209.4406,299.86456
-957.1432,749.2918,375.37366
-381.2365,1017.15216,510.95258
-208.23807,951.54175,683.34076
48.496918,531.87427,439.07986
8.087147,726.14166,517.3598
208.25185,388.8281,346.31506
163.8196,790.68567,639.96906
246.75322,1045.166,362.22095
177.77957,342.79974,112.81378
48.43678,619.3307,239.88342
-174.32715,639.3962,407.1052
-33.89894,674.5977,274.3208
-202.85529,951.94666,381.51077
-1054.0535,1202.3848,637.24585
-3435.2715,1387.8436,591.73785
-2684.7014,1023.27985,-47.440582
-1385.5443,736.702,797.95514
-1203.5927,945.93066,554.73615
-919.3951,403.18637,223.88591
-705.16156,397.11847,200.94063
-443.3034,249.53088,137.52126
-385.50864,449.7076,154.70361
-319.0312,104.61284,28.925941
-205.52975,583.0839,163.1078
55.584526,28.260324,16.520235
248.16948,398.21082,257.87256
410.89816,-831.99646,-63.75983
423.33044,1280.5408,839.7979
77.33714,2729.433,1223.0708
-268.2205,-388.37485,352.47266
-612.06744,1671.5408,867.55524
-1026.5564,621.09094,379.7105
-969.5317,807.3988,253.78392
-275.75052,694.4825,466.31256
236.91472,445.47998,429.97687
63.778404,790.65094,854.6581
-12.52964,1360.0197,698.0599
43.29873,-248.37108,108.116844
-113.38695,945.4504,529.9753
-23.505629,463.31287,388.57843
-84.38103,992.1771,442.38995
-41.931908,464.87976,274.88004
-288.95538,768.70215,410.8671
-314.91577,170.8859,270.05994
-456.1827,886.4917,532.99066
-1070.1682,687.21954,671.43884
-2416.2495,1136.6161,679.1995
-2660.6719,1323.6116,218.66415
-1711.31,696.43054,581.2101
-1207.5754,830.26404,486.03464
-1003.0994,749.0573,236.45016
-875.03265,330.30508,244.52446
-630.7417,667.2836,265.45728
-411.50897,343.89706,252.11362
-390.92822,489.85516,170.99957
-94.734535,-88.52325,-77.70685
-1.5692228,297.96524,9.18208
197.39659,-45.68048,16.48548
355.87686,-341.68933,-226.96648
495.943,-423.16833,202.57912
153.62206,3591.415,1647.0227
-524.4549,585.97253,573.5809
-1374.444,1264.7118,773.8501
-1212.718,625.4905,13.931096
-919.25555,577.6695,441.5698
-448.2702,311.915,254.11
-308.7599,39.454952,280.69635
-214.26434,-146.7208,52.55108
-419.49734,108.29786,240.71973
-675.6619,186.37462,72.855194
-1936.8002,1402.8384,805.19635
-1575.2273,918.98553,398.68283
-1384.9741,353.50363,92.86816
-1334.7896,732.6503,717.4923
-1145.2084,573.4949,885.81067
-1236.1882,752.0838,792.3901
-1528.9625,350.2697,768.14044
-1752.1956,629.2296,456.17133
-1657.4474,597.0261,506.76788
-1422.2921,594.3326,299.78122
-1246.8275,564.1974,285.14035
-923.74725,562.84094,151.88231
-761.8147,649.0774,221.85286
-597.002,391.48514,79.42016
-468.7142,321.56604,97.113976
-244.92874,236.52348,-45.185715
-197.71611,273.52524,155.21725
-24.864141,60.38676,86.03187
29.236067,225.70894,158.58548
389.74197,-136.24261,-172.00644
445.29633,73.98063,368.05612
-194.30324,3840.4268,1866.596
-1157.243,740.6047,198.09523
-1043.1766,1380.795,-131.23215
-35.748943,149.6698,77.73039
-284.6746,-505.09946,226.88348
-512.1284,23.411894,356.16327
-797.3567,1787.8125,1260.6729
-348.29947,911.37744,809.67737
-360.76077,262.01962,207.59149
-422.97696,694.558,-43.45998
-516.6826,667.01825,170.4552
-608.6277,943.483,331.8587
-820.7705,510.7161,303.93353
-1018.256,610.1453,216.14293
-1239.4567,420.23572,421.99622
-1573.2361,681.0473,389.41412
-1376.0024,694.8499,371.05322
-1482.4185,1162.599,731.43585
-1537.6978,945.93665,602.35236
-1435.8442,1071.1713,249.91974
-1389.1974,877.1961,554.0394
-1234.9054,954.3325,272.35983
-1093.5042,567.0717,226.67522
-680.67957,448.3631,61.606655
-383.1344,156.60316,70.69637
-181.9562,107.74324,33.264374
-66.3057,-59.120583,-18.167742
11.745892,250.73253,-63.134476
230.18803,-361.5441,3.7959728
490.99936,57.472145,-137.68187
39.68286,-284.49298,495.74823
-1057.9202,4492.4697,2867.2908
-371.0965,-71.90584,-58.114643
-988.5041,705.5532,867.24725
-407.7163,1298.8317,559.3675
-325.76498,262.17773,837.89453
-261.8809,1183.9531,703.3952
-211.51022,310.42737,574.57263
-94.57131,682.7746,481.32474
-69.661224,288.7874,469.60413
-14.387912,1087.0247,419.825
-162.15941,534.2913,363.22507
-161.90512,747.79535,111.5517
-209.55684,582.7809,325.66275
-343.78214,731.051,239.98157
-370.07632,413.4331,161.20851
-561.95,869.1194,366.89767
-632.93304,184.67839,360.64465
-1599.3342,1000.57904,483.07928
-1877.762,1120.3448,588.51794
-1879.7228,1431.6813,759.2231
-1639.6516,1166.1461,652.6652
-1588.2875,863.5516,355.91776
-1382.358,659.175,-38.568863
-1112.3052,750.28754,65.42545
-697.5252,578.0012,-89.72664
-532.7185,431.28244,155.46771
-266.07462,261.057,12.206521
-230.6848,408.83923,195.37682
-84.7435,27.617962,25.958225
-32.58951,465.8645,310.43857
159.89348,144.87048,73.11136
204.0586,634.19666,439.9362
399.6289,-332.66058,-144.87027
-32.540874,1562.2922,1568.0403
138.6916,2936.507,1473.3114
-72.49533,-312.25705,-43.516197
-816.3022,1554.624,640.6245
-722.6141,236.57448,246.74342
-992.49677,1211.1475,748.49976
-425.59875,423.3153,140.6573
-131.94914,456.38907,369.50534
32.08049,-104.89795,72.13125
35.33196,-65.673164,172.3841
-341.85275,-23.574497,22.944284
-723.7056,407.4344,415.66602
-1739.419,676.3875,716.93207
-1944.5162,1242.7766,461.51422
-1324.9325,543.69836,250.52243
-1180.6721,1004.4099,759.2694
-1016.0676,894.2988,560.2576
-1103.5298,823.54663,615.0239
-1499.5721,895.8398,268.8795
-1738.6744,985.03613,257.41727
-1548.0099,706.8018,48.838547
-1460.7913,903.2111,75.35029
-1102.7806,471.82422,-252.67104
-858.946,590.90436,-87.48177
-600.561,367.2735,-265.61743
-598.37915,470.2531,5.6850057
-341.07336,461.35257,-145.65816
-279.00323,554.2012,200.53923
-42.877926,297.90805,-1.642111
-112.20685,607.23486,328.40485
64.85067,203.11732,88.819244
33.205807,304.24744,347.02728
131.11015,-551.94385,37.39817
-636.5069,1671.7673,1027.9281
-299.3978,3926.926,653.79816
-166.36879,-309.67053,87.03636
-702.08527,875.7112,418.8335
-640.46674,515.4233,503.3028
-431.31223,417.1501,708.8737
-302.22546,328.53275,757.4691
-432.04,417.59744,677.1886
-357.4286,482.5174,505.9304
-761.9209,617.33105,426.3622
-769.5438,365.805,103.88768
-785.2798,808.99457,136.15778
-611.0375,475.21658,278.813
-688.3297,701.33496,545.3398
-600.9482,236.89929,469.3595
-986.33167,1185.6792,338.77844
-1001.0754,948.3801,491.22284
-1116.5948,1071.968,432.20407
-1357.7521,1407.1844,590.55084
-1449.1804,1085.7146,227.6578
-1797.4377,906.62756,228.1361
-1515.5669,652.4257,11.858461
-1250.3715,671.5538,94.46276
-819.05664,421.84134,149.87967
-628.67664,303.50992,225.87253
-436.89935,421.45004,202.54015
-224.21887,160.8655,184.06567
-123.7898,212.11676,60.527733
24.148653,265.1189,91.698715
168.58951,210.15082,-18.171638
203.80821,-23.267776,506.27173
-23.769484,2701.8052,1711.7635
-244.08377,409.60486,504.66873
-409.76196,833.6809,797.9877
-502.66934,909.8949,179.66693
-514.9684,296.3181,271.52008
-457.93863,129.04877,107.34708
-590.93225,-63.54385,250.92474
-768.9929,466.49942,220.64885
-946.68335,55.729416,61.919853
-1866.3383,1657.2694,577.1198
-1160.0243,1015.0806,393.86722
-772.196,80.32189,-26.475534
-1037.2919,874.5107,197.34203
-928.19446,668.49805,283.3666
-987.8706,464.59598,406.1882
-1114.1185,755.58826,462.57135
-1279.5918,696.4512,603.16473
-1305.0347,898.93726,613.00085
-1261.2661,773.037,662.0477
-1366.4071,1073.8282,501.11234
-1392.5676,801.9482,385.3509
-1242.8993,880.2765,255.33057
-994.64856,725.59753,164.97237
-805.7667,629.1365,216.91852
-433.7198,176.45915,100.98024
-356.31186,361.23743,183.12463
-178.9305,53.692062,-19.391281
-138.98381,359.0818,67.91672
134.2037,-188.71103,-29.787554
120.230774,378.87115,49.784138
413.7887,-639.5238,-245.30911
279.00598,2773.0513,1429.8226
206.81349,1096.6748,841.0131
119.19165,-339.15247,406.08646
-1172.1052,1971.9641,944.26843
-2180.4285,1062.7146,214.2341
-1262.659,913.1047,-300.93768
-437.9845,153.23763,297.4643
-286.37057,40.80789,241.33751
-353.9657,-4.6850595,535.1663
-481.49915,232.59271,364.16992
-857.6046,668.74896,263.24884
-973.5232,820.4141,417.5958
-1231.3738,922.36646,551.23047
-1234.6676,1000.4107,381.02646
-1131.5399,722.9327,439.9861
-1256.1929,914.47546,628.39166
-1384.7665,813.56915,657.4266
-1411.4056,706.6939,515.65094
-1460.2998,1102.686,566.9397
-1261.9033,1057.8058,671.51636
-1259.3152,1107.5757,715.56616
-1146.7745,1025.0875,588.0327
-951.5115,504.90134,418.10474
-724.5137,327.5147,210.87784
-527.66766,425.88388,6.5567274
-404.0916,138.88254,57.316772
-144.76248,82.512665,-16.986603
-68.12463,60.36563,50.498974
10.963127,191.37436,57.782913
113.64702,175.63287,216.38718
255.19916,108.71268,-13.4417305
212.93515,128.80576,592.1571
-175.9371,3444.3604,2265.0908
-141.76498,-100.09987,332.8745
-1108.5948,1273.7559,857.1598
-1131.5133,1018.9862,-4.3538313
-749.3959,1153.1464,911.637
-469.4596,1089.7631,693.21875
-337.12445,293.98663,521.7878
-317.64328,455.54468,332.64236
-229.1246,359.59357,310.1554
43.039207,263.74347,-97.48308
-107.796715,435.95624,94.61582
-280.668,945.56494,114.080605
-468.44122,787.62225,309.80222
-973.2107,1163.205,225.5785
-1338.7712,1051.7782,370.58267
-1357.6136,1252.8467,537.7258
-1323.773,929.93555,615.6049
-1450.8652,1007.3389,679.4849
-1524.8816,942.12415,787.0731
-1348.3385,913.97565,571.1122
-1073.2133,686.5943,652.8712
-1064.8473,785.3443,420.58047
-871.88184,450.91458,308.75824
-667.6848,742.0951,229.02446
-530.6655,506.35803,345.7233
-208.321,332.0455,208.92079
11.571604,13.331348,299.33582
79.59529,345.4232,145.57137
291.81937,-211.10089,6.228855
439.02322,20.901632,-243.29453
373.11993,-1003.8035,-72.9642
-187.25854,4356.568,2273.732
299.04993,214.58243,147.78134
-424.40305,534.38104,508.90924
-357.0442,1278.4775,435.73932
-478.7874,715.172,639.2417
-1046.9238,1605.7638,377.9435
-796.7607,487.80072,-22.701725
-711.1915,1290.4252,364.3356
-213.10432,357.5569,463.0274
-124.744385,861.7706,537.27313
-110.48364,882.7276,649.57837
17.65804,524.3069,432.80103
144.43845,437.35538,329.93005
27.19131,830.2473,474.6267
124.69955,606.8702,302.02847
-51.535442,883.0901,408.6418
-158.27956,643.1233,400.53906
-718.41327,919.4298,675.5452
-1282.7347,1179.2717,391.3582
-1862.3613,1834.1483,815.7506
-1805.025,1351.1052,743.81433
-1302.1646,1373.8617,728.50104
-1149.5222,680.7207,608.2035
-909.3693,813.49384,431.19934
-669.0683,491.5159,259.4224
-414.6151,463.00775,118.92391
-295.97784,87.822525,7.1311
-131.55066,207.89621,-110.05522
-24.23318,-198.71877,-165.03041
161.30219,114.03999,-93.91117
468.85068,-907.0118,-152.57767
445.4773,1854.9186,1557.4939
-129.09596,2086.8157,972.06256
-127.38139,-199.25809,447.59787
-551.12256,916.3927,523.7277
-961.2577,1053.3534,563.4554
-1164.442,1106.8644,161.18394
-1032.8899,1012.8029,243.90685
-844.46063,806.0374,261.269
-462.63016,773.1029,365.45795
7.471474,590.52344,543.6844
-46.548756,314.77563,487.7504
-233.89777,491.7578,448.5312
-331.45187,1023.9626,492.2542
-244.53369,548.40125,332.2629
-398.84082,485.95972,424.14017
-407.1797,614.739,413.15158
-528.37787,434.1287,506.0795
-1207.7018,661.77606,394.11066
-2184.8516,1625.0247,632.8577
-2135.71,1129.4607,244.50505
-1678.4518,1038.0443,772.345
-1357.0421,962.79004,501.38782
-1391.4479,1097.7448,293.3977
-1054.2119,536.60785,74.34213
-805.03625,582.75665,114.03864
-566.3888,413.27274,64.58832
-492.08823,82.53401,36.770393
-43.679977,-528.2219,-141.16002
25.852802,281.89752,-13.946957
289.01895,-278.85297,-165.6357
367.27603,-27.894053,120.586586
549.3156,84.93678,-66.922325
34.863182,3782.056,1966.3733
64.77223,273.98853,449.5926
-864.72424,940.19366,553.41064
-1704.9377,1771.869,434.22473
-994.0063,195.17941,-87.994835
-509.1828,237.51479,504.4629
-380.30768,-237.36844,56.258926
-388.62256,1465.9137,1018.8046
25.008627,1303.8175,1230.3694
22.598982,743.4574,416.78476
-416.65488,1028.3934,562.22424
-196.94293,314.55002,484.7566
-342.59628,-71.06755,367.10135
-756.1797,831.28925,491.66464
-490.3158,612.14264,585.614
-253.09055,326.69315,321.60977
-1186.1018,1020.108,238.03564
-2109.1028,1340.1116,382.45435
-1932.0422,704.8299,596.0441
-1715.5322,1090.4099,686.2002
-1363.2372,899.01996,765.6198
-1283.2896,428.91342,315.14474
-1102.8427,608.86725,421.66953
-903.4113,569.6585,226.15549
-780.7198,546.22595,336.81125
-397.3985,126.490326,137.11816
-206.37572,386.07703,239.41129
32.366985,-181.0406,-16.053501
83.902176,221.40047,34.67903
294.07507,-375.8285,-259.1182
380.9391,138.59271,85.21712
349.63556,-879.8548,-268.87103
-631.9504,3211.8728,2705.4417
-364.00012,2405.237,963.8133
-604.49255,-803.3788,342.7644
-893.4297,2390.6667,889.36304
-487.49338,-213.48639,15.852673
-429.58936,921.42285,689.3107
-238.82173,960.13824,607.86755
-223.56017,976.0571,507.68945
-270.35944,416.31458,329.19376
-124.80584,742.50073,132.8803
198.87152,-422.47858,45.989037
7.1679263,-164.52759,-27.758411
-507.50455,-490.126,-33.09368
-948.01746,569.6948,43.08717
-1845.5961,1005.94446,945.00446
-2970.861,1058.3536,663.15454
-1705.5914,115.48259,-125.97
-1741.2646,1192.2882,1146.1422
-1362.746,242.32417,752.06274
-1348.5516,234.11632,436.06326
-1509.3687,24.717674,247.01616
-1501.5015,323.94962,198.23318
-1222.0161,388.47617,144.58145
-1136.7461,456.2831,231.0472
-829.3863,300.44104,87.33771
-700.44684,605.3234,224.16081
-490.08096,473.01837,169.24516
-344.62714,313.25702,60.81825
-110.178154,447.96643,-13.595552
23.839367,71.09782,176.34142
345.47372,-154.0365,119.35016
282.13025,-655.0184,-11.502111
4.6780586,1577.731,1401.546
-168.19458,3084.046,1096.2642
-295.00607,-232.19482,413.33118
-1688.9675,2274.1956,927.2532
-1183.8652,218.19322,-249.72298
-571.51324,741.9625,623.65234
1.2369908,-215.91165,32.72119
-73.88275,-32.60336,329.0242
-357.49625,-410.63538,46.918667
-863.769,1749.7838,839.4294
-75.68468,1611.7213,344.6347
-227.63397,711.42596,470.53464
-250.12575,981.9954,252.41986
32.995174,-130.08961,-137.31543
-927.3373,525.364,176.14801
-1897.4254,1141.2135,1017.163
-1845.6028,310.3995,185.99797
-2193.2122,285.0138,662.6841
-1826.1951,508.60278,812.5166
-1514.5088,774.0095,646.0415
-1513.6853,632.66406,518.584
-1364.6787,665.97845,417.26007
-1023.6653,502.80432,65.06609
-806.6451,377.2582,313.4735
-625.33014,324.7413,69.539665
-294.3634,175.22574,-10.123244
-162.44855,85.21748,55.39843
-59.34695,50.835648,151.41136
112.21473,250.75244,-96.22045
215.6684,121.01481,130.92905
150.07028,333.78897,74.96082
-42.164864,373.4251,625.1875
-697.91113,3591.9404,2575.3113
-369.74515,335.71158,221.76344
-835.07745,903.30035,648.6129
-379.35132,999.5017,320.506
-329.34766,83.54549,613.64044
-364.74268,1699.2274,966.63226
86.25732,203.58261,615.34924
-72.26433,1264.867,749.54803
153.80232,179.09865,223.99806
145.2617,606.5433,250.9229
39.6989,909.85333,634.3505
98.78687,1043.9678,355.7711
187.62918,200.6517,120.682434
182.52647,775.86774,251.87476
-234.9264,211.86407,195.2979
-484.0052,1354.6268,287.7136
-614.62164,842.2265,204.18646
-1165.1671,869.58765,536.03644
-1399.6135,284.9188,801.1101
-2331.5007,1090.1168,475.17892
-1963.6436,1197.261,418.18472
-1337.477,585.6349,597.517
-1095.9006,1121.0825,411.68112
-1007.6693,599.53,409.48547
-662.82874,536.5409,153.94939
-378.4085,273.5727,234.55392
-337.53247,324.05106,169.66231
-114.90719,11.578716,-34.632523
-23.683708,424.2562,-39.80369
105.352356,-20.395063,126.76276
212.17545,519.9191,-16.249481
336.0396,-572.7344,184.2345
399.53824,2099.8123,1895.7255
252.13773,1646.889,1026.808
-804.86334,230.36002,326.28015
-1604.2363,946.7942,226.89436
-1822.9478,747.58984,106.176254
-858.3013,266.40942,143.03952
-482.2537,889.556,459.37006
-375.0525,1808.8262,1101.5175
-378.05075,668.6809,454.19397
-343.35995,-304.9559,254.96326
-88.2174,799.44086,685.8059
335.9971,330.5367,473.21176
-92.640854,1015.33136,542.67487
-283.3389,1035.184,633.3866
-329.61707,338.0259,364.37683
-602.589,446.40292,84.97901
-725.32074,486.75854,523.0566
-1638.1482,772.33923,544.5456
-2461.4775,1370.4476,237.73706
-2328.4685,768.20264,572.84705
-1332.2471,723.8196,514.59174
-1543.1544,1016.756,775.0666
-1276.9185,476.36206,176.98962
-946.54803,610.61383,236.746
-528.6037,304.70428,132.28186
-400.5925,311.172,161.62825
-146.50569,-104.39605,-80.61788
-130.48366,176.77785,121.4612
199.01326,-97.03629,-89.18719
326.24463,104.81149,172.9128
730.7279,-607.45715,-438.76526
308.26254,881.6052,775.3043
48.837067,3389.469,1651.1238
-1007.9423,-421.3036,398.80045
-1870.5519,1590.2295,645.23895
-1441.994,528.163,115.67292
-745.7309,1047.4796,697.5782
3.3984218,342.4118,731.5435
-18.120861,1706.5536,1354.8574
12.053852,679.8662,461.62927
-1.5059854,1.334522,54.590305
-3.3942757,500.62442,114.543526
240.25038,75.10324,9.2087345
62.066303,-67.77066,-43.884247
-184.06932,-67.41127,-145.83446
-1003.1518,709.8071,521.21423
-2045.1256,1034.1813,1040.4849
-2303.2693,559.58185,254.8974
-1856.598,402.23428,524.8997
-1592.2883,506.07135,813.6858
-1561.6251,924.0906,765.804
-1153.8624,63.29825,410.84723
-1332.9902,455.31723,274.7149
-1320.3372,204.56534,275.18246
-1189.7834,302.96832,192.83167
-1020.38245,358.81802,149.23247
-881.6631,391.6386,133.33778
-691.56616,392.10135,120.04101
-632.8988,588.2581,208.63339
-491.6406,485.01352,47.748703
-219.90578,519.9588,224.7615
37.23331,95.653435,346.30438
179.3331,477.95087,348.76614
314.47357,-399.78357,62.5529
613.2218,1589.3628,1164.7755
239.73041,1286.2999,819.7273
-130.54593,210.52289,509.43558
-1021.7188,1175.6798,488.2996
-1644.0546,1047.0865,386.74066
-1220.0245,652.53424,-9.011427
-593.9734,270.8901,103.52907
-263.87735,72.18473,76.33737
-266.22562,-125.54539,159.47028
-416.29388,196.11632,293.6598
-658.94305,170.12592,355.29913
-1418.8048,883.5489,676.3898
-1683.9933,813.0372,651.7669
-1726.6589,576.9024,472.57684
-1532.9779,721.9132,582.5116
-1412.7114,708.065,731.92145
-1454.5387,519.30774,712.1353
-1335.4534,600.9559,538.5099
-1420.8541,356.73102,560.63995
-1367.7999,741.9989,518.86584
-1351.8046,470.04074,537.0748
-1284.2512,364.52432,418.82602
-1123.914,426.76544,304.3898
-726.2204,452.70383,201.7327
-375.6384,340.51782,115.9044
-184.47212,252.44951,103.08275
-77.267296,143.66203,133.77928
46.776745,87.65607,24.499783
82.20483,-18.84317,164.99278
152.00523,-122.94957,-81.709
42.59344,917.72363,1276.7113
-168.17154,2136.6091,1494.1406
101.454025,-95.16637,296.9007
-1055.3644,1552.5941,971.79236
-1905.9844,1034.2833,126.9699
-1106.1923,688.5323,-2.9091394
-524.5163,-349.52948,-107.573906
-906.0867,994.0295,421.56952
-406.09262,2551.611,998.69244
-207.59387,1421.6816,583.03796
-322.72226,487.46603,242.77863
-201.18098,50.142857,85.139854
-155.57048,449.3604,162.14684
-72.9073,656.2691,272.3453
-377.43625,767.56146,190.17303
-515.9504,776.1394,418.1114
-455.43332,635.4377,346.76443
-726.09,587.3415,490.45636
-1569.5902,550.77826,584.5671
-2594.6072,1114.537,814.5086
-2125.6665,372.4638,443.1837
-1486.2207,580.32776,730.1839
-1473.584,422.23672,676.7078
-1382.6306,446.60062,592.56415
-1080.8153,339.65027,326.10355
-806.7469,570.384,345.71628
-518.30927,248.6923,54.469456
-253.56091,241.9976,70.582634
43.265564,-197.1373,-216.93675
142.87866,377.13507,-10.846578
367.61298,-265.25583,-213.72372
542.0165,368.04575,48.652584
650.72534,-667.8221,-295.3873
-113.59536,2763.756,1763.7394
-306.70856,1965.6232,844.163
-1426.0616,11.5000105,336.77896
-1159.8433,1882.2981,670.0074
-507.24857,51.505093,575.9645
-164.07611,1304.7072,963.3547
-43.006016,186.94322,417.9535
-86.03839,1290.6315,675.9497
164.48064,486.4336,258.3633
206.62909,475.50253,183.5039
91.108894,287.68997,151.15201
57.32644,592.96,166.67444
279.28775,-164.60187,122.09121
77.00209,88.86145,338.28366
-456.68542,225.66782,420.8036
-1350.1312,759.08264,392.26114
-2167.4146,1344.952,454.82147
-2551.1514,833.7553,661.5043
-2043.7145,419.64706,522.11127
-1635.7654,835.1171,742.0243
-1681.2526,48.543625,650.5324
-1488.5227,272.17563,482.9041
-1205.8013,-11.935345,389.08456
-968.56244,342.57336,428.55542
-656.1661,13.9093895,217.16687
-523.0308,458.60553,400.7983
-258.3325,104.46515,28.728672
-135.47841,450.0233,119.52123
64.31359,249.20782,-54.038994
79.17733,614.5976,340.8768
293.05292,27.818476,-1.2748741
375.3502,827.89355,808.9065
21.508366,1403.344,1189.2893
-143.14133,451.72855,639.78894
-900.4342,1241.7279,554.25366
-821.0115,738.8227,296.76315
-616.54517,881.5281,838.582
-453.76587,1156.673,846.2316
-63.96341,608.0629,464.39087
-149.62242,758.15466,303.64932
7.442475,622.4904,177.86565
184.2208,680.3285,164.79608
168.31453,575.2209,191.36661
61.984913,718.6271,184.223
-133.41415,680.0634,201.87721
-251.38983,1326.2546,447.5142
-363.48288,812.1415,350.15082
-588.7363,528.84467,479.4631
-709.8137,531.01324,608.17596
-606.6919,690.6145,514.315
-1739.8601,1085.9563,719.8809
-2460.249,1376.503,739.7524
-1873.119,1025.1649,645.66797
-1455.8895,677.6506,750.46936
-1138.448,641.6595,557.1779
-933.99304,518.10547,409.76462
-488.84885,92.970795,45.51043
-327.16714,308.816,169.16927
-87.75411,129.12605,-230.05916
5.629324,227.45508,166.66417
241.04349,47.85507,-273.16208
197.92036,636.7267,231.17462
357.7349,-232.39005,-376.63928
241.66942,1874.4324,1321.4116
186.98691,2013.2405,1221.1987
231.07976,-316.50232,177.11989
-838.77264,1611.955,1078.252
-895.00214,535.09094,138.6444
-753.94025,1114.0741,713.13525
-422.8528,716.5173,338.56406
-302.67136,723.601,501.89664
-104.06119,766.3877,340.05545
-142.46043,347.50696,273.27036
-192.52599,666.5719,353.9914
-153.86894,1170.1678,374.34555
-110.72386,944.64465,380.34558
-217.40924,583.0357,524.4332
-251.88339,759.5916,365.4999
-309.77518,633.1084,442.5004
-295.30637,873.09955,403.7324
-225.79553,704.26605,393.9282
-457.32983,1262.954,691.5237
-1836.1434,1121.4755,771.0323
-2594.057,1350.7407,345.83743
-1840.8142,860.3252,544.1664
-1473.5468,834.9475,873.3925
-1264.1053,640.3909,670.2682
-907.5374,428.06348,412.07785
-444.21768,144.4042,252.47719
-205.5466,364.5713,71.919266
45.497173,-154.92705,-70.27217
243.38713,-96.64121,-256.61057
361.17368,-199.6333,-217.1161
356.82208,-139.48077,-53.27608
194.02457,-318.07095,-135.5431
-354.04285,1830.3274,1940.028
-685.11224,2035.7888,1361.8287
-642.88245,799.15485,454.37955
-969.88635,789.84985,444.08896
-1023.1986,875.2701,689.2722
-670.6015,267.18005,639.4608
-539.20074,770.62805,639.6261
-758.0722,1602.3375,1157.2776
-69.56435,-233.72714,68.91319
-65.05441,165.89008,229.27237
70.49425,-128.1165,-182.37451
-73.49018,47.96958,-20.987936
-504.63525,297.28485,-28.095562
-1494.7532,1062.8018,801.9312
-1917.2628,1063.6556,653.80554
-1728.9667,474.8714,388.73962
-1560.3746,486.57803,748.3947
-1483.0902,584.0804,917.9768
-1489.2739,284.19882,726.11755
-1691.4221,158.71495,608.12305
-1485.5443,220.24622,238.33878
-1489.2688,307.43402,409.39224
-1160.8513,186.31717,154.15273
-913.75134,337.32513,186.33844
-803.4112,553.1631,89.82853
-712.4767,525.5375,348.10068
-479.71442,423.86005,219.79991
-434.8739,551.21606,264.8538
-296.47308,425.54642,150.30894
-24.050497,311.1398,220.871
228.05754,229.13492,105.71331
372.33438,-150.63477,116.07605
569.20886,-739.021,-297.9452
251.17319,-182.32666,677.7513
-547.6486,4104.117,1647.4386
-1644.3168,794.89276,633.9458
-2071.2817,1400.7449,249.87828
-734.39276,314.2819,-169.17819
-332.51627,-278.72867,554.9399
-84.843544,-167.32944,322.38412
-279.64783,2410.3826,1091.3568
311.61752,1255.0314,441.82242
-205.71835,934.19745,686.8102
-297.56232,227.46654,282.51593
-266.08563,67.96266,209.4669
-287.29367,553.9867,283.87827
-508.011,774.33655,420.48743
-498.64227,650.63965,194.52002
-603.79663,673.2679,366.9285
-1138.757,498.8663,479.01013
-2139.818,1364.1582,746.5895
-2308.3994,528.3781,392.871
-1696.3168,831.3693,514.2507
-1438.0769,471.46628,530.24225
-1403.7467,639.8931,407.36716
-997.0579,359.27164,212.0086
-825.4797,500.6902,309.3439
-606.4856,409.37643,175.47292
-480.0838,368.2881,244.02373
-239.57422,-7.7664557,47.37168
-48.826324,344.93768,47.301132
193.28287,41.36084,-34.93237
247.6726,422.41144,267.71167
555.9138,-586.81195,-118.79523
308.9823,2002.0719,1377.2645
359.13586,1598.178,1083.2764
-835.96313,586.708,862.4473
-1690.63,1683.4943,370.6617
-916.99646,658.9947,190.01546
-445.4381,62.67203,349.77435
-226.56409,-362.20462,75.011475
-437.7138,-122.186104,287.00122
-686.5857,1490.1283,495.69803
-242.36148,2221.8323,632.0566
-112.348495,494.439,398.79163
-602.5054,1374.759,378.62167
-31.256163,-235.45885,151.56313
-791.85925,917.58325,423.6334
-721.58527,286.86414,256.04236
-1431.334,691.07916,635.0009
-1871.8263,852.0318,491.0735
-2026.1683,329.68472,415.21692
-1861.699,640.56445,454.9151
-1376.8325,687.09955,566.14667
-1353.4922,687.00305,419.8595
-1456.0325,651.26074,330.52264
-1168.741,564.69244,18.099121
-890.25,518.65497,208.60965
-493.14713,320.29575,12.83346
-414.69922,317.1873,250.38873
-168.68584,162.22404,-36.985207
-28.797316,172.6853,193.4403
159.41808,50.30474,-49.17778
205.77684,246.94748,270.03146
608.7894,-613.70044,-361.54327
62.758102,819.0346,1406.0929
-294.37677,3695.648,2156.9475
58.18358,-327.8249,658.7708
-1975.1797,1834.3735,894.78235
-1814.7714,480.2367,-321.98154
-1088.6526,878.75183,339.70874
83.028145,-812.862,-19.522388
-246.10559,1671.3221,1229.4479
340.42767,1788.6432,831.3427
286.36368,1098.4751,565.6036
-48.441032,1363.412,571.09357
1.9259856,-189.66356,176.0037
-218.74055,374.36667,227.8512
-311.958,1282.9634,433.41263
227.56264,336.6517,75.534096
72.36158,710.6605,407.26648
135.54582,356.6754,138.53578
-166.0154,749.9243,581.93097
-903.24756,1036.4106,635.51483
-2677.026,2083.9268,861.8057
-2409.5405,1177.2443,471.28336
-1552.4879,945.68945,655.8687
-1197.8575,702.04266,688.93207
-1006.73267,458.42715,408.74313
-715.8204,553.5751,283.8231
-532.2408,340.32462,180.12024
-407.33292,389.66254,201.50282
-244.1925,193.85599,16.310696
-201.67368,328.7781,107.38283
14.296583,247.89941,21.67496
150.76123,396.81512,272.67697
318.1112,76.714806,109.8834
771.46893,-209.47762,541.12714
675.9076,2769.8042,1820.8413
603.6831,47.45208,590.7656
-1779.2648,1671.4893,785.07965
-1945.6893,681.7777,-384.32056
-1226.0494,1246.7382,801.9132
-395.358,953.92163,555.88007
310.98773,457.87833,800.54346
292.25443,978.05676,809.8807
255.57957,419.65906,654.4645
289.4921,497.90405,232.87349
292.8094,599.0413,554.26294
233.25488,857.29724,414.5378
374.05322,549.00574,309.1429
172.11974,447.49747,253.72961
69.739944,686.26917,480.75098
-165.25607,1150.9697,529.0169
-240.14563,391.27463,730.2141
-1818.1807,1309.2622,628.9817
-2827.8767,1588.3619,333.03946
-2220.2947,1333.7743,731.4053
-1364.2128,910.09796,686.9634
-1023.4846,794.0162,516.63434
-755.7162,500.7784,396.9174
-441.23364,439.22488,120.8632
-249.9367,255.09955,233.31322
-104.18064,213.82896,41.427753
79.16938,97.92809,75.450035
228.99748,-6.0277042,-8.579582
294.9588,216.8396,228.26714
441.0948,-318.27484,-195.22551
492.71887,960.98676,1153.6783
492.72946,2537.1785,1571.1583
-563.8737,68.53939,210.7286
-2221.1626,1011.03143,262.79288
-1588.2822,-443.4818,-147.99646
-1529.6249,136.98221,165.11903
-1195.1775,-904.679,101.727295
-1854.7281,2586.2583,1269.849
-414.51935,490.95,640.7494
-948.54266,-28.883318,468.9399
-1080.6527,1185.1661,428.99786
-1099.8497,353.19528,429.14777
-1086.0863,1271.4484,272.9703
-892.0859,602.6801,353.94174
-923.45917,740.023,464.49277
-997.614,638.3829,502.26102
-1304.7064,415.81628,624.20154
-1536.0625,526.2904,599.32117
-1638.5787,599.1978,496.73608
-1808.422,684.3767,666.4731
-1674.316,646.21954,405.97745
-1613.1377,631.6962,580.11914
-1245.067,482.15634,318.6657
-677.4334,388.5759,164.38547
-504.08487,286.40433,162.32149
-458.9352,386.7848,258.61465
-266.18985,224.89479,38.609226
-170.66782,447.70944,142.0424
-110.15,324.598,222.65076
51.2327,353.47998,199.7552
514.0029,-318.23148,-66.63905
555.1387,106.90833,366.69672
268.8202,-236.8427,-183.4989
-948.20197,3784.1575,2130.6624
-991.3292,1409.5286,587.4344
-797.22144,-273.92334,185.42015
-747.8783,2051.2395,1085.0287
-401.41644,156.53429,588.65076
-256.61554,1495.2623,888.8169
115.82951,279.53616,447.16388
252.49028,960.9858,708.39886
459.8542,589.1345,471.88718
624.495,639.4223,350.71698
649.29474,85.43906,62.94537
621.4448,227.58551,-16.527033
406.93625,-202.38081,-184.99779
-180.70943,1069.4955,208.72351
-631.3366,985.1749,559.46484
-1172.3457,1568.2013,182.87529
-1993.8685,1788.0957,823.5229
-2055.9043,1591.8408,619.8756
-1731.7317,1466.5957,468.17685
-1329.567,1064.0704,654.9417
-1043.2938,569.1588,421.47873
-922.59894,646.82733,252.03299
-565.63434,384.0637,146.37645
-472.4429,713.57874,259.42993
-293.11505,101.402374,141.28264
-237.3283,748.50226,223.10747
-33.062428,151.37949,29.369787
23.972233,624.1578,204.22435
279.87082,-107.93029,3.8126554
400.44965,350.52914,127.20894
491.89728,-990.1071,-94.10995
89.73616,2928.4365,1400.235
-609.47235,2270.8127,795.41815
-1559.969,374.09808,316.32727
-1400.4989,1278.3822,82.12255
-896.90137,328.12448,197.25154
-240.69353,322.56375,216.65523
-2.9357615,-410.25125,-16.185396
-414.52512,239.05196,241.07301
-730.3628,337.24963,402.28928
-1236.838,1090.1062,424.4809
-1321.1409,1538.9843,371.4839
-1115.0817,647.4314,375.61157
-1069.0529,788.03314,457.41595
-1015.3149,1002.73505,718.58215
-1004.91833,587.0645,612.1993
-1186.8186,850.1233,650.7148
-1326.595,639.77277,536.07184
-1758.7793,879.27185,554.05774
-1830.3899,684.3057,307.22815
-1624.428,711.4595,289.5543
-1566.4191,720.73047,208.16785
-1293.2874,373.1145,267.50223
-827.38513,365.8686,18.737368
-458.21,379.1378,255.5177
-489.63177,539.9517,208.46
-241.58232,388.47055,116.918686
-146.68402,310.96912,113.672165
-125.88262,188.04002,172.01729
16.057007,227.22835,-34.425156
216.43114,-86.5688,118.13812
371.44614,-216.0226,-100.417046
97.948204,120.182594,789.08923
-107.31914,4018.3816,1623.7568
-258.9049,355.19067,533.5232
-2096.1,1479.5526,609.06934
-1335.6887,702.9099,-362.07236
-852.3887,849.56067,469.4217
261.55383,-24.744024,14.868954
11.283954,715.50183,611.777
223.94786,1979.2941,899.1693
317.34836,535.2956,631.7834
-33.02942,1584.6565,584.56586
133.50809,71.226776,287.40643
49.38896,174.19633,97.42094
-33.41135,590.3635,353.3023
-204.62384,800.87445,297.14743
-405.1067,969.618,345.67114
-421.15662,766.63367,408.99805
-916.3345,889.7969,283.58597
-1951.3135,1320.8035,152.85121
-2326.2622,1488.2708,494.6353
-1412.9369,955.0086,419.9688
-1196.3135,1229.7737,708.85583
-1018.9951,721.74567,327.86942
-887.79675,466.2201,271.98788
-589.07465,481.70288,215.12726
-544.08685,797.2915,350.52838
-384.67502,245.99695,151.05504
-359.04138,567.8762,266.22873
-76.871185,130.05777,32.088596
1.4426178,506.81442,250.8619
260.63504,-153.35944,46.4679
364.51382,352.98605,258.08267
555.255,-890.4736,-91.26951
-81.7503,3001.7266,2159.7239
258.38776,1330.094,683.4624
-798.9176,354.36707,564.01776
-1278.4724,1480.8005,482.49808
-1252.4825,430.85062,215.6059
-1055.1167,925.5233,319.6069
-410.8127,509.6174,418.39288
112.327034,622.9522,523.35986
216.25043,614.97986,644.0401
7.680366,1628.8389,955.62634
308.71127,69.58788,389.17984
184.76788,579.9247,497.33957
113.48068,585.16925,637.22675
-106.40849,692.7776,533.3491
-294.13818,492.77225,478.49094
-478.38907,745.8991,565.0911
-362.39862,631.66364,636.5429
-505.63306,1103.5873,831.14734
-1526.3906,1228.1406,537.2244
-2408.7158,1882.1157,439.84674
-1623.8525,989.6883,567.66046
-1033.4403,1073.9542,575.6863
-867.947,823.70374,512.8628
-578.9363,609.0152,294.66498
-437.51996,433.76746,297.59738
-243.36275,342.91003,63.760235
-106.7071,275.75497,95.11881
29.658543,81.03775,10.849114
139.1172,189.46384,-3.6312509
261.19626,-32.62286,-111.53827
254.74442,132.83026,131.3612
378.72406,-390.678,57.266674
14.470941,3649.0369,2042.0687
9.230891,641.9901,648.3665
-883.46277,631.91125,650.42487
-1264.1536,1015.13245,394.2505
-1213.9514,730.34937,510.6036
-855.7418,930.7123,450.71115
-130.46536,393.0805,422.58066
226.66191,736.6946,589.5151
150.2853,642.95105,723.0499
-25.6452,1331.8883,809.91766
182.07253,1.9566144,299.93335
53.248085,783.898,505.53214
46.45115,472.11948,496.22153
-38.62324,849.6843,406.29584
-214.10765,838.2046,435.63235
-289.61142,653.6706,464.3601
-443.5783,784.8779,543.7802
-1128.9546,1199.8119,756.1822
-1667.1476,1254.2374,328.96945
-1955.2157,1855.1886,801.3064
-1306.7175,575.0282,724.9629
-1138.1395,1295.4277,636.1113
-941.2663,436.13303,529.0476
-708.19904,770.04297,542.259
-401.1041,340.8991,245.60321
-258.6386,413.68088,249.94984
-37.80439,43.938248,-16.085375
49.692463,358.68637,103.32777
180.96237,-230.0402,-212.10907
222.26268,127.74513,58.50304
197.40959,-650.7626,-256.1222
189.93651,1304.9633,792.4082
-572.8805,3369.1626,1525.6608
-982.7721,140.81384,200.1667
-1160.805,1527.149,656.30804
-757.58997,247.36462,130.32104
-426.75333,933.78735,915.9974
52.100136,340.02914,854.3369
-196.57355,1382.805,907.24744
-310.158,917.56067,438.59308
-49.12003,-376.57474,33.50092
-48.78901,547.4119,134.11543
179.47339,-247.42882,-31.398512
86.716934,-107.237526,-10.034801
-370.2655,-347.88586,37.406105
-1261.1394,899.7461,647.2138
-3290.5952,814.0759,1491.2683
-2560.0537,295.65936,-119.91346
-1619.2488,251.72577,378.3079
-1734.0583,971.24347,1040.2585
-1115.8861,47.84559,529.65485
-1110.8402,-40.099144,331.49927
-1180.862,-52.89298,424.6149
-1067.1061,154.69637,279.65628
-982.5291,162.89072,449.59277
-965.36194,420.3221,423.67664
-819.98944,386.81302,294.29514
-818.5176,494.81985,548.63043
-513.07605,686.3764,455.93518
-384.9695,492.45584,348.08823
-164.87398,300.89264,86.85678
-145.43097,574.2194,190.35773
161.34851,340.58783,28.853998
120.67268,248.79747,382.3248
502.76025,-633.90765,12.646976
548.3169,355.39572,1179.492
-90.9985,3009.422,2275.1982
-691.23584,564.1275,421.06265
-1334.8925,472.55148,285.08795
-737.48004,411.32465,250.84027
-603.6874,342.44678,226.16093
-256.44864,164.62811,54.7476
-126.1151,1169.4935,1013.86035
95.44531,1112.1388,862.9468
-232.85468,1026.8792,638.181
-518.03174,1419.275,735.072
-53.333023,-351.32434,189.86922
-366.0383,545.9013,714.6126
-142.57281,937.3882,763.6108
-9.708112,657.6084,666.04144
-240.65723,795.5642,681.3702
-889.86176,851.5889,725.33325
-2263.674,523.8454,747.15424
-2236.6675,1160.1963,249.07652
-1436.4672,375.77667,688.0639
-1224.3997,838.1807,634.2987
-892.0833,254.68105,379.66266
-784.7358,650.1373,350.98877
-434.31345,470.95078,344.1242
-239.58896,590.8099,274.01996
13.0125065,412.26877,132.5325
235.20006,392.49097,48.65561
367.0735,85.240875,120.58358
491.38873,-99.230774,-208.02345
556.60864,-457.71887,269.13608
3.7603452,2171.2817,1748.3572
-331.59082,838.2468,434.59326
-390.91614,901.8578,707.8919
-670.63257,1121.7354,594.80414
-1077.5758,903.2042,455.2351
-1279.2317,696.6126,242.18567
-717.5919,-260.881,-264.08096
-617.76996,110.71722,62.373493
-281.85516,-431.45535,-53.983387
-974.0995,783.23846,467.59302
-928.72864,1412.4459,479.13098
-1109.6818,753.48206,382.93445
-1317.9003,891.29395,560.06085
-1032.9263,482.81717,356.53043
-1331.9288,741.82227,605.3142
-1312.8812,227.26086,765.5589
-1362.7958,390.16718,566.66595
-1515.1882,302.4101,749.72815
-1540.8207,261.51102,651.2462
-1494.1694,398.78836,792.741
-1543.2523,376.82733,525.008
-1626.7682,392.8731,748.50635
-1166.5322,363.0769,423.54727
-733.0817,456.23093,396.24612
-352.45746,144.6489,19.991693
-102.56303,237.44435,14.263834
33.24799,4.8321433,-129.00587
162.63387,272.6653,117.6596
295.66055,-128.54684,-235.05344
336.94153,-53.516197,184.61165
262.53918,-683.40936,-391.8091
-294.2467,2324.372,2145.856
-281.64374,2771.2607,1200.2174
-51.909153,-1333.4915,192.49677
-666.7123,1961.1733,1293.8622
-908.9873,660.1367,646.7115
-968.9318,1040.2173,759.65436
-740.5386,428.2121,238.0349
-527.9154,1074.5513,339.46573
-197.62192,639.4653,8.96729
-1.2090518,462.63843,16.871033
52.63067,-54.780945,-173.76566
-20.84354,526.0431,69.02195
-320.219,471.76614,56.037395
-777.77106,868.90424,417.25327
-1317.7687,765.34467,416.6755
-1889.0261,1325.7058,679.73895
-1506.2158,127.28815,379.5341
-1598.7334,1034.366,928.42346
-1448.8215,304.96777,829.3285
-1451.1127,499.69235,802.7198
-1311.5065,95.86485,667.8644
-1567.1233,577.30524,761.8186
-1452.0564,-102.49067,449.8564
-1213.6583,572.0094,714.8629
-839.9634,83.23894,409.15247
-456.4837,629.84094,496.21628
-263.377,35.701782,217.44157
-180.48073,641.6549,315.40625
57.208282,-168.60347,60.44072
74.13907,620.0056,383.50793
281.17682,-647.9912,-166.487
391.60654,287.97705,290.60895
475.72653,-1388.7117,-536.3586
-247.74454,3536.95,1618.6849
-206.6097,2222.331,920.54913
-598.169,-510.9943,429.5229
-656.5093,2074.789,854.40173
-758.8513,29.960732,337.48553
-671.7629,1391.5691,626.43286
-307.98526,354.77603,173.92526
-163.92216,1021.7272,390.94574
85.03573,645.21234,373.40652
107.574776,771.5565,321.3991
83.58692,721.5833,231.83478
0.0856487,776.19727,512.4521
-28.830854,548.8612,406.4489
-25.942217,906.1443,445.5793
-17.302204,614.3267,653.37354
44.67884,705.2844,583.51917
-152.4224,712.61426,765.68774
-973.6889,1306.9395,804.49805
-2129.9578,2452.9783,666.7364
-1712.3811,1758.0754,837.0502
-1089.4241,1184.7997,746.6942
-806.9106,668.04047,639.3414
-614.12103,543.738,324.16486
-482.9121,230.69623,73.27053
-435.77496,541.622,198.63745
-224.38838,122.747055,66.15458
-124.33198,406.6175,94.37379
-9.100176,23.102068,-3.4997187
159.31631,397.72467,116.147964
690.4557,-1046.2728,-393.1956
577.2352,1388.7115,1003.0164
302.5125,2074.6663,1297.672
-1201.6346,306.58148,345.557
-2121.1777,1370.3065,142.44124
-1492.2765,465.6198,66.34521
-860.6519,859.82983,614.67236
13.665819,229.41495,793.3494
-708.653,2515.79,1491.365
-349.69995,-141.42523,297.6408
-715.1405,408.0499,277.51733
-3.2158616,98.35422,204.26202
9.1792145,-0.8700057,250.61473
-69.31574,277.62546,51.157284
-612.7339,453.87677,254.44473
-1219.416,1062.3408,376.74893
-1444.452,645.7544,458.31882
-1579.9457,588.10284,87.619514
-1625.3256,751.99475,590.50494
-1277.3873,733.2062,583.91223
-1528.6282,928.71796,732.04706
-1676.924,376.38498,411.25342
-1527.6428,508.76038,391.7209
-1499.9578,440.30145,340.91968
-1431.3937,589.9431,411.621
-1183.6877,424.52875,271.749
-847.4723,293.7098,338.1021
-490.84085,329.9892,230.225
-293.5663,171.31984,145.0707
-95.899254,229.10956,58.46021
-71.44361,211.60466,145.54407
116.521416,373.0087,-58.957073
182.29713,50.250065,46.796127
694.0357,-361.65445,-237.72252
685.66003,-808.11237,45.46877
95.77343,4283.3726,2048.2776
-543.1973,531.45056,751.3904
-2686.1956,1018.38,386.64523
-1636.8105,584.54474,-153.65433
-916.86487,50.4655,529.6742
-451.85004,156.41708,152.03123
-389.7064,815.15546,818.08154
-34.96698,1698.048,994.5523
140.69928,106.23011,568.8434
-366.04767,1185.7325,810.45966
-269.09845,847.8474,653.74084
56.384453,434.7305,448.8976
-251.41016,258.84888,462.6328
-446.15842,767.4447,576.9071
-550.23236,261.5032,284.81604
-1071.1578,792.05023,463.02203
-2063.4185,634.67706,548.65967
-2482.5989,1338.8939,435.57498
-1719.029,520.88513,224.61394
-1453.0714,991.90393,789.8602
-1313.1774,511.81992,399.34424
-1237.1373,765.75665,442.53546
-1008.0179,404.92276,394.39554
-702.7537,669.4949,409.2128
-352.90372,179.30325,115.799706
-288.81207,391.07196,328.428
72.22906,-190.98547,-222.862
16.35473,442.77277,96.68952
388.6224,-393.99948,-323.6656
351.0401,202.49077,153.64815
491.93616,-1095.5226,-391.98163
-167.87325,2023.1643,1533.4357
61.678017,2375.826,1443.1328
-1287.7261,51.37315,596.82446
-2055.7395,1421.3127,29.023783
-1035.9712,-70.9397,216.93657
-817.6737,1913.3994,1081.6959
-61.983147,143.42232,395.30106
-97.28309,1072.9012,731.3972
-106.60372,519.0805,364.36523
91.63968,163.92462,444.34106
-133.12335,1079.8821,993.259
-89.44084,712.9612,676.60223
-254.01825,312.75583,368.42416
-90.66629,495.85083,442.31476
-72.83399,502.15576,500.3778
-160.61087,968.81,384.33408
-191.7018,808.7998,411.49313
-513.9877,924.01733,449.0776
-2170.8022,757.7256,674.82214
-2922.4395,1351.2067,255.23491
-1734.5474,-0.7237089,212.43904
-1374.6517,962.5969,1011.5001
-1257.2604,494.6513,570.3082
-1102.691,563.1529,374.82764
-777.72107,193.1978,125.51981
-499.3039,752.8111,243.53326
-415.8863,247.5533,83.68043
-283.05737,231.77306,78.71285
-221.3123,263.69766,7.816069
-96.52331,542.7438,256.5379
79.489624,14.045665,124.54244
463.36435,-153.4859,-228.30862
1081.9678,-1777.6106,-349.2519
-351.8006,4045.622,1839.238
-987.09576,763.43524,483.47314
-2044.3087,698.6671,387.99466
-1431.6799,843.2706,0.5846187
-972.51575,538.7731,704.32935
-244.76146,1146.0593,731.0516
207.24715,-32.07405,644.41364
-124.197266,861.47876,816.6453
-132.29163,517.4716,414.38232
-201.24269,936.9103,427.7739
-201.31944,423.3087,366.8792
-250.42503,803.2406,266.82028
-398.49783,465.44,268.74142
-567.7615,840.5051,326.00317
-615.6919,505.94803,288.47287
-636.9895,892.68207,444.04492
-1619.2383,349.63077,759.39496
-2722.1184,1302.4742,817.564
-1985.8627,263.88504,289.97415
-1670.1101,352.74365,768.7415
-1397.61,434.8282,546.822
-1144.178,523.5399,489.8238
-831.8531,509.8172,179.57779
-589.3932,630.77057,187.35065
-380.78537,363.59692,-10.757396
-241.13342,401.90967,35.472294
-65.69067,-134.67996,-72.80761
-27.387962,589.64294,76.92874
198.60274,77.282234,-158.50192
154.64647,828.66064,309.1143
777.79706,-1055.9122,-632.74164
742.56323,1560.7103,2089.5159
535.88666,2206.9285,1504.4945
-1343.9565,79.99889,355.61752
-2636.2039,1746.9144,421.7589
-1680.5917,-17.057255,-303.17587
-1160.3514,1390.3645,764.1337
-236.21365,561.42896,714.5516
349.1437,866.7978,1194.3706
200.60672,984.8875,1164.5161
389.87753,322.69586,608.66907
144.34557,616.3183,470.6377
317.06982,518.28723,115.10188
62.70182,820.857,434.95917
75.64717,1059.1761,305.85196
-123.731155,416.88504,282.2648
-183.04132,551.81024,216.98862
-71.73898,361.3195,563.7516
-618.0208,1233.5293,574.49664
-2076.5725,642.6107,998.36383
-3696.5605,807.6188,247.6327
-1785.9689,1016.967,25.371628
-1728.7922,611.0818,1300.2758
-1257.6208,890.71387,551.4103
-1016.4469,278.75613,325.5433
-570.8472,491.06918,169.82396
-390.9792,88.87796,198.10501
-151.17189,274.91727,58.89537
8.9848995,-105.91617,-106.712105
63.232082,337.21744,58.22676
181.49825,-313.92102,-78.92362
229.86108,126.93393,-103.86547
766.82495,-1782.1354,-344.05292
-70.253716,2814.201,2193.4648
-268.33658,3575.7385,1029.843
-997.43335,-849.0717,170.45154
-1977.6512,1931.5255,723.1538
-1764.6138,163.83615,143.57545
-845.16516,812.41016,454.47656
287.3653,-1182.2028,-134.14874
-405.7074,-135.21309,322.2554
-637.21094,-28.730581,182.83272
-1045.1571,427.95554,500.2191
-1502.37,658.3891,382.6929
-1990.903,1147.3705,484.08865
-1360.1754,434.422,-57.4758
-1342.2495,112.05325,225.64154
-1133.7393,1229.5853,543.7608
-1133.0989,607.5878,842.739
-1117.3809,56.328167,447.59622
-1666.5026,465.54904,717.8177
-1578.3499,-38.050526,343.58334
-1424.4135,479.98956,458.28308
-1419.3064,127.2937,576.536
-1579.6919,589.9124,259.2879
-1381.1882,218.039,73.10883
-1190.0598,824.47614,282.1859
-765.6053,446.31146,62.940147
-532.60016,313.0555,-10.212456
-134.13869,-160.78725,-84.3574
-99.51229,157.22433,42.321793
265.1573,-522.9071,-185.1624
449.45886,-324.63095,-98.960304
488.65576,-692.38116,252.66614
-212.50409,3233.9177,1903.8298
288.7237,1649.1052,774.1031
-686.23865,453.7283,827.1684
-2128.887,1759.2073,279.20273
-1299.45,724.5137,102.766426
-574.1686,599.8992,468.166
-137.37997,-243.77963,227.3396
-326.68436,331.89743,310.7545
-263.574,39.842236,287.72693
-420.8417,332.51828,421.08636
-415.2957,23.55722,134.31052
-914.2236,646.7482,221.70367
-1753.8888,990.0241,671.26825
-1911.6729,840.64386,458.22568
-1326.4257,325.02994,105.146416
-1402.2244,941.2701,772.3864
-1368.0465,673.94244,878.5273
-1282.4747,313.16006,678.9139
-1473.0464,287.81665,702.74756
-1623.4135,348.7904,730.6976
-1191.1981,392.51782,615.95776
-1374.2288,506.89987,667.3184
-1197.0216,122.81588,340.4607
-1029.9061,608.33777,352.07358
-629.0735,250.86377,193.0678
-424.62808,463.1631,196.82863
-107.6851,-9.962455,-15.078041
-120.88969,262.60345,192.3779
98.98801,-131.89113,-59.749275
91.85928,287.58737,272.9016
543.0712,-870.59827,-220.0367
201.85947,1580.1726,1555.9661
168.6073,2131.2456,1210.6218
-417.447,123.75873,322.44302
-1288.6593,1766.3483,751.6794
-1438.8649,638.79346,330.3923
-1189.2899,1109.5911,362.09067
-179.54453,471.82187,575.6238
129.62347,1089.7626,1056.2686
27.73759,1110.1787,669.3389
-247.81033,579.91296,229.77127
-49.086704,21.968002,73.520195
139.35031,883.5981,435.63644
215.7845,419.2292,-34.56547
106.630875,1025.0183,-29.594551
-88.79271,813.77313,265.64697
-225.88254,960.7723,407.04025
-340.08908,889.1658,482.20312
-331.48303,698.1728,502.9309
-1388.146,803.4012,949.87744
-3112.8997,1484.6075,977.79315
-2335.8848,290.22174,352.1854
-1628.8416,434.49664,902.6264
-1273.9889,628.7226,595.15045
-1025.6108,406.73953,309.0839
-770.73346,496.78934,121.01341
-459.48068,493.62814,111.068115
-244.27515,454.26688,138.21457
-37.09553,-5.10482,-126.447105
35.242535,117.49381,40.944317
193.77956,152.76239,-200.59181
164.19035,171.2835,178.42429
596.15295,-713.084,-446.09094
78.1588,1035.8091,1519.0573
-30.608654,3314.5103,1911.5264
252.13568,121.59405,252.39767
-2240.365,1950.8662,683.8811
-1469.6821,777.82935,-420.74805
-950.3777,643.35486,408.9553
84.97063,-588.71075,-93.34267
7.5239935,-982.8688,235.87181
-879.2939,1243.0714,707.8412
-204.42433,4050.0117,1287.4489
612.07996,-1027.4293,-89.701126
-763.14105,1602.3291,605.3815
-567.4742,717.38776,254.3802
-688.6799,632.2674,553.7306
-522.0299,-366.8168,-105.5782
-640.08514,498.14603,353.71484
-364.5,395.4372,186.30255
-1064.7198,1057.6814,791.382
-1880.6571,1072.4266,687.069
-2340.7576,911.20825,614.6951
-1678.6223,779.2093,403.46756
-1454.7681,1024.5782,954.5198
-1307.796,487.46567,328.0819
-1164.7021,772.86,405.98923
-800.4397,286.09686,117.15691
-645.8479,810.3609,394.59973
-380.0163,-13.421629,61.55996
-341.8066,601.7921,238.1524
-73.857414,-114.40158,-206.58258
-97.798515,604.0699,268.9116
343.31674,-463.94467,-226.7625
525.6397,283.81622,335.80356
450.4289,-991.1943,-602.91223
-298.47745,2879.0608,1102.7122
-316.26862,2046.2603,784.6307
-1326.8197,-65.0664,421.0828
-1793.7631,1698.1857,506.66537
-1019.1208,-87.96358,294.4097
-889.94763,1538.3623,974.28937
-207.72166,664.5667,771.8782
97.969124,952.55505,835.4977
294.83884,203.33707,418.4195
93.75663,878.8294,769.17346
242.0409,760.53326,553.635
250.73328,466.0794,338.19977
120.00085,779.03094,272.08426
17.054136,709.6569,237.88489
-264.37317,1074.0161,483.461
-389.88864,694.52313,415.1513
-566.10333,629.0101,332.52405
-747.6067,782.05164,393.99863
-1141.1945,1110.7545,551.8712
-1706.1117,1519.3041,438.97095
-1417.345,1439.2891,552.32684
-1159.3485,1248.6597,531.8617
-1061.7396,802.3005,522.2992
-838.01886,681.88116,252.56796
-586.35626,631.42706,307.31357
-415.2753,424.09888,138.49782
-369.4228,447.5325,266.38184
-168.40489,445.98648,-7.2733355
-42.885887,420.20813,241.31406
-45.60714,446.35187,210.35048
62.382866,629.45496,370.48013
118.46487,546.05457,292.64203
189.29424,967.42883,536.2171
213.37778,1005.5306,409.1047
391.40213,859.35614,644.6382
465.32553,652.4056,763.3425
371.98874,758.5836,412.66534
71.08721,1471.982,375.68375
51.909855,1548.0785,686.90265
59.53138,889.8122,300.00543
0.028986372,598.19244,303.32803
-91.881226,621.8,445.17035
-41.90205,496.38412,149.88766
-197.18066,615.31134,220.18327
-121.45438,882.9436,459.30533
-268.74667,799.4195,321.27637
