# PAMAP2 dataset (wrist-mounted sensor)

acc_x[mg],acc_y[mg],acc_z[mg]
-1620.0753,295.70145,193.81984
-1446.0022,321.96628,162.85289
-1093.422,234.3434,208.87907
-852.75555,237.11067,97.19294
-703.58984,308.75726,-23.713682
-607.7464,250.22473,-65.36274
-584.8786,229.3117,-62.86506
-591.9326,190.70445,-30.535118
-596.5732,225.4161,-11.810405
-627.45807,283.9866,23.457825
-627.3353,399.3307,147.03276
-854.6759,497.704,299.13898
-1042.2667,537.06055,441.51938
-1203.1067,412.7027,622.1288
-1507.094,345.07892,719.0695
-1746.5972,302.00433,759.6276
-1469.3247,265.3846,700.98785
-1038.8977,244.39873,442.02032
-839.0369,326.0956,273.89377
-754.94946,424.7679,221.04645
-685.89264,580.1293,130.47722
-604.7332,733.56665,116.980354
-570.426,751.9843,162.80537
-688.56384,682.0257,273.86053
-1031.7179,798.3744,418.17188
-1153.819,664.0048,399.02267
-1303.8878,511.5224,333.8888
-1546.7238,601.05054,390.27686
-1554.1259,642.69745,453.1294
-1485.8636,653.44604,381.83417
-1674.687,532.8802,241.91833
-1633.3457,261.8316,149.01909
-1281.9691,191.61183,102.9347
-977.39435,158.30008,98.478355
-782.9791,266.33716,77.90615
-651.4386,298.1195,22.741
-582.5871,320.44418,-28.95177
-539.58685,258.27185,-36.93073
-535.49664,255.41663,-54.91461
-603.0883,326.42123,10.524722
-680.62396,383.19263,63.722164
-666.8425,429.435,163.64467
-833.27185,528.3448,256.69824
-1045.1476,537.4838,475.76862
-1193.184,473.59634,632.147
-1457.0387,437.6141,755.7575
-1522.4479,184.80298,647.6302
-1234.7698,231.13647,568.0971
-910.30304,360.3694,604.9874
-667.98773,426.4696,532.28784
-536.1563,617.5702,550.5679
-490.5999,661.68933,544.6574
-547.57025,650.1362,491.26413
-742.62396,566.2827,540.19946
-1011.8851,470.24387,520.8736
-1374.6963,335.2072,478.2212
-1403.5764,189.42468,341.18738
-1540.988,327.10385,361.28195
-1443.9026,597.4763,428.77374
-1472.3384,592.9298,303.0648
-1280.5962,507.23956,141.17639
-1189.7175,412.89844,63.1394
-1008.83014,262.69098,58.192593
-804.9283,317.574,51.668007
-681.2157,336.98395,28.665045
-593.7827,288.4805,15.567668
-542.6121,321.52856,57.277496
-557.16705,335.6769,72.658035
-594.9637,390.1363,81.22204
-714.1322,419.0231,94.99329
-810.78455,417.54968,159.81647
-976.6405,443.66895,340.63065
-1093.499,394.18808,352.26215
-1206.576,405.03735,559.1322
-1233.5619,282.15247,654.2863
-1230.9335,232.71854,451.03418
-1260.6669,254.40445,543.06195
-1150.1844,263.63452,579.54254
-929.93054,404.86478,463.18106
-713.9028,372.24875,250.14575
-657.7265,420.5569,200.4563
-627.7598,537.90436,165.0637
-644.1648,572.282,160.98154
-698.7759,604.9195,120.02323
-878.2031,679.3026,220.95909
-1071.2482,639.53595,272.0465
-1118.8539,665.7551,291.98584
-1279.8877,736.7514,367.14197
-1498.6637,879.0253,604.3463
-1517.6277,659.4616,588.197
-1641.8972,464.917,585.6239
-1882.1078,161.8735,548.0492
-1759.85,232.86346,327.14664
-1196.9243,-103.8058,343.24014
-784.727,130.15556,253.29044
-602.07886,357.28442,48.7803
-522.10974,208.79962,-49.737396
-447.49207,192.04572,-91.325455
-394.5116,136.89844,-35.81445
-348.39758,136.07466,-54.734745
-402.35797,228.7185,-22.71143
-569.6841,375.95956,73.082016
-875.24896,452.44522,270.6972
-1265.0208,469.39053,354.78082
-1640.5367,508.28305,614.0668
-1954.531,451.78992,803.60706
-1942.6093,180.33543,736.4396
-1378.303,-25.14388,660.9815
-1008.3487,124.914986,398.3345
-788.32275,239.67015,282.6931
-681.16077,428.0394,160.31816
-557.0138,719.01794,110.41677
-425.9751,718.821,95.11414
-372.08157,610.3333,139.86147
-478.06653,518.91046,251.16367
-851.298,571.32574,330.49728
-1204.7432,762.8638,386.69217
-1331.7938,706.8014,441.66513
-1510.9606,491.94733,492.4425
-1530.9783,518.5019,640.8793
-1538.6523,510.7787,594.7606
-1510.2439,542.89856,522.1593
-1804.2375,296.08276,563.9208
-1415.1144,63.60173,355.2371
-924.74603,58.039692,210.30153
-650.065,189.63873,129.84145
-544.405,287.71576,82.716324
-438.5597,261.62445,37.542988
-392.23068,267.85757,18.691963
-353.43713,243.64565,-13.741998
-394.7653,260.0059,6.492504
-447.0586,297.1839,35.167778
-604.7139,470.3682,215.64026
-883.16614,613.9455,451.3831
-1121.8231,421.32788,454.92535
-1453.4539,297.90805,425.88763
-1851.516,383.03558,674.08716
-1899.9126,396.202,741.8698
-1474.8124,367.61273,646.78357
-968.07574,219.33093,359.22726
-767.4044,260.1162,231.96614
-657.885,378.73648,142.33463
-631.85986,563.31305,50.561317
-612.9458,636.1012,32.745102
-728.46234,635.04877,67.27286
-921.0045,567.9242,161.04063
-971.0797,571.18414,235.77725
-1050.3165,716.36584,331.97342
-1237.5022,934.0578,471.5209
-1438.8042,1080.4231,669.74835
-1449.2681,543.2691,524.40985
-1516.2738,402.01138,442.8205
-1797.4191,236.79492,465.92065
-1663.213,79.59146,552.5375
-1350.7593,176.17844,476.7532
-966.7689,198.59697,289.4988
-817.8118,220.3587,167.0377
-713.0068,230.02573,96.403435
-568.4606,123.80751,51.375336
-440.80185,129.26521,62.732132
-380.90997,182.47083,78.49558
-323.1274,263.1873,66.20643
-385.40018,425.06955,215.30688
-606.169,568.20526,292.54163
-962.3078,680.23157,346.1726
-1331.1678,579.94476,453.5497
-1841.659,521.08655,530.9397
-1862.761,439.32693,579.27234
-1462.9629,344.89108,538.521
-958.1769,254.70842,403.564
-762.0656,352.2824,264.19647
-661.95154,435.9043,153.14116
-696.8328,506.68692,135.74194
-656.8866,543.63135,91.989555
-698.6985,602.9812,107.59292
-754.48694,637.0233,105.53001
-972.079,780.251,234.97527
-1142.082,873.93744,346.8083
-1263.1482,818.0476,393.5716
-1258.7163,822.0905,499.64264
-1356.0336,697.8974,525.5155
-1467.081,695.3899,481.50778
-1710.1824,556.0377,430.3067
-1759.0713,212.02,403.90134
-1362.7245,152.17503,327.04422
-1030.154,160.4713,254.37196
-826.3356,196.05942,145.66309
-728.8761,277.10916,55.434498
-654.36475,252.02283,19.42922
-540.0748,173.59482,8.608532
-459.91165,174.80267,18.185196
-424.1449,219.02466,17.622366
-413.7163,343.0216,79.37768
-474.16022,461.4315,225.01134
-747.0519,635.9187,379.5689
-1004.3892,615.6773,517.1132
-1324.6055,389.0072,644.73236
-1833.7394,314.25186,687.7522
-1827.4127,244.40909,639.10297
-1340.695,213.90504,590.90674
-951.8724,317.62946,369.12396
-802.3726,434.48453,249.43329
-733.4922,524.461,208.46548
-681.0741,617.1496,143.66183
-660.2118,656.7279,144.93285
-676.0846,631.5574,177.64047
-802.74884,657.6212,268.91412
-1020.4391,807.2558,369.31567
-1049.2107,718.80286,320.16345
-1319.5524,716.4616,397.7352
-1490.1877,661.0359,516.8595
-1485.1523,582.025,527.45264
-1578.2906,523.88776,459.52902
-1727.3643,439.6703,371.91678
-1674.4003,318.6642,320.63892
-1340.5808,229.8586,257.6548
-988.9412,175.98917,204.14561
-800.281,253.54378,118.4656
-674.943,236.26553,39.154293
-600.9999,212.50902,7.715025
-513.93396,166.85715,-2.7259028
-505.0609,234.55156,13.372885
-511.98508,253.12282,31.927622
-518.67706,344.06885,67.64828
-574.4651,473.09045,229.13344
-797.79114,587.66907,454.63577
-910.0683,524.3311,564.8797
-1265.4829,372.0446,613.08374
-1772.9329,372.67093,687.4607
-1786.9946,341.4011,688.2068
-1381.1542,258.40787,629.9424
-970.2301,261.55908,408.37122
-824.03046,371.8604,291.4289
-735.53754,476.66016,233.24455
-666.88196,578.3471,167.46187
-599.0426,692.5059,129.69073
-603.416,717.6017,187.46356
-820.7081,740.2069,350.71695
-973.04785,746.8839,425.2484
-1068.3357,632.22754,365.97195
-1299.2354,579.96814,378.828
-1462.649,611.60645,464.7448
-1535.4327,556.65735,420.61948
-1600.4719,501.60666,330.30655
-1693.904,455.08987,307.1041
-1644.9064,336.5834,302.76624
-1290.3921,262.96634,237.53145
-1028.2457,255.97118,159.98157
-854.596,213.44177,112.24767
-728.8585,218.3807,47.552834
-629.5247,213.15376,36.034103
-482.25906,157.38402,21.976097
-385.74335,195.26434,12.037355
-358.58246,301.86447,21.474703
-388.6615,449.53885,97.77353
-503.2418,522.71277,215.89635
-804.70953,648.73047,408.60373
-1048.7424,552.41455,622.68115
-1401.5298,343.82318,629.2569
-1843.3444,311.93466,620.1247
-1742.8441,279.5509,635.248
-1260.6273,291.48447,561.6628
-849.2419,292.22525,301.3833
-777.3075,356.7541,235.18631
-755.98914,459.15482,206.04549
-739.3549,547.601,140.82674
-662.8771,625.3446,65.5737
-724.10815,735.138,167.1821
-828.7636,699.25793,314.5589
-988.6799,774.0605,410.98734
-1049.9823,721.1072,428.26614
-1248.3898,702.3398,449.74887
-1394.7831,717.6735,497.13837
-1531.9409,505.82397,404.87906
-1549.234,460.82675,385.88226
-1733.5065,443.5629,406.43237
-1627.6321,251.47429,358.75955
-1259.6442,269.6763,232.60336
-990.5585,219.76807,182.96791
-815.65063,252.2756,133.72594
-701.86914,257.9593,73.96821
-580.9507,208.88057,34.915726
-541.70306,192.71817,28.180614
-501.54593,187.27728,67.90318
-520.2219,228.8576,72.28416
-562.32,329.6632,180.42467
-723.8751,452.37204,304.7127
-980.1669,569.3,413.79755
-1083.8435,509.9735,527.7989
-1406.6145,428.39722,598.8045
-1735.015,326.70877,582.37915
-1585.6338,257.8914,516.5264
-1185.7523,188.047,385.7963
-960.1455,331.52463,271.96265
-863.5763,488.40936,230.61824
-774.8027,617.04987,169.73064
-673.67316,740.6679,150.77704
-649.53424,732.0383,208.41508
-772.3712,722.3405,310.7181
-997.0025,798.5715,458.54526
-1128.3887,793.4339,446.592
-1326.4678,730.3802,425.71893
-1433.1548,641.46423,438.8373
-1495.1948,555.8413,454.27255
-1581.4536,403.4981,399.96613
-1646.448,347.80933,306.0187
-1679.3037,280.68433,277.72125
-1393.187,222.90346,222.83443
-1074.4268,274.719,144.96107
-862.8164,268.9819,91.75727
-730.18164,261.40936,61.354458
-632.0284,213.54187,48.69961
-577.7532,173.59814,53.484974
-530.62286,152.4259,70.529564
-538.12897,194.77243,105.604004
-572.52264,258.79663,144.91515
-636.50433,385.5411,256.66205
-822.25024,517.2958,369.33905
-974.2575,557.8441,478.23288
-1114.1353,523.6099,586.18823
-1389.9086,442.66345,618.7293
-1659.8961,421.1249,609.1991
-1507.8568,423.85532,607.5046
-1039.3838,290.99002,402.87506
-808.29614,313.28638,274.92822
-705.8807,419.91986,221.19298
-629.13934,608.23334,163.95135
-591.14166,750.46436,157.58545
-653.2075,770.65247,217.25455
-821.05426,733.62134,376.93958
-1078.0522,696.1898,542.2698
-1190.1807,649.2813,543.027
-1326.1732,655.33777,427.21402
-1383.5382,683.5819,363.53717
-1378.0884,671.0153,407.67667
-1485.1296,537.19696,390.36905
-1537.6832,498.8805,310.1505
-1633.3412,421.9338,303.51266
-1400.2926,319.82874,259.13712
-1070.2761,292.28348,178.48033
-857.92065,244.66252,133.21402
-693.49506,234.9579,84.20781
-577.40857,219.52242,71.81872
-496.85867,205.6452,87.61321
-458.99808,214.90128,106.677055
-494.62137,259.16708,136.25543
-515.5672,327.39194,217.16502
-515.66077,446.4484,328.91473
-683.7906,530.1935,445.94492
-892.2019,606.97327,580.8868
-967.2351,572.2467,591.6438
-1276.0518,439.7888,551.9774
-1575.1976,374.75998,532.49066
-1519.4359,388.1952,578.5439
-1215.9031,378.15564,431.31982
-947.244,419.1599,247.00996
-809.82513,516.879,182.84029
-744.1008,665.0724,149.72638
-713.777,770.95197,151.40063
-689.4501,789.6933,160.58304
-792.74133,799.1469,310.34656
-987.4857,757.2731,396.40128
-1135.8872,687.0918,384.79294
-1341.7196,683.393,373.04984
-1483.1644,696.5511,436.64276
-1551.0055,517.8533,416.9257
-1499.6136,456.34238,344.07693
-1773.5144,455.57816,388.69656
-1651.1144,282.33514,307.15143
-1342.9756,300.29117,187.60982
-1106.6752,260.24963,212.63878
-889.472,303.36084,152.90752
-725.5111,241.31842,64.673065
-592.7485,119.99704,-17.274115
-495.70685,101.88716,-23.737558
-468.80078,196.35597,0.16310541
-401.21576,272.05875,2.5991359
-394.21286,467.34152,79.20641
-451.07516,570.3906,253.08601
-669.4402,763.6624,443.51706
-807.3456,788.4047,657.4773
-1004.2495,323.62766,582.4228
-1600.0022,221.61836,550.6453
-1747.3639,262.49472,633.3541
-1418.316,425.82773,598.5778
-940.91016,425.16318,355.5318
-834.47394,438.21072,322.36853
-781.0739,430.93027,281.80685
-753.34314,567.13885,196.6909
-685.7524,669.1734,129.88391
-699.80316,727.147,167.75536
-862.52313,683.5868,303.11508
-1005.37726,658.3006,353.56488
-1173.9602,665.1077,349.79752
-1413.0074,757.0017,419.23575
-1463.6326,681.46796,446.34982
-1468.0787,578.40436,380.03494
-1561.7137,516.9914,349.41354
-1631.6787,396.82437,328.86038
-1419.6218,318.20288,311.4955
-1158.3207,262.74402,273.47516
-898.63824,196.24352,157.26424
-755.7082,225.11061,78.04555
-648.7632,238.53105,45.194347
-588.3827,245.90169,40.48352
-507.63998,219.42642,8.517679
-502.85562,290.37357,13.364335
-508.07092,331.69684,-6.1712685
-535.0276,425.05545,64.68415
-685.0215,517.97986,209.80553
-887.7182,581.20953,496.5205
-1090.6556,498.53906,645.6177
-1550.3536,408.2665,727.28644
-1802.8451,242.66083,772.2737
-1493.695,30.970772,614.5855
-1056.4573,114.35497,462.84445
-851.22284,338.8657,345.4006
-748.6862,413.1166,234.04915
-678.4908,659.87915,147.79407
-566.78265,687.89514,130.16693
-560.4237,730.8428,113.0137
-696.449,689.6848,239.33069
-1049.6742,725.3217,373.85138
-1109.5565,686.79236,345.5496
-1255.1404,644.28894,339.23178
-1453.8146,686.611,438.59995
-1499.388,707.4225,488.6179
-1541.23,619.5702,481.08118
-1681.5878,524.57404,388.80716
-1783.7513,311.88925,291.60684
-1467.3881,231.86229,207.88722
-1048.3608,36.089527,262.60663
-802.20074,218.54321,169.31621
-683.9914,304.99838,47.027786
-586.82684,197.0525,-32.569336
-492.29532,186.71405,-8.890717
-428.33203,170.92384,-8.999912
-445.12524,247.4217,-11.292462
-449.20215,309.73212,-7.0403166
-513.62054,504.5443,130.73936
-697.97534,659.6467,319.25592
-902.7245,684.8315,548.16077
-1151.1205,560.27637,686.9177
-1654.4849,397.0842,711.675
-1919.4502,273.47284,664.6572
-1450.892,166.8041,551.95123
-1013.2135,200.66127,435.33212
-816.1241,279.16357,327.85892
-728.167,406.71912,213.81557
-648.53766,663.5247,146.3167
-526.6959,727.4055,109.46996
-512.31714,727.5841,118.83903
-685.95,642.7574,254.29706
-1002.1272,693.3022,395.35672
-1107.794,729.67444,372.02454
-1238.849,650.3578,360.00687
-1434.065,671.4977,422.4582
-1605.7817,700.6218,557.3072
-1594.6655,542.9602,500.5362
-1685.89,474.11993,404.29617
-1747.4899,247.95497,347.18005
-1480.2795,172.27187,326.70505
-984.4282,-48.03574,253.99586
-661.0158,156.0969,93.64838
-557.61945,319.7424,65.26444
-481.082,267.19354,20.608908
-432.25998,245.29567,18.068678
-393.83188,237.80263,30.11386
-374.41495,246.6101,7.946522
-389.43304,315.30865,-38.66143
-513.1763,474.5782,55.396496
-803.5685,636.39526,224.92256
-1011.0301,569.2688,401.5623
-1356.247,516.408,589.9906
-1877.7548,434.3444,753.76965
-1898.1753,279.61734,777.7305
-1281.1183,55.88569,651.0178
-937.2434,-1.470852,466.6932
-776.21564,267.35065,299.8713
-631.5229,460.72714,238.96536
-538.2759,702.8102,179.69272
-424.24603,776.9895,173.45172
-444.14377,711.96014,259.12772
-628.6769,642.9635,353.18854
-1023.52435,771.0926,409.46805
-1240.6412,793.1633,369.46396
-1277.4187,482.29645,306.94193
-1409.0581,549.4464,374.8936
-1641.4205,737.2261,556.32623
-1648.3071,690.8657,536.3408
-1611.7549,535.7544,369.6427
-1709.465,541.7079,221.60715
-1450.6768,256.16272,124.51701
-1072.6389,153.04854,175.74495
-836.1517,290.9182,81.46441
-665.7055,190.47255,16.733734
-546.94476,238.17131,-65.245445
-460.70697,184.55125,-59.740593
-386.8394,192.60094,-50.89174
-391.09558,198.71161,-37.974743
-430.69296,287.6756,-63.798203
-511.44998,416.44446,2.9373152
-730.0575,543.4107,187.60098
-1054.6833,599.10724,434.2227
-1298.2023,613.76465,658.46576
-1828.8784,606.48553,901.32324
-2000.1868,327.2937,733.7826
-1481.4009,-92.49969,659.1527
-1041.5651,66.27198,577.97614
-754.6889,108.239235,396.57944
-628.6918,343.35495,283.03818
-594.7181,793.2506,275.6382
-430.57397,790.6009,192.48926
-358.3405,731.39966,218.823
-496.56638,610.3447,345.247
-928.8194,623.0984,451.9015
-1211.0604,596.91016,437.073
-1297.386,390.78802,334.7582
-1422.8972,331.3743,347.04614
-1547.2705,574.2928,490.74966
-1613.4886,746.7447,543.8711
-1500.1075,614.6054,325.2785
-1690.0948,504.84473,240.1582
-1612.544,251.77768,157.6698
-1108.4724,144.37447,115.17669
-818.8903,198.77611,66.53873
-629.766,235.25887,52.771866
-523.63995,291.58475,8.726152
-464.20386,312.10974,-4.876854
-434.14142,277.08197,-14.306275
-405.39484,242.51033,-21.545614
-469.06824,284.45752,-33.78069
-579.85736,380.17874,21.719704
-713.2293,456.98395,183.6273
-1002.0742,502.22952,475.71582
-1246.594,393.54648,662.4158
-1343.7627,282.7049,844.09174
-1582.2633,114.32077,904.99023
-1854.9303,372.0734,873.0471
-1363.1814,501.53015,694.0213
-846.9529,352.2745,402.67957
-690.8509,257.22977,381.0922
-604.6326,259.8158,233.96875
-577.2766,571.7269,144.16054
-525.61725,782.0208,82.32374
-525.24835,778.0181,160.78282
-636.0283,685.02655,251.20775
-801.96295,697.5973,372.53738
-981.333,592.41144,362.34967
-1057.603,510.3018,278.62247
-1235.312,570.4142,305.46234
-1453.933,610.5418,442.18774
-1666.4484,700.5428,565.8601
-1665.1489,513.24084,480.73392
-1693.8077,358.1405,409.95764
-1627.3298,247.86655,350.20593
-1212.5332,175.33398,285.58255
-896.57446,274.20804,231.71318
-636.045,232.3285,143.36897
-510.1995,279.97565,64.71143
-394.4056,214.2995,-15.895458
-327.23657,191.41098,-14.932631
-291.47308,233.57114,-22.490627
-311.18195,309.74915,-53.524075
-391.21658,379.1509,-82.82858
-602.98676,604.0532,61.288208
-790.73676,664.9009,322.88052
-1002.0717,456.97314,435.93842
-1368.828,393.00348,578.0561
-1869.9104,458.99237,948.29315
-1900.3855,619.9943,847.5331
-1311.5702,386.17343,464.76624
-958.71,-52.9099,439.66708
-741.6476,-20.497967,380.71518
-613.79083,260.14914,240.54988
-551.4888,636.1433,129.52483
-433.29532,910.67804,104.27016
-346.9729,792.7542,144.28789
-499.647,648.21857,331.7489
-807.641,509.88663,429.89127
-1181.4958,607.9995,443.5329
-1329.7196,579.0769,426.61295
-1415.4072,405.63333,379.00598
-1607.3065,444.8077,589.3964
-1611.6272,608.49945,668.57983
-1484.2172,626.068,492.126
-1622.4192,704.14294,270.2486
-1415.3529,203.31653,236.57144
-1025.3536,254.32571,305.11655
-773.38007,382.53738,149.37569
-597.0093,195.52638,55.985577
-536.58887,291.89136,-7.11807
-485.64224,191.31406,-13.684332
-399.58963,142.25911,-24.662142
-347.17355,129.14188,2.302042
-370.132,197.69635,-24.143332
-514.50446,315.17618,-0.64312345
-652.77277,489.8819,61.491077
-978.2466,634.763,374.14655
-1376.7845,633.7646,568.9366
-1709.8639,615.9018,805.66376
-1839.1227,516.38464,913.2923
-1595.069,-8.640058,569.82275
-1300.7955,-190.65619,504.94473
-961.9516,87.9565,406.77582
-770.185,363.0692,294.78528
-620.2545,667.01465,243.84271
-459.41382,736.6403,172.6161
-335.5322,741.0514,160.31706
-352.12885,594.72614,255.6324
-546.90247,572.6701,379.62997
-905.9357,695.3576,422.6549
-1164.508,815.1518,455.21765
-1320.1967,506.03955,427.77017
-1461.6168,510.5282,539.4244
-1774.4128,799.111,747.3827
-1893.3114,682.16974,693.6878
-1836.9828,455.38956,512.985
-1866.2394,397.5468,275.20255
-1559.6233,73.94421,222.35472
-1124.0879,195.88051,212.9153
-861.6321,287.40994,78.914085
-674.47955,200.55296,1.4030234
-579.48956,246.28949,-56.45802
-490.0326,153.69011,-41.869858
-384.04065,123.38832,-38.242546
-310.66324,88.142235,-29.74549
-296.08054,128.38196,-45.80145
-302.08417,204.3221,-26.306501
-404.94315,448.84665,87.93885
-807.0584,691.6867,410.01685
-1137.657,724.54236,632.7835
-1637.7484,515.26556,821.60016
-2526.1191,492.5625,1165.4022
-2097.718,98.79444,922.4179
-1366.2003,-211.09651,448.33902
-974.54767,163.54332,384.66052
-760.0258,239.3654,112.19554
-779.3786,848.0405,78.62914
-542.3148,938.1982,52.659485
-288.7112,729.0567,-41.21643
-217.46896,550.4526,57.38931
-373.46774,447.29846,197.88792
-804.9874,655.75183,353.6551
-1151.628,940.27203,295.38705
-1212.6741,713.5169,283.9311
-1363.9886,536.27734,429.33606
-1599.608,521.21405,693.6498
-1816.8799,836.7217,780.9664
-1803.5109,787.005,551.78534
-2210.7786,693.5788,241.72157
-2023.5889,-147.98564,184.43788
-1169.83,-365.11023,278.05835
-798.85486,250.53368,43.386814
-554.6534,210.17606,-31.845602
-486.80524,368.99896,-81.28107
-481.239,326.49005,-62.14124
-427.83453,216.54863,-48.218884
-332.97397,45.37005,-29.586851
-286.94232,103.81208,-71.182014
-329.1893,274.7749,-25.232655
-487.35278,572.2064,145.08778
-771.1595,701.9758,445.0377
-1016.3053,639.006,422.49155
-1599.3976,424.9507,640.81714
-2268.4622,388.58502,1044.2616
-2051.8127,5.52996,1004.85565
-1433.3131,-292.03946,698.91235
-1029.0406,545.1027,322.33032
-793.5882,485.3632,241.30229
-690.8833,589.6217,176.35777
-518.7646,589.3013,165.2792
-391.92566,721.30597,81.18159
-313.8423,730.9318,159.47362
-485.0105,561.5241,253.5073
-769.0814,599.70746,286.55872
-1062.1675,683.31195,295.405
-1044.9655,530.46106,314.11307
-1245.2744,536.0217,310.71918
-1565.9958,740.7495,459.12772
-1712.6948,681.348,514.9332
-1686.9664,590.4834,403.84232
-1835.1577,426.38214,257.32806
-1882.7126,217.29349,247.3461
-1344.9014,85.12575,213.63977
-877.38574,106.77251,190.88379
-695.89374,248.87485,129.48073
-596.33154,360.66052,77.136955
-520.9258,281.47684,15.370963
-426.9891,193.3096,-10.001789
-387.16412,172.53201,-15.0899
-383.55646,228.58467,12.722549
-405.47668,317.52756,66.74203
-538.02515,527.52106,267.9658
-761.9362,720.6375,426.93024
-901.89325,714.56433,637.19366
-991.2471,401.40323,827.4479
-1509.8112,232.89317,797.27826
-1875.9108,296.72653,824.655
-1357.8331,433.2157,703.2381
-926.0582,323.7145,455.27414
-805.8204,353.92664,435.09955
-713.51715,381.58282,348.76572
-642.4406,673.3398,276.73355
-467.6101,898.35803,238.54189
-416.85294,858.2162,190.40959
-561.78326,741.4217,211.76096
-737.8101,765.0273,182.8636
-956.7462,792.6474,64.57555
-1584.1755,942.60156,-64.64181
-1924.822,861.1347,-98.02315
-1740.5596,612.3248,-227.90279
-1737.7148,609.3083,-281.20175
-1439.631,620.9585,-246.26285
-1166.3971,680.38025,-207.7784
-1092.0876,539.3351,-254.62384
-899.7688,410.32333,-202.1334
-812.7908,456.41095,-211.49524
-807.1714,530.0249,-211.5766
-737.46893,553.1372,-193.00865
-752.8779,509.64133,-184.05754
-757.62036,480.72382,-144.60501
-731.35406,485.56738,-77.1384
-733.7092,548.33777,11.106448
-753.7828,635.7778,216.50366
-766.589,766.3485,529.9815
-756.04065,638.6787,771.956
-905.15076,262.16818,654.6275
-1264.5139,-46.41829,722.61066
-1272.9642,-152.82193,726.92773
-1119.6299,158.13884,637.8135
-978.69385,485.67993,680.5566
-922.0142,667.3999,618.2163
-777.74945,599.0822,449.11612
-756.4712,597.26666,338.92914
-699.04205,527.96857,282.37518
-664.0315,485.07776,226.13437
-612.0714,440.6913,176.64162
-758.7704,446.47357,188.53842
-942.1876,488.84103,209.90517
-1042.2656,457.46286,176.18614
-1180.0952,536.4568,188.04604
-1387.8008,747.92596,289.38022
-1457.5898,907.24347,352.18988
-1463.6478,805.57513,206.61356
-1590.8445,495.27805,13.775468
-1708.6614,252.27638,-1.5887184
-1396.5358,78.707214,157.62407
-1003.47534,162.60258,178.20769
-809.10565,371.3226,110.45745
-681.7243,432.82376,22.887049
-590.70374,384.47266,-33.56859
-533.3621,270.91782,-52.107365
-436.5402,247.5923,-19.321623
-456.65912,320.0231,25.3952
-513.27234,383.5479,62.925423
-621.3721,466.88464,212.51195
-848.5905,572.52673,397.8642
-1004.81775,459.56528,544.62524
-1181.247,406.04654,685.18176
-1474.0544,364.80954,795.84534
-1606.7401,207.3755,570.2954
-1477.9962,154.46504,472.98434
-1122.9724,211.72812,461.7783
-919.12036,385.16003,340.92227
-798.7446,476.80026,220.90646
-727.24805,636.3825,181.31789
-608.6874,628.37726,138.04716
-529.8114,606.791,109.80767
-576.24023,598.7551,189.56297
-837.52216,686.4297,297.0866
-1070.2306,768.8859,366.03976
-1171.5498,665.5723,342.4682
-1252.2052,567.8011,390.14288
-1451.0815,639.1484,517.2142
-1522.0338,542.2353,555.37463
-1509.0134,454.53195,422.5115
-1567.2511,391.82626,327.43896
-1559.7227,304.6754,253.6052
-1275.7845,247.34996,257.79895
-960.8723,213.96475,190.46425
-771.8692,288.22934,118.99546
-612.41815,285.7588,27.638977
-534.7053,287.27365,-8.885802
-454.86182,235.47585,-22.236347
-399.27966,208.0234,-4.8742566
-446.2842,290.93378,-10.244556
-493.08554,364.1076,50.552383
-624.26434,487.8148,207.95305
-802.048,514.352,365.17157
-1078.8093,397.59814,449.01666
-1437.9287,351.1549,628.8796
-1814.393,375.63113,810.5109
-1813.36,269.12598,679.7309
-1380.0306,81.55565,473.38187
-982.8216,88.92445,441.5847
-796.92126,197.84276,273.55728
-668.24225,463.53638,148.8622
-569.9695,624.106,65.92657
-454.25522,717.4865,77.903206
-441.55728,636.7519,134.96034
-541.23346,551.58875,206.3582
-881.014,645.8098,333.83597
-1148.4133,707.83856,437.0901
-1231.257,625.7047,417.6492
-1350.5453,605.9804,480.37607
-1433.3124,587.79913,587.01404
-1462.5093,590.22125,562.91187
-1544.9015,512.8959,441.85947
-1627.6161,337.0882,352.10858
-1543.6726,262.9103,320.3903
-1197.7754,178.63617,284.16428
-885.6583,218.42284,175.12816
-742.336,279.56448,83.38457
-623.3097,259.77933,47.95107
-511.33502,200.60103,16.465485
-390.53833,147.93372,20.652897
-335.01736,182.75407,24.588957
-350.76993,230.74345,44.629013
-397.64322,334.83917,59.113297
-570.58624,493.3499,235.81157
-799.05176,598.716,439.17444
-1133.089,448.43005,488.23965
-1574.2802,380.76355,658.50775
-1942.3467,346.06366,849.2683
-1802.8069,221.70549,675.8365
-1325.5107,133.72865,484.92804
-984.0612,191.63719,377.30795
-785.68835,320.34882,254.76663
-660.8742,547.9691,151.24794
-519.3529,664.80505,57.912148
-410.9377,706.37195,62.602856
-407.72345,557.9167,139.02228
-501.22363,511.57645,222.52754
-841.47644,660.9155,334.6857
-1157.3108,800.9174,438.5502
-1245.2253,658.5417,454.95102
-1439.7792,475.70065,501.3135
-1518.34,435.588,617.5982
-1485.3805,538.9591,550.43915
-1518.6604,535.06805,467.20886
-1663.372,503.23636,389.364
-1592.5842,320.03235,316.62985
-1150.0756,162.45943,302.80695
-873.14685,336.587,187.45926
-648.5067,274.1656,72.0223
-538.29755,293.56073,6.626207
-396.82498,174.49713,-17.967838
-314.93204,148.4196,-18.672285
-266.60922,175.73857,14.101742
-279.70566,235.81425,-8.957672
-365.45798,347.35263,7.448337
-575.5785,562.7807,155.96513
-805.9651,542.6152,351.53033
-1210.184,465.1205,459.2156
-1789.6014,508.48834,728.20325
-2147.694,510.1073,958.9691
-1730.7175,143.9452,642.87585
-1182.6578,-74.159996,484.81345
-901.0364,2.1354527,391.17096
-740.04407,212.68529,171.05911
-656.60693,627.11755,76.32143
-520.3909,774.90283,6.5114446
-369.198,727.9211,21.680342
-369.59833,595.8185,100.99077
-559.6823,535.47064,255.35057
-1050.364,695.31915,411.96893
-1205.978,763.40204,384.12097
-1311.1823,665.6758,406.2623
-1421.9092,530.00824,532.18884
-1493.0079,579.34357,604.0726
-1541.4137,592.9089,606.19855
-1530.737,355.58826,501.54346
-1490.407,250.84029,396.68408
-1306.7152,224.58496,338.25613
-992.89996,72.32045,295.34717
-735.66925,296.07306,183.62547
-606.9519,289.33417,84.46281
-518.1036,247.60068,35.36896
-467.36017,232.70801,57.306
-387.93866,206.10638,67.58943
-362.60468,230.86505,73.357796
-404.92453,277.99582,92.033936
-517.25476,405.96902,176.75912
-736.7371,485.2539,327.8521
-1028.6661,465.17746,365.7476
-1440.5421,408.0121,460.17056
-1782.358,484.09943,685.2675
-1879.89,425.76407,698.5185
-1556.8395,190.57721,582.6114
-1170.645,146.43213,415.79248
-890.9054,235.8368,242.92126
-739.09503,411.75305,150.13669
-636.09125,625.1037,71.69845
-518.2996,678.05896,51.935646
-441.38873,644.24603,96.57872
-442.8261,528.81433,206.38042
-617.8442,571.3572,328.62958
-894.1866,700.46216,368.26978
-1159.1394,801.42456,437.59827
-1446.6436,722.9553,469.8718
-1615.3115,719.88153,558.3967
-1514.9309,477.41965,522.69855
-1411.5576,276.78345,416.45984
-1504.8517,221.24858,402.40308
-1500.8888,124.19604,407.08273
-1162.1294,239.66711,367.4837
-992.5318,309.54254,335.06345
-812.5152,250.47209,243.01703
-670.26654,208.25331,145.92633
-525.8388,109.325905,96.20136
-439.66696,162.29506,150.95149
-366.79315,199.5606,185.9533
-347.1725,275.26236,183.32204
-397.5766,395.5271,205.98688
-514.5072,505.34567,316.55475
-751.7072,646.3102,408.78342
-973.7988,659.1533,396.56604
-1313.2535,623.0026,476.83884
-1589.0941,550.0631,589.03467
-1645.953,420.8969,511.18033
-1468.9459,365.1693,466.49945
-1073.141,274.18002,319.04166
-787.7793,539.05426,143.8074
-586.7462,490.21896,84.12691
-543.95996,471.69974,44.187107
-552.5033,571.21313,81.8565
-590.51965,588.37085,126.99113
-683.6062,572.61975,191.89897
-885.9019,558.8684,360.31644
-1019.1446,621.23285,460.17935
-1153.4639,632.3697,516.6789
-1274.3842,631.2036,625.6053
-1245.4579,437.85107,662.82275
-1142.4432,329.54736,631.2422
-1111.6274,408.44595,608.0431
-1188.3308,336.05453,606.06146
-964.2248,200.18184,513.7062
-800.8264,162.96164,458.16043
-655.8734,140.9818,353.43802
-554.1395,199.82982,269.4448
-541.9443,238.90121,264.51898
-530.53046,235.93385,277.2624
-580.0513,228.40688,297.6479
-656.2646,229.70091,300.4171
-789.9817,212.25328,323.23865
-814.4686,215.25157,359.7656
-964.21204,264.8454,350.8259
-1187.9083,340.57236,371.39545
-1253.4515,406.42667,483.78513
-1459.8394,503.5329,608.618
-1464.4894,357.96158,633.07837
-1141.6451,88.46821,466.53467
-803.951,64.64606,328.33945
-598.956,187.23253,218.37277
-488.3703,401.33127,201.6142
-435.49466,550.79816,172.40956
-427.1736,636.0135,217.15529
-550.4869,628.8627,351.02524
-722.62244,535.9203,505.4583
-1049.5781,551.9349,613.38324
-1255.2595,466.52075,643.7752
-1472.8442,358.1877,556.71704
-1587.4097,374.28824,640.35333
-1467.7266,210.64235,564.6192
-1328.7516,183.28355,367.54175
-1382.7091,236.47926,280.2607
-1370.2378,254.06398,266.88065
-1093.4843,327.9277,270.35452
-885.4095,343.95328,252.6231
-721.03265,326.45773,181.88824
-653.44476,278.7751,137.30872
-578.01447,220.26656,171.85928
-493.4303,135.45642,164.8331
-355.4479,126.89661,145.29175
-317.20203,244.69487,137.53783
-268.78802,445.5666,177.09422
-378.4935,657.30725,318.81238
-605.57513,741.6283,357.31665
-821.959,477.9479,308.7064
-1334.5634,382.93887,511.3767
-1968.1287,471.05713,797.1289
-1877.0791,400.48834,633.41223
-1273.9312,205.05081,472.02997
-931.6387,104.38867,335.68427
-754.9406,220.59038,225.07971
-660.9778,477.40906,164.72278
-552.808,663.31506,99.785576
-469.01123,715.05133,125.460014
-410.08798,626.31976,168.10677
-578.42957,586.52966,258.42667
-997.77435,710.69037,389.31024
-1137.5776,654.2167,328.54367
-1276.0293,619.0668,329.3924
-1493.6754,655.18677,430.2289
-1529.8643,609.73444,529.6015
-1548.6737,479.72104,498.6723
-1517.4276,430.34985,386.3309
-1544.9238,401.9771,258.10684
-1385.9619,344.59308,176.81873
-1006.27014,197.90146,144.5727
-724.10645,199.80524,92.62464
-589.34106,242.51234,41.69157
-492.31174,229.20316,-10.311782
-394.03156,219.30977,-37.01028
-323.68475,212.69669,-30.814903
-306.88943,242.41779,-35.408073
-336.27063,328.22662,-17.944754
-517.0005,496.85327,158.77927
-816.1005,531.1279,412.82727
-1250.7943,456.66107,501.99332
-1834.2883,513.55475,800.5427
-2115.9255,382.2,967.3062
-1732.2515,41.08984,637.70825
-1190.8312,-47.85461,451.8834
-890.72864,170.0087,311.83893
-748.1038,364.14606,206.48834
-623.236,618.011,89.38109
-500.10437,714.2248,50.91304
-416.2943,652.46295,19.184723
-479.78848,536.518,153.36456
-614.12054,465.7434,236.7245
-867.6801,598.4125,327.41663
-1077.3665,717.98834,423.98013
-1148.8394,588.7902,377.172
-1373.9927,577.0969,368.48505
-1517.3151,598.14874,473.11462
-1472.867,511.20364,464.4994
-1455.6912,525.2771,411.2882
-1632.6578,436.70175,364.92645
-1573.5099,362.60553,296.74448
-1240.3547,327.1039,265.81927
-933.70465,251.1659,206.499
-774.6325,321.77362,118.62584
-624.55676,259.04404,59.597977
-523.67255,226.75578,21.823761
-436.57684,176.40425,0.856796
-418.98926,195.23271,24.935236
-451.57538,264.60925,38.803238
-470.98514,317.37555,99.57874
-593.896,431.1089,235.49803
-887.8375,498.31677,314.16104
-1183.3618,392.03772,365.71167
-1675.032,451.99893,573.8193
-1954.949,456.1609,678.48206
-1808.0958,328.84406,576.63226
-1365.9911,150.34517,470.3209
-1085.5923,252.31093,321.0352
-930.8527,451.313,228.90866
-810.2463,658.15247,191.90205
-671.2997,699.2226,117.02407
-535.3515,775.32635,73.41666
-597.8654,824.5987,230.07173
-816.44354,800.9109,327.83594
-1054.1626,817.0469,364.77774
-1233.2524,549.54565,332.18518
-1440.0778,457.04852,397.1004
-1734.2456,555.0871,631.8415
-1883.462,468.1059,623.2439
-1950.6033,375.49094,395.78204
-2032.0482,228.1444,262.30106
-1684.0524,135.12549,235.7108
-1201.4431,128.99359,191.09514
-912.7074,294.62088,76.019264
-726.7788,279.54672,-9.919916
-643.7014,225.48538,-47.325172
-581.8316,151.53543,-36.50963
-488.35696,100.626305,-41.326725
-407.44012,132.12135,-54.73073
-390.7988,169.02635,-42.219276
-452.98352,307.7394,10.727698
-562.51416,453.44623,191.2693
-936.42694,575.5823,447.1656
-1296.9232,548.8283,551.82153
-1753.3721,460.89523,832.5226
-2155.4526,365.93204,949.0913
-1793.9094,-67.980835,837.4811
-1390.4471,-43.53041,569.09033
-1028.7972,236.8931,235.97423
-880.00574,406.76334,155.29301
-782.5745,738.1429,76.61855
-595.3288,715.9457,-2.2191055
-451.75742,736.2134,-47.604385
-402.0025,537.57355,68.5269
-572.21826,516.89874,131.3318
-887.48364,749.2739,242.45187
-1072.0881,879.7308,251.97897
-1235.9325,735.2312,295.7179
-1487.8525,777.81976,471.27548
-1620.1471,544.38947,656.7883
-1655.6752,528.6052,544.2417
-1710.3768,567.7339,496.24252
-2108.8542,652.46533,269.00925
-1786.3011,-172.66476,142.04393
-1047.4218,-288.25568,341.53085
-813.4694,325.48337,153.33774
-627.7575,168.62837,-12.423349
-520.01556,255.44495,-86.20728
-464.0118,261.85782,-79.35326
-421.91507,187.3338,-68.90393
-397.88327,131.75491,-46.58412
-413.90314,214.45825,-40.75969
-458.9133,381.40186,65.856316
-711.8928,599.5877,268.94598
-1060.4661,663.0439,423.59552
-1421.293,616.16724,576.5029
-1837.5836,486.30823,750.4001
-1973.28,89.079475,656.5092
-1604.2869,-77.75874,603.3809
-1130.5963,17.375553,485.48895
-909.91766,180.81209,277.82016
-757.8072,526.34436,174.71762
-629.0378,746.25226,97.51397
-474.30597,790.458,84.602844
-416.03186,724.6541,132.71175
-544.4256,673.21423,257.0615
-898.8852,753.4034,393.5409
-1140.3904,794.5349,389.5553
-1279.2378,668.4062,382.33374
-1480.2129,576.4971,456.17783
-1740.8022,773.50977,684.29346
-1960.8888,629.37463,579.1711
-2172.093,432.04892,336.04095
-2159.0593,94.46896,124.268974
-1771.8899,86.86742,91.56826
-1127.4324,39.02095,187.31065
-768.6093,160.86115,64.23887
-582.7988,194.05898,-35.353558
-555.8799,132.84839,-78.15614
-466.84354,15.487054,-88.79808
-354.89066,60.285088,-68.76248
-247.25293,121.37834,-57.83306
-219.1427,299.83194,-21.691372
-280.84695,519.2976,111.62951
-712.3209,989.25964,428.28546
-896.0279,771.96136,559.6632
-1408.5674,436.61212,599.99347
-2007.7067,327.61038,665.6465
-2197.4712,344.25348,670.5904
-1683.1156,364.35712,675.77826
-1103.3733,365.74945,322.4812
-866.1425,629.1887,206.45839
-686.98596,704.44214,135.3604
-544.5515,707.78516,59.694927
-490.1194,665.84705,8.423831
-485.79715,580.13544,3.340407
-793.88464,680.2015,106.36392
-1019.43915,810.74335,171.95786
-1230.466,766.5503,172.6199
-1494.0477,808.0221,382.8374
-1771.9258,859.3082,572.4147
-1769.828,607.18604,397.2629
-2127.4714,696.5965,336.3112
-2305.3918,339.06818,361.98154
-1735.4072,112.65446,267.77454
-1232.224,45.784008,254.37737
-903.9418,206.17406,157.60474
-778.5177,297.55896,49.75688
-597.26746,168.44772,-18.54738
-499.40067,111.40851,-25.33594
-393.48834,53.575962,-65.462364
-350.36804,172.40689,-76.848274
-303.89944,339.97507,-8.713749
-346.39255,547.26636,215.47122
-597.7419,823.98944,408.00848
-917.3533,1066.1587,569.25934
-1176.1974,465.91156,498.47208
-1800.5848,324.76758,522.2202
-1966.4666,464.26596,520.92206
-1857.8383,492.34503,688.86755
-1319.8204,560.172,390.34146
-947.4259,664.2083,90.93179
-844.4817,577.59534,111.91462
-759.0193,746.42334,11.361062
-699.97455,758.9581,-108.882065
-702.7263,967.6369,-66.841705
-799.38086,809.4864,81.91066
-1063.1726,864.12256,189.1604
-1166.4464,746.4659,179.04277
-1511.1477,1027.5929,360.12866
-1708.1879,898.05585,477.01367
-1910.8805,745.42957,341.64026
-2452.0947,550.5499,276.59344
-2243.1848,100.296326,223.52962
-1556.4242,85.93875,267.43375
-1029.0947,35.860577,204.15204
-805.2268,306.06573,52.905556
-719.02167,235.63644,-65.81658
-611.45624,127.04187,-81.27521
-546.6043,67.29688,-66.43298
-457.73373,77.70139,-62.193733
-435.74683,178.69456,-76.92322
-414.03723,431.086,13.539593
-495.86966,621.9322,247.01157
-830.3245,919.3302,499.31573
-985.77496,821.41876,656.0982
-1391.7136,431.3912,542.1986
-1952.0371,480.01245,442.6992
-1963.1345,404.6355,725.3589
-1465.8313,281.68127,632.00464
-975.94104,509.51065,210.69444
-838.9639,584.8004,147.85753
-801.3579,638.08777,123.969826
-774.9384,677.481,-17.191835
-724.84985,804.57074,-1.7237157
-785.75867,800.19727,119.274864
-991.4841,736.1986,234.46785
-1056.0409,793.90546,261.75156
-1182.139,682.52234,299.61954
-1353.9537,876.55634,464.85547
-1477.2302,824.82806,541.4955
-1703.5852,677.33154,413.97656
-1885.6019,501.6243,345.91208
-2021.3014,336.99805,319.7826
-1597.9073,140.50005,242.35127
-1045.7798,-114.162476,192.18066
-793.2481,142.47412,95.086205
-697.4219,212.92719,2.6403828
-569.84595,105.56422,-13.669212
-580.4822,181.52193,-34.134388
-516.95184,158.1103,-101.308876
-489.0104,300.19025,-122.3243
-444.06613,463.02667,25.591713
-682.63104,687.0359,281.2924
-976.32837,848.7863,519.55566
-1181.8309,722.5097,701.91034
-1595.1948,355.15842,594.15027
-1891.2621,181.51625,505.96567
-1658.112,171.63661,701.0553
-1180.7678,484.67468,458.52765
-844.44147,456.891,255.93443
-804.1561,398.3901,199.1744
-757.60175,570.7916,124.82046
-735.969,695.7423,31.233715
-663.2456,823.4729,-48.005634
-828.3741,913.59784,176.44342
-1069.3939,841.2073,331.3358
-1168.1755,806.5032,274.9618
-1469.0614,824.4031,432.04144
-1521.4595,744.69214,453.57437
-1537.0631,661.97363,366.62076
-1905.791,673.6887,397.903
-2021.5883,252.82138,386.9477
-1538.5543,133.02873,255.49667
-1091.9048,67.67464,190.20303
-835.79047,130.11118,177.67865
-745.28,299.83524,86.94708
-590.11896,145.977,12.118934
-475.72043,118.912636,-5.7704644
-435.72684,128.9881,-13.461072
-473.9814,290.34964,-5.5612893
-554.06287,402.81177,43.21153
-654.38495,459.06537,85.34153
-969.9392,596.8056,222.95848
-1159.9045,563.9994,352.71524
-1499.8251,622.703,715.4646
-1811.709,506.0269,766.8478
-1719.4786,297.37173,591.9019
-1249.1067,183.181,627.31445
-885.4064,224.91998,392.04138
-724.8811,345.42545,270.88177
-685.48975,452.0012,222.49178
-646.0921,621.12634,159.92662
-649.94867,755.8376,81.643456
-740.99493,915.72156,164.60085
-1016.31177,887.7081,337.9626
-1181.5995,752.06384,349.634
-1273.4702,651.88696,375.38342
-1490.1509,813.8485,503.95438
-1484.728,778.254,456.37845
-1652.1085,762.2516,382.66888
-1997.3976,491.20773,333.41135
-1671.0721,165.11581,271.80527
-1330.8933,222.03914,261.78366
-1020.7613,86.2536,247.70758
-819.37537,218.82198,111.498505
-732.69434,267.6427,1.9299955
-650.3797,192.02054,-24.208427
-591.8509,159.89465,-23.736193
-550.483,145.2098,-7.7841344
-515.47327,269.5791,-22.973469
-527.34406,482.72025,53.092068
-602.8467,542.96783,223.85747
-911.84753,655.56433,459.70746
-1177.3843,636.1001,684.5792
-1570.3514,377.51804,654.0345
-1898.0786,211.65788,564.50146
-1658.619,144.36708,676.2178
-1190.9752,186.45726,566.4833
-860.4761,396.70105,255.17838
-748.3258,476.22595,204.14345
-683.90295,632.0339,121.07272
-636.5296,719.7371,117.76362
-639.2376,734.1776,88.274
-794.4337,806.28436,185.90683
-1079.3984,881.18787,370.1492
-1107.9199,655.9207,333.1649
-1311.8124,751.47894,431.2574
-1489.4827,756.28516,552.6354
-1517.7968,700.82654,499.36072
-1765.331,621.4379,381.36414
-1928.3212,416.00406,336.75775
-1795.9067,215.21576,323.45667
-1353.2495,190.86086,259.28232
-940.10614,87.78225,161.79396
-783.70404,211.25458,93.26804
-682.77515,214.15367,23.722761
-595.3177,130.78351,-2.3872159
-531.90027,84.95893,-13.466794
-495.99265,120.60828,-34.963123
-516.2053,209.1507,-83.56204
-590.17896,423.23605,-39.70732
-696.36816,552.20404,139.88704
-934.0956,752.149,456.00995
-1133.1752,737.2384,782.0491
-1546.4429,532.4508,815.3133
-1855.842,106.44118,626.1456
-1765.8865,-80.86846,635.03864
-1178.5176,351.10693,420.04782
-845.20654,708.9356,225.696
-698.119,601.58484,233.01634
-645.01605,566.831,132.13208
-543.78217,630.39453,15.776904
-564.0965,723.69617,35.989883
-698.6464,657.75415,181.82654
-989.6364,747.24396,268.11282
-1073.2452,728.48065,272.28113
-1345.2926,722.6105,408.71463
-1495.1453,747.6515,518.16425
-1540.4023,697.5626,537.43005
-1644.2765,595.14496,446.86917
-1880.4349,428.2153,391.25958
-1649.232,206.61401,373.73196
-1228.8372,174.31444,262.53244
-887.86926,79.45347,186.32327
-736.4747,170.44968,136.43549
-665.8017,200.74907,80.6405
-556.47473,123.745636,37.176964
-493.2838,133.5108,21.529158
-488.5006,174.72318,33.35899
-499.10858,271.36115,27.863844
-512.4069,374.86386,143.85655
-642.34174,526.74384,290.4157
-959.11554,622.511,426.72748
-1253.5298,557.0666,614.3319
-1732.8666,410.23825,706.4877
-1953.5848,258.1925,640.83997
-1597.0735,180.93744,678.16064
-1077.2799,289.04883,337.84293
-819.09515,375.4449,182.42719
-764.261,405.8973,172.56418
-745.5324,592.4903,96.87476
-692.63654,657.3618,45.385197
-714.39746,712.4616,-0.5084377
-758.164,674.2694,142.23378
-997.0998,739.0559,313.55045
-1040.6188,779.20306,314.38303
-1255.6968,984.04803,443.69687
-1368.9982,825.11334,552.95
-1424.2249,540.42926,478.98535
-1531.1482,581.3825,450.10352
-1906.0059,502.05194,460.8386
-1783.7932,181.02628,402.97238
-1325.6573,216.48508,275.8529
-1110.9257,176.43314,255.67429
-860.9585,200.89899,137.01273
-744.0866,306.5642,61.485382
-622.1516,218.07558,12.291573
-597.0506,155.2249,51.67552
-535.3856,134.52843,80.501785
-491.81448,164.82584,97.93176
-489.19797,315.7175,176.55273
-585.6123,461.3646,355.99707
-829.36487,581.35645,447.50876
-959.2423,641.74445,537.8649
-1154.6154,423.6436,516.9292
-1623.2312,333.2562,490.26416
-1689.2079,429.20096,592.95026
-1406.589,417.1841,485.22482
-1037.1716,527.08887,175.9912
-854.89777,630.5171,116.27359
-795.45935,603.5108,128.61618
-834.45605,682.6825,89.963455
-851.4876,804.86633,95.10155
-933.4843,751.5444,209.63837
-1059.4305,699.01117,332.32697
-1028.8981,630.6688,346.6382
-1205.1123,868.1028,522.7378
-1427.7456,954.81555,693.8294
-1582.101,504.53107,547.41565
-1819.8918,278.52225,413.10522
-1880.835,34.291985,302.74448
-1502.203,24.711138,323.88617
-1156.4524,206.17686,312.19946
-876.19885,290.37766,197.21068
-736.0126,335.68918,57.594
-674.0227,275.99622,-20.822453
-595.2369,143.35677,-31.07968
-536.9598,136.9816,33.916874
-503.26108,152.35591,31.363031
-522.4365,253.5848,72.3399
-611.5549,438.1433,218.82188
-858.57697,555.2681,404.95374
-1021.57764,533.67633,420.96417
-1322.1893,403.9638,653.96423
-1857.6343,343.19995,787.28815
-1902.3657,237.48666,658.9871
-1486.6027,174.83948,605.0982
-1078.8293,362.31738,303.75412
-879.01306,467.4089,168.06717
-777.6495,658.4034,90.49444
-671.0636,673.6489,43.152775
-657.4831,717.707,19.173191
-647.4229,698.8698,64.35532
-875.407,682.53577,218.34601
-1099.4447,789.5653,289.8548
-1192.3837,747.7479,256.99725
-1406.9652,790.62415,350.06158
-1517.213,741.56964,386.12415
-1498.1971,699.9791,300.51315
-1822.8934,658.5526,243.33406
-1948.2286,271.4662,246.19797
-1485.9572,152.02838,236.80638
-1161.1918,176.02733,159.26424
-931.27716,183.72713,88.18004
-815.7566,288.81577,41.96302
-747.03064,342.64215,13.773348
-668.9981,271.61212,-16.478226
-539.90875,205.06606,-61.938873
-535.4529,298.16144,-83.20739
-542.9347,393.6368,-54.99666
-594.60706,531.93445,63.025913
-735.5928,626.5153,244.24458
-938.9715,789.757,537.88367
-1054.7728,805.94574,678.1091
-1204.22,814.5861,484.20544
-1281.7622,511.1503,393.99805
-1243.076,214.16519,566.6213
-1151.8102,251.92166,586.24786
-898.20276,682.5904,334.48654
-709.5285,592.5516,224.39264
-672.2486,487.16956,191.2891
-718.21515,635.33264,244.57579
-718.18756,687.8265,249.98383
-828.0035,788.57556,273.87723
-1097.4308,714.8138,381.92722
-1249.2812,651.0614,343.96783
-1462.1006,716.6019,367.70642
-1525.9493,785.1965,403.22043
-1457.0908,758.86774,328.86374
-1667.7861,712.1999,243.0621
-1834.8065,382.92578,132.80649
-1476.4829,214.76341,217.26355
-1072.666,19.187313,193.00874
-777.33734,109.470856,43.620308
-704.5524,216.30043,-45.398033
-600.71387,167.42575,-91.21394
-541.19324,154.55382,-71.271385
-465.9943,152.40419,-89.16483
-464.33066,264.8139,-62.564552
-444.18677,403.5428,-15.091344
-605.1413,612.25446,221.20454
-803.34766,746.837,357.54318
-911.1692,593.9487,508.37976
-1344.0244,550.8466,774.866
-1903.1534,631.78534,770.0477
-1719.0701,545.8181,695.8835
-1170.4004,256.8926,504.18015
-834.1077,259.05887,379.62817
-671.1378,182.10384,330.13742
-575.9246,445.91928,234.96039
-506.01877,699.15875,199.71884
-392.90842,762.0029,177.46579
-410.84573,619.8759,211.72418
-696.4455,597.3433,335.0956
-1123.0337,604.7846,452.4424
-1227.9703,507.39813,381.80502
-1381.9285,401.61813,308.86597
-1598.8105,562.7887,406.27817
-1606.3732,657.34296,449.85345
-1464.317,600.6389,306.77222
-1588.2365,511.8407,227.0108
-1594.7521,284.3682,175.95682
-1123.7375,223.5962,98.62364
-838.7087,230.67166,86.44309
-661.79724,264.98526,70.56806
-559.57794,257.87683,33.979992
-509.1554,253.8771,-5.0460744
-499.08185,239.16335,-16.530565
-489.40384,241.69089,-26.652601
-554.2868,309.79242,-8.951036
-607.3009,370.37894,13.352794
-776.01874,464.70346,156.5618
-1038.2717,486.6982,349.1599
-1243.6403,497.51044,542.12683
-1457.3021,501.77563,811.8611
-1660.9048,393.19406,788.30945
-1528.514,189.63078,576.403
-1120.0526,45.408257,538.3497
-828.09216,128.22455,430.7462
-642.42194,353.5024,318.0927
-550.9501,552.96155,254.32138
-489.81778,711.82776,219.60782
-451.8386,741.24316,252.65247
-512.59735,659.38025,326.6837
-761.0307,612.39557,401.9386
-1080.3953,635.99005,417.51556
-1241.2188,601.0805,329.46603
-1445.4513,478.83182,305.88315
-1599.1202,578.16864,453.6798
-1720.9185,648.6342,508.2937
-1635.315,599.15424,438.0037
-1648.3009,504.26553,235.49182
-1492.3228,228.09097,82.47587
-1065.9598,44.297337,99.97927
-766.005,160.33516,79.14817
-572.3831,167.5998,-13.8600025
-457.86063,209.04507,-73.639854
-375.9452,203.47736,-115.78787
-348.38733,153.96176,-104.08752
-392.68216,197.4948,-78.277084
-546.2623,357.29114,-25.046852
-683.4853,402.86884,5.9480267
-920.0318,489.401,230.6556
-1366.5046,531.2339,498.1597
-1594.3875,543.59735,792.5493
-1668.6339,486.09305,899.8468
-1535.3344,174.38016,695.594
-1279.8561,-239.15465,539.36273
-959.56067,34.769814,406.74332
-654.66895,336.9505,347.18628
-536.2755,610.8845,287.62958
-392.9759,773.1163,230.25562
-322.9639,752.3032,242.70093
-343.7265,574.34436,277.70673
-528.34906,505.1763,307.4381
-894.6523,554.5759,344.67157
-1249.5449,646.28687,357.4371
-1295.3071,439.8273,272.4652
-1428.8601,333.65527,295.81888
-1632.0831,490.36987,447.64297
-1713.3718,688.2816,478.9692
-1521.4332,669.1257,311.80075
-1560.2227,558.2557,192.74123
-1519.8717,297.26535,121.61228
-1064.8882,127.113106,102.2234
-736.7621,194.90622,72.31102
-551.9824,209.73476,20.11442
-436.19736,248.70416,-10.4313
-376.47534,258.57895,-43.02549
-326.58987,211.7241,-43.355026
-334.26453,257.76315,-33.90627
-442.08502,353.0357,-14.892216
-608.42126,445.97363,54.440044
-819.17957,489.77817,245.44884
-1178.1313,473.77777,444.2168
-1438.4058,388.44772,478.2622
-1627.5212,432.35,751.7337
-1690.0242,437.08966,859.7104
-1388.8438,203.81104,540.22784
-1110.2732,4.9927735,442.2416
-824.47595,84.5065,393.36832
-646.3891,383.0264,296.53137
-525.37866,599.53906,262.14606
-428.5877,698.5713,197.77478
-383.4899,717.4411,256.99216
-471.18405,561.3976,336.7442
-670.1634,485.1527,360.34
-1107.3802,551.9567,446.7172
-1304.066,443.13345,445.35062
-1281.0928,324.55255,337.95355
-1579.9813,599.9504,443.17474
-1720.1125,689.38043,487.7823
-1606.8334,584.96436,350.02524
-1524.5497,500.01544,236.77219
-1440.1438,398.21634,164.89484
-1126.5442,294.87415,115.30534
-810.0387,216.0573,87.526375
-612.03156,204.8411,40.035137
-512.1526,226.24115,6.488642
-443.58942,217.34763,-28.681227
-409.09723,211.19627,-61.49168
-419.60275,255.94804,-13.40839
-467.38977,336.66196,3.4021282
-646.75934,433.78046,37.17909
-848.93695,506.0746,302.17477
-1158.3711,467.18637,559.0654
-1306.4608,383.25244,556.5636
-1498.7178,402.7711,789.6043
-1675.1786,390.00058,853.24255
-1466.8529,131.8007,528.3752
-1100.9536,187.67708,498.64847
-765.43134,213.22157,430.83475
-611.19666,396.5642,338.1222
-505.27838,658.3271,295.36234
-444.37747,734.7394,282.20157
-400.48297,678.6596,287.80893
-493.07587,560.9648,344.51752
-758.82214,518.9554,379.01495
-1118.6637,594.737,415.02234
-1274.1898,515.48425,338.41
-1523.6969,395.44434,325.9148
-1735.7958,596.92804,462.3889
-1802.4105,705.9147,442.13004
-1718.0378,569.34125,242.54874
-1736.7229,446.5906,155.15797
-1419.3821,177.48184,120.28858
-990.6429,242.53928,132.63603
-648.0219,240.13516,79.16968
-449.64908,203.60043,-17.696566
-377.51862,228.51967,-48.17983
-339.89056,176.69235,-37.263596
-359.30756,207.88873,-34.41514
-404.81854,267.93555,-27.194399
-523.0692,356.92944,-20.176895
-684.07465,465.14056,57.25448
-928.1675,515.4118,291.1967
-1245.0999,504.27472,528.1777
-1497.2207,397.32886,555.1963
-1757.197,467.13712,909.2901
-1680.9983,197.82574,836.9012
-1403.7274,79.330124,587.1492
-1039.038,202.62152,555.2129
-716.33075,221.95717,393.60873
-552.14954,495.19272,295.8763
-449.49,643.4337,254.23581
-355.4839,684.91473,208.65552
-383.9908,681.80176,220.46605
-539.8481,604.07477,276.0413
-880.8747,655.73785,380.41974
-1233.1116,670.97925,419.1905
-1308.001,447.84012,350.6814
-1610.4869,405.31525,427.1866
-1794.4266,550.59735,634.0577
-1801.9166,499.4357,551.2956
-1652.6881,446.40234,287.9747
-1679.1171,499.07822,178.64563
-1450.0251,242.86148,210.7357
-995.87134,226.85509,188.11461
-666.4739,227.23917,13.649624
-500.12354,181.90132,-37.912567
-430.72055,181.39902,-60.47928
-400.8756,169.37534,-45.919384
-373.1757,195.38908,-26.001572
-335.5496,244.97621,-20.30057
-382.45453,354.04922,-12.702884
-523.55774,506.34894,120.16312
-844.67017,708.75464,318.37592
-1097.4518,527.20447,507.3548
-1444.8517,394.72418,744.8308
-1922.3656,524.0065,849.7116
-1951.9534,486.01572,880.2065
-1456.4231,328.09244,663.2586
-936.1745,339.46844,341.06555
-753.39435,346.85944,293.28247
-655.60913,436.52103,198.25418
-576.63947,584.27106,159.35432
-449.29816,644.45795,81.03247
-391.94595,631.0805,97.874825
-538.35516,578.7615,207.03294
-932.8988,689.8041,337.77036
-1169.4738,756.00635,389.35938
-1291.819,622.81384,418.7364
-1509.2983,625.72253,511.4214
-1595.8574,607.74963,565.67926
-1667.9788,550.7829,472.1564
-1743.5118,414.613,358.13846
-1723.1931,297.65076,243.89407
-1426.767,316.27484,235.72473
-1132.4337,216.93507,237.16864
-802.0043,239.73102,77.30278
-627.90936,273.71063,-7.4328103
-511.7785,202.02754,-26.74296
-465.53815,174.60666,8.271309
-388.68018,171.6137,58.976036
-369.66248,207.25319,83.12957
-379.10037,319.53485,110.0926
-466.5946,431.2289,246.36348
-633.35315,575.4249,424.72388
-979.73663,547.3588,429.8661
-1205.5643,405.86496,470.93448
-1635.0782,461.52948,646.7236
-1967.2649,460.66806,668.2202
-1709.7231,412.81973,582.6366
-1151.8251,307.8971,376.43555
-908.4082,370.044,247.94298
-758.65814,470.90305,193.33807
-685.6721,617.0101,102.72408
-547.82294,706.9062,51.435444
-558.39526,773.8055,113.88162
-615.51105,668.88293,220.16241
-907.1664,792.1327,367.55573
-1098.253,793.04987,427.73132
-1324.7928,718.89813,405.38492
-1675.1737,794.43933,573.6035
-1938.5062,506.42847,545.54785
-1898.3925,228.21262,413.99252
-1884.7177,164.73973,286.55292
-1651.7113,137.43564,255.11824
-1352.4459,269.96252,208.20393
-1011.3765,276.10373,123.461075
-798.56305,428.31525,15.133643
-660.5287,281.5442,-29.10776
-530.73285,161.87776,-85.07561
-454.39413,134.24184,-52.916615
-433.57736,237.30183,-19.708002
-386.1609,234.91283,3.2174308
-455.48383,400.20877,55.687237
-535.40375,514.1957,252.18315
-681.3976,617.24475,450.644
-822.7988,621.02496,513.1797
-1231.2776,463.19818,665.7113
-1783.4424,298.76236,823.13464
-2034.1539,393.80618,801.54126
-1553.6964,220.64143,684.21765
-972.85767,286.54013,388.69324
-770.85455,444.20798,249.98228
-701.16583,490.05185,184.97153
-651.8219,630.41174,121.35396
-553.8527,722.22125,82.26751
-526.21326,740.4857,142.51083
-719.6758,688.7013,271.20023
-1089.0151,744.83417,437.85278
-1231.0201,566.7347,394.99103
-1456.6211,546.0291,447.85806
-1647.1615,631.94104,541.70667
-1702.6127,486.8431,564.58777
-1610.2484,498.97958,486.40207
-1798.865,382.13535,473.40994
-1632.7919,322.8375,216.86002
-1097.1869,-286.30386,125.682304
-790.4795,-116.037926,185.18936
-631.4946,358.2746,16.913954
-517.2892,347.69513,-40.7391
-514.92535,364.84094,-80.77689
-450.74292,179.6963,-77.48062
-425.88123,230.11948,-56.068233
-485.71503,311.54727,-52.61566
-522.8341,438.71936,56.055576
-751.49646,555.6353,255.20224
-936.9309,579.2291,322.9709
-1222.806,534.39685,455.841
-1742.5975,564.5036,787.38184
-1880.8197,381.15677,776.0228
-1511.8187,77.91314,565.1154
-1040.0802,-38.00954,530.2575
-795.4254,65.97431,414.29398
-630.4646,294.99252,312.7896
-550.5778,568.6538,221.09799
-403.22284,717.23083,196.10405
-372.45496,760.04095,210.38002
-554.19586,671.2073,338.69452
-899.519,584.70825,461.93607
-1211.1053,456.53433,500.08743
-1348.3268,363.88962,433.3516
-1467.3174,402.70798,451.24075
-1535.5985,480.78076,520.62964
-1537.357,460.35233,437.42294
-1574.97,455.93335,322.0969
-1515.056,340.27856,304.35358
-1233.0785,286.31702,279.73257
-938.0486,263.77426,230.59956
-725.4982,245.9302,113.604774
-616.5438,220.68063,54.731956
-525.99866,207.50517,22.952488
-480.3064,216.37013,28.157078
-413.50677,256.56155,29.932758
-448.55908,401.11478,54.652035
-519.4451,489.46802,52.40724
-594.39026,568.4648,182.24538
-771.70496,606.0303,356.80536
-949.1279,531.7659,498.0576
-1178.8295,493.97858,567.3056
-1519.8726,606.908,571.85876
-1550.2593,536.2844,625.862
-1286.2281,375.65808,573.90546
-931.1149,330.53137,446.2791
-714.34894,484.04565,325.07382
-607.16364,476.99164,251.7698
-554.7385,480.25458,133.51213
-581.0253,662.62524,171.02344
-648.68317,683.91907,193.5528
-709.79425,807.23254,221.94469
-966.31573,923.18604,386.20557
-1076.7136,780.97736,424.64374
-1341.8907,785.2559,476.43213
-1505.0382,740.34973,510.04562
-1488.9432,605.3683,437.27606
-1392.8716,578.5387,359.69778
-1661.8094,598.4839,383.69608
-1565.8202,418.1572,334.1238
-1130.1927,297.1798,215.10278
-834.9979,203.47267,150.73189
-673.9246,243.48477,99.01458
-595.43604,229.84325,61.685562
-550.2218,234.6928,31.110336
-494.4291,191.1196,41.402245
-468.79425,196.27034,24.351173
-453.24878,227.10616,4.3607073
-531.0644,438.6744,124.493805
-599.3448,586.70764,312.15247
-805.2669,728.56274,470.18066
-942.3595,693.31885,634.6526
-1261.3229,552.8067,599.49884
-1760.9083,548.56665,619.3361
-1761.6157,441.2918,665.27136
-1289.945,352.50513,434.36752
-851.9138,575.6967,202.94698
-649.4946,562.0672,149.89653
-581.3158,499.9637,82.43764
-566.27856,601.0058,33.912117
-577.2413,647.40247,46.183205
-679.9088,644.8023,160.32617
-876.4366,611.96826,250.17824
-1086.3557,739.9554,303.73578
-1240.3713,741.58093,377.00977
-1433.9539,782.0892,454.96307
-1509.4303,669.0992,536.6751
-1474.1296,450.60434,509.0233
-1610.4539,343.8597,386.9577
-1768.5852,273.6971,373.16818
-1402.9011,202.1317,326.65247
-978.5503,60.171844,275.9379
-683.0014,127.91348,146.17834
-592.88184,270.82358,44.011295
-505.27295,191.3004,9.660049
-489.26306,229.45905,4.7917686
-445.779,158.74661,-9.701106
-522.7106,259.50992,9.126227
-552.4655,317.3941,54.67004
-650.4588,458.9223,200.99796
-831.03723,543.9878,339.8465
-1098.2091,520.1275,487.26035
-1359.4828,435.81775,626.4244
-1703.2426,489.6052,763.3126
-1728.0996,294.87915,671.3163
-1333.4601,95.47579,533.3163
-971.8999,120.77149,426.4579
-749.3261,210.392,289.67798
-615.5519,394.61392,154.48538
-521.4396,620.9152,98.60208
-430.338,634.73706,93.98733
-445.9578,625.42615,125.88592
-627.79974,559.4554,270.37286
-963.18616,584.3311,346.3553
-1158.9088,670.1016,454.48288
-1211.6713,641.3512,460.5102
-1420.6948,615.9115,477.37537
-1533.0062,589.0925,533.2877
-1458.8865,485.2541,468.22678
-1513.9731,545.59644,417.85504
-1592.9425,365.5564,358.28073
-1322.3573,256.86652,281.44608
-949.2596,202.03802,205.25818
-739.13745,181.72905,175.23007
-633.1313,283.37582,105.514046
-583.30896,281.45435,37.890015
-485.434,206.33786,-5.6127157
-423.77368,195.24908,1.7240207
-475.68103,319.5609,13.378138
-529.7974,421.0084,67.95598
-597.9597,510.88647,202.85829
-785.49994,548.3957,379.8494
-970.1969,471.66418,495.76617
-1225.0074,399.02194,640.32104
-1655.7609,386.60056,706.2505
-1768.1033,296.7047,693.6438
-1382.8184,221.05623,634.26447
-921.7231,271.29514,366.63974
-693.1233,301.10303,227.04846
-628.0579,412.8706,177.48993
-572.6592,530.9671,119.011856
-557.876,644.27844,96.0528
-592.39685,686.8562,150.23557
-757.10474,602.0912,255.69803
-1058.2343,612.9971,355.00467
-1271.8768,640.3964,395.06015
-1368.9352,703.4431,443.63153
-1409.9569,655.21906,464.477
-1392.9583,483.50928,497.07574
-1578.7352,352.7797,450.6239
-1687.6029,239.4328,372.9472
-1324.3137,276.6028,283.54013
-1178.866,332.83255,281.91666
-889.6586,253.14539,229.19493
-705.04486,268.4214,121.99652
-591.65753,250.03508,42.227547
-547.2366,214.20749,1.2855263
-479.5701,191.2494,0.73892075
-476.31863,233.79794,26.103024
-506.5616,327.61304,52.93666
-542.8365,378.19736,123.67974
-647.8509,458.41412,271.75992
-871.2694,439.46103,371.94946
-1093.5704,385.46054,504.30014
-1495.5198,428.59402,713.44037
-1788.7848,450.8917,792.2118
-1623.3442,298.84018,665.8353
-1087.74,174.79991,455.0034
-741.3044,209.88522,309.4459
-601.401,252.58772,231.9951
-533.87494,377.25708,108.39448
-498.4275,570.94147,71.182915
-510.15756,680.3288,98.95312
-595.70264,646.9574,195.8141
-810.3005,544.8573,338.72568
-1114.1926,568.8752,492.59677
-1194.2458,517.27185,486.47183
-1401.5876,592.3407,508.33783
-1602.5826,597.13043,619.0297
-1378.8846,386.32727,502.37808
-1384.8506,366.29813,429.50595
-1405.4421,331.45715,375.73343
-1201.5524,322.06387,318.2198
-1025.7495,317.05798,317.4899
-792.287,196.6239,243.47548
-659.7945,239.33559,154.00165
-585.5387,242.17213,59.889874
-501.00156,178.61917,8.195582
-497.3213,226.47627,12.212532
-554.8106,302.17886,16.226097
-634.17444,359.9292,65.04865
-685.6035,378.98767,175.5258
-850.20496,433.83292,312.23737
-1056.0791,422.1965,395.8517
-1268.7057,405.04294,551.12036
-1665.9032,428.75427,662.37537
-1758.9136,291.60825,642.98157
-1301.1915,223.97574,633.5475
-803.8135,182.99878,391.71188
-636.1482,201.77765,222.12004
-569.39594,295.6459,197.15758
-562.2268,486.1086,146.84663
-572.84827,644.18335,165.96669
-647.83093,678.8928,206.61449
-801.0965,578.5603,365.5552
-1047.9653,530.4936,460.03458
-1153.0266,470.5984,480.27393
-1287.0963,448.3002,426.41342
-1508.1854,548.5409,580.74805
-1399.896,429.62103,521.64484
-1371.9115,426.99142,440.07782
-1521.8197,394.0813,382.00516
-1447.7198,304.8564,275.55704
-1240.3363,265.3648,295.08405
-930.4591,207.63881,226.34068
-732.7324,243.57292,128.30363
-639.31116,272.4128,67.80336
-595.8653,266.4227,23.939184
-547.8447,227.56883,-1.1576145
-554.4371,258.31494,5.875588
-596.963,298.7452,51.219547
-646.11743,365.67154,143.46857
-671.7397,425.85284,294.48294
-917.2582,469.49594,360.24902
-1053.073,431.00412,513.99615
-1276.534,398.98944,627.9183
-1641.829,433.6808,630.4066
-1691.6201,401.26553,760.7716
-1137.9583,208.86586,587.0056
-771.24994,61.05827,322.32654
-650.86414,196.85826,232.68004
-628.6596,381.17896,185.08626
-648.9595,593.6092,162.45468
-644.09717,776.1171,184.31952
-625.02057,749.47894,268.2336
-857.65845,654.8317,429.5694
-1063.7966,608.80786,498.81253
-1153.976,544.9166,391.01556
-1372.1125,666.7925,397.952
-1472.9669,654.84155,436.83502
-1429.1556,458.54294,396.44086
-1441.1605,417.4846,360.08627
-1565.4902,343.217,299.9728
-1356.036,332.5684,280.43204
-1181.744,315.75153,284.58954
-956.7225,212.30835,227.06946
-767.23065,203.23776,115.09717
-631.0718,182.91669,48.03831
-554.19995,173.32816,36.427677
-522.6142,192.10378,50.718216
-549.9723,261.84003,60.73165
-581.5009,324.73083,91.3338
-601.9846,375.7681,166.15727
-707.598,422.7213,257.57086
-1003.7454,575.1772,387.03848
-1190.2815,502.2669,539.6999
-1579.4375,472.24072,671.894
-1709.335,324.6884,634.872
-1394.3036,204.85495,529.7133
-926.9424,155.08058,403.2518
-744.83795,169.94238,283.27863
-693.4777,388.7386,242.13138
-667.9063,549.2109,194.43988
-598.7751,666.7391,179.31976
-629.3692,716.1283,197.509
-804.51154,683.7044,365.61273
-1054.0585,641.99036,485.0101
-1179.0857,548.9525,478.04446
-1349.7479,481.01898,447.97214
-1502.1888,518.29865,528.3939
-1467.4049,443.169,534.58984
-1403.2976,425.17398,468.55612
-1457.5499,398.78622,358.04938
-1481.2421,360.15695,300.38235
-1221.6542,314.52924,273.8975
-931.37695,209.95692,221.65999
-754.3384,248.35779,153.37938
-605.8311,254.69656,65.79142
-532.9699,228.58394,31.611034
-448.33594,216.8044,32.946545
-419.60965,218.23778,22.085152
-476.31754,336.82675,55.0395
-524.01984,384.81424,107.832855
-615.4259,455.60657,210.44621
-855.7103,566.1736,339.28857
-1036.5161,465.4097,405.87277
-1323.5183,412.17438,561.51764
-1683.909,426.33255,740.6186
-1715.5663,320.66336,694.2334
-1284.4839,184.15233,565.2879
-884.70966,122.785805,421.87762
-708.29364,191.7988,328.0204
-604.38995,285.35388,234.16702
-570.35,562.2165,194.35635
-549.26447,644.71783,224.12361
-554.4662,611.6892,283.1806
-707.846,508.17004,379.61856
-968.57214,516.01965,477.34253
-1115.8628,489.26016,499.13846
-1120.7719,468.5176,427.8946
-1205.5436,553.75574,465.1793
-1248.8838,634.92413,480.55396
-1340.6619,611.098,464.03836
-1313.9863,561.49084,350.61676
-1470.1674,544.21606,325.31168
-1449.7657,363.26935,340.78113
-1237.7584,210.19664,349.52988
-944.10925,151.5135,266.6201
-749.44,198.46635,167.41943
-615.1134,254.49043,147.88995
-574.34174,252.07338,136.5182
-530.611,236.48279,115.69036
-501.36658,205.07185,115.51419
-515.0813,240.19481,148.93025
-546.1927,319.99847,242.29785
-668.5659,432.5477,355.57904
-934.67255,523.04285,421.94025
-1014.0101,379.01718,483.728
-1437.2212,387.12134,560.00854
-1766.7795,384.98456,533.21375
-1579.7189,316.29593,520.34393
-1214.7604,279.87778,413.4758
-978.2468,429.7794,246.19125
-857.6909,546.5753,212.70145
-774.1172,607.8889,139.49791
-702.4595,691.8382,87.67049
-718.7273,750.35767,150.87001
-874.4701,703.17267,267.26974
-1056.847,757.74585,361.8949
-1086.4883,693.3485,365.0209
-1258.5171,677.1956,410.2238
-1413.5349,721.7625,506.89926
-1530.9731,518.6333,525.3279
-1658.8628,414.23212,420.81415
-1847.3813,334.6813,340.0453
-1778.692,270.22958,315.36102
-1412.6075,265.59158,271.41138
-1034.9629,238.64542,175.09117
-854.3105,263.0898,69.23178
-717.04425,273.7906,6.4927664
-602.68695,217.0843,-22.29436
-515.01245,191.91576,-0.33637276
-486.87128,235.88724,18.730635
-455.37546,253.31996,5.1933384
-452.49173,356.20093,94.8436
-489.39075,495.98584,283.75067
-687.6311,644.62976,500.5302
-838.7649,592.1798,584.8662
-1129.766,308.67435,618.3609
-1694.4465,281.6864,708.5366
-1754.0618,271.1154,684.4348
-1370.7656,306.30386,603.2977
-1023.3907,358.14355,366.1899
-884.5741,537.4883,254.6707
-785.838,544.0861,147.45987
-730.55707,617.92084,101.31728
-722.16876,667.8763,129.41098
-721.088,656.674,110.05153
-871.9627,708.01733,217.51004
-1033.7179,751.08075,311.28024
-1189.7164,756.16003,350.5867
-1285.7882,760.6102,466.00577
-1274.9935,682.5404,534.60956
-1341.0447,665.4685,533.87085
-1525.6227,591.32477,410.0966
-1714.8046,384.0445,360.7451
-1451.4445,220.26314,338.03018
-1224.3755,226.99033,342.97305
-938.72925,170.97766,224.93176
-780.2529,252.3479,94.722305
-667.83167,264.0691,44.607952
-581.9545,196.1373,27.859398
-491.04974,183.56186,19.815603
-463.1678,239.3499,22.231264
-455.22165,363.3386,62.94744
-498.5841,454.8933,186.68694
-690.0207,610.49677,317.03436
-929.0496,645.9873,537.44617
-1030.665,375.1148,647.1134
-1453.3464,350.21402,602.9572
-1719.3387,303.7389,589.26917
-1486.2512,247.85506,576.98096
-1034.1842,285.316,439.8028
-815.61945,389.48294,264.67404
-718.7915,420.04608,178.1852
-709.2839,566.53546,119.87663
-663.31976,625.88007,98.691124
-681.27325,696.6839,126.8642
-785.32324,632.32654,239.21643
-1002.734,673.0878,333.72003
-1040.6083,707.6968,337.54022
-1247.0408,818.7698,385.0256
-1380.4015,812.04846,486.0557
-1460.2245,712.46686,525.0945
-1398.6855,520.28784,502.12653
-1650.8898,490.14737,486.0889
-1684.3477,338.66293,431.09167
-1431.8534,399.1164,254.94223
-1195.3809,31.795355,288.59036
-925.3324,105.704926,186.44469
-731.2151,333.02808,43.721203
-567.1911,201.09846,-18.048384
-470.3894,229.80266,-32.24859
-403.05527,202.28342,-19.177221
-395.07108,289.46466,-20.739273
-386.15536,348.1676,7.9555144
-415.84406,440.04242,152.88907
-632.4728,624.9115,324.1475
-806.0105,652.62103,488.36835
-1073.8618,398.8724,591.2746
-1604.221,342.11447,695.29987
-1938.5957,300.7614,734.69196
-1629.777,256.80515,732.2067
-1047.9282,174.08553,510.41547
-815.1396,325.20367,311.69812
-713.00555,345.4196,234.44398
-668.77966,495.78198,91.65222
-609.3639,709.20764,85.1334
-604.6082,706.55475,91.01233
-661.46344,673.1127,182.33142
-933.2613,656.4766,342.66788
-1098.7013,694.1129,413.2437
-1198.1005,728.72095,432.0194
-1367.101,738.3987,513.0013
-1377.1233,624.2419,520.5873
-1397.6622,634.9402,453.64105
-1527.8815,583.50854,396.99625
-1577.8739,409.32462,382.06235
-1477.0931,322.6403,381.98056
-1083.8947,128.10838,298.72354
-832.3706,231.3326,154.57571
-723.8814,295.39752,74.703255
-599.3095,230.50182,47.594997
-552.88873,274.1232,51.28851
-470.61636,206.91745,23.161062
-394.6337,268.58658,33.172337
-400.50928,398.6448,94.699356
-431.10806,521.1186,288.19006
-557.2473,616.63226,469.95184
-779.5522,715.4958,682.7025
-894.803,466.92432,681.3675
-1266.77,270.80798,539.82434
-1651.7847,181.42734,489.15356
-1620.8811,234.19806,607.33057
-1274.9697,291.37286,475.0546
-905.48975,677.39856,191.29411
-725.52637,644.1553,184.37354
-700.68,449.458,149.5246
-691.12537,566.0157,120.57873
-711.4911,629.67377,139.23865
-731.7113,633.12445,182.05763
-933.3088,665.52136,338.61267
-957.0122,663.5827,363.74597
-1072.1007,651.36676,333.62347
-1331.8016,755.3139,476.6786
-1267.1226,620.46106,480.7916
-1314.0448,508.29257,395.87262
-1467.8306,482.40646,427.23868
-1549.5135,445.51938,402.47302
-1408.739,320.63434,343.8642
-1233.3292,234.72423,303.59677
-910.9442,140.5399,210.6105
-779.7345,210.38988,152.01962
-650.34094,216.11021,112.52128
-610.0069,246.0775,103.83423
-554.1493,234.81303,107.83825
-537.6276,280.63223,104.01257
-490.37585,322.80176,108.92924
-497.14917,448.1319,229.63188
-540.4444,578.3086,292.49347
-792.1825,762.6538,432.05585
-948.4995,692.7656,604.466
-1165.551,483.70667,591.95306
-1437.8932,320.09665,552.2057
-1366.7563,137.31358,600.198
-1132.7572,218.31923,420.49426
-923.3721,413.36957,231.69243
-749.6163,694.1968,118.51383
-703.06323,560.1106,134.98936
-727.6818,474.15274,136.85645
-794.3266,559.7345,133.68994
-826.4436,652.1976,205.90439
-941.6638,644.6571,257.74304
-1015.7975,728.29474,353.19284
-1168.7775,680.777,454.64026
-1314.3588,769.0861,585.0222
-1348.6942,671.8683,608.4755
-1236.7527,577.73883,512.6185
-1424.1663,637.5597,463.822
-1587.7101,380.43283,407.42447
-1414.4355,208.12805,338.99966
-1171.626,169.84084,304.39542
-913.36444,197.26648,206.17796
-784.93036,302.08978,109.639305
-666.06104,253.65036,45.419125
-578.6663,245.03763,19.982283
-484.0028,193.21696,27.769705
-471.60782,279.92657,72.55862
-448.77527,314.83902,103.07928
-496.82397,468.09885,248.14732
-589.6827,538.8071,379.44986
-809.39594,678.8393,528.61237
-950.9477,448.23657,581.00085
-1314.2333,315.42343,590.76105
-1724.7349,299.84427,666.99115
-1586.0256,314.00778,740.7766
-1102.7445,159.10773,496.11008
-820.21484,381.74893,242.22101
-690.211,618.9447,159.80081
-638.5108,480.3344,144.98909
-636.4151,523.0975,173.86316
-646.95154,578.1667,160.63475
-713.4532,654.741,226.51941
-911.9231,637.25726,323.2647
-995.6849,698.26587,374.20334
-1078.2317,628.8725,387.4735
-1303.827,715.25665,497.9736
-1390.1013,721.646,563.3477
-1327.0905,695.3359,522.4793
-1288.7439,638.04803,449.3165
-1521.8834,443.8013,438.3897
-1426.8851,311.07855,325.777
-1194.1215,266.27045,271.5135
-940.2913,145.72755,238.71608
-799.7385,348.7228,137.45937
-672.2347,279.22406,69.3898
-572.36566,246.95602,32.16698
-504.93436,236.1132,26.894855
-453.74274,232.38884,22.975546
-454.43057,322.6108,60.772312
-487.45694,441.5122,154.49078
-518.84625,502.7216,308.03384
-721.5251,608.1718,448.05435
-889.68207,565.0997,565.113
-1043.8679,457.2169,607.67926
-1311.9298,445.81207,710.31244
-1493.3013,383.5484,686.3264
-1324.1199,329.96536,542.74274
-1040.796,334.44186,458.56128
-830.7938,481.97824,360.9109
-731.0357,488.8994,285.80176
-681.0116,630.03546,291.8923
-622.3043,736.57007,322.6094
-646.19073,770.89233,377.70987
-689.96075,702.8946,422.5787
-752.98566,733.4564,423.60037
-852.5941,649.6188,394.33215
-977.10077,665.16974,348.87622
-1285.4272,786.78864,386.75516
-1545.6112,832.7402,280.9378
-1572.4567,588.22955,130.80301
-1494.464,599.61774,-10.158429
-1350.7545,185.8378,-155.65025
-1055.0759,186.79381,-173.5634
-854.1656,708.6744,-245.26917
-747.4181,886.6947,-177.5246
-748.5721,778.10333,-135.50214
-656.24304,492.6003,-70.48149
-570.5222,632.32153,-49.923996
-480.25903,694.0035,9.990929
-451.43613,849.34424,117.9233
-339.7323,809.97144,162.10593
-450.49335,838.22925,287.6449
