# PAMAP2 dataset (wrist-mounted sensor)

acc_x[mg],acc_y[mg],acc_z[mg]
-917.61975,711.17523,479.38562
-1156.7416,518.7608,633.4449
-1240.4587,412.75958,594.46826
-1100.5833,161.1742,437.6736
-1071.429,56.418964,357.81433
-931.7147,44.977352,286.10678
-929.87915,259.95276,184.08241
-985.7829,421.335,125.87871
-896.0493,471.01147,90.882645
-884.8776,350.02063,82.84519
-767.6884,290.19644,57.91029
-708.95197,303.91757,92.90434
-596.4095,375.04596,134.39464
-581.45306,420.42316,169.74821
-579.04425,426.66034,222.895
-550.84406,359.66302,211.91057
-482.17963,263.8479,170.7472
-619.76294,321.44073,182.49478
-674.63684,259.09427,202.92717
-887.97186,497.35956,333.67532
-908.37823,702.82666,321.02658
-811.94354,652.53876,312.25854
-1075.4083,618.6354,336.54977
-1761.437,548.3874,482.6948
-1533.0575,564.50665,684.70306
-1159.5547,553.37604,541.611
-1090.9464,373.14832,439.46146
-800.17786,211.23656,354.73282
-552.5985,343.59164,268.6083
-418.46494,438.98114,229.73956
-430.5243,484.22995,282.03293
-427.9028,422.31726,324.95462
-580.5358,445.58313,363.8558
-796.222,454.10977,382.0593
-856.3818,356.02164,305.50577
-811.3724,274.42004,317.69617
-991.1273,340.32748,325.5914
-1479.5133,429.88132,333.05954
-1486.045,413.63715,356.4707
-1472.0155,301.266,282.38565
-1377.0006,258.01898,227.3716
-997.66327,329.67023,249.24869
-727.25085,429.8126,243.5835
-499.44904,464.72278,243.77792
-428.76297,433.6031,244.50755
-364.16306,327.72336,206.45628
-394.81848,237.62662,144.44328
-553.35645,272.1929,147.58093
-685.66534,380.81116,182.53265
-861.63,359.9739,266.45706
-1084.9286,401.80234,308.85785
-1431.8228,552.6176,395.7294
-1688.6942,810.95844,677.188
-1322.5964,740.6764,758.6047
-1090.5408,531.1233,536.30664
-1134.0697,407.23608,462.86798
-819.29126,206.7033,321.09146
-558.43933,269.71005,254.51414
-504.3844,361.73373,263.06107
-523.6162,416.0411,296.4199
-484.38382,395.48752,271.46112
-530.0503,369.1043,255.63396
-589.92,298.4631,236.91905
-696.98615,258.0899,224.53018
-762.4901,219.21858,231.27481
-1083.7928,226.37021,245.02364
-1442.6405,294.5458,292.93045
-1627.2769,428.17075,367.8914
-1551.6603,390.37592,333.3325
-1375.0867,337.24863,324.40497
-1092.319,325.16928,353.53424
-829.8019,326.11835,304.81128
-667.05164,298.84918,225.36813
-557.955,327.1838,204.99777
-450.7995,353.2635,198.78201
-480.7286,379.02295,189.28276
-528.0279,346.17654,119.264915
-625.26886,389.0435,168.38629
-728.4652,354.05093,224.98775
-956.6585,467.63574,238.974
-1449.5654,706.2741,362.80164
-1748.9796,962.8843,659.4832
-1419.3792,810.72656,880.1337
-1220.6423,499.18362,650.88654
-1236.849,335.7438,480.19388
-848.3953,112.96715,304.9022
-575.7689,188.07861,293.74808
-476.23618,157.86966,249.4152
-351.07333,232.69107,175.10855
-361.3202,278.598,123.3309
-489.34802,316.44373,102.41491
-675.6387,237.74915,94.96218
-922.66925,265.5786,168.75066
-1281.983,335.80826,245.59818
-1448.2388,514.546,330.74142
-1276.5015,424.72842,375.75174
-1319.9176,300.77084,324.2676
-1311.8718,323.9218,417.378
-1103.9053,496.80832,471.10065
-829.3013,525.14496,324.58588
-616.19415,318.80273,236.08818
-742.1371,249.02937,156.22626
-776.4055,323.48306,117.93113
-530.05444,358.70212,86.640686
-526.58563,435.8669,18.77805
-914.9528,577.7092,-15.120081
-1735.333,970.3204,278.26382
-1618.9658,1042.6141,700.91077
-830.25555,768.29626,835.4469
-672.748,529.4231,647.61365
-709.1487,350.31348,391.70728
-750.44165,182.22023,419.18625
-578.1226,135.94717,419.9918
-590.3151,128.68488,396.8651
-810.6031,307.19568,409.3528
-1367.4188,210.63521,274.44415
-1673.4176,317.50632,136.7897
-1365.6951,394.87515,152.8248
-1138.9688,381.0576,191.45735
-1089.4784,318.0376,247.5371
-922.1578,387.53735,255.5348
-728.13446,400.25107,275.61087
-657.39124,377.10318,210.44368
-591.7038,374.09738,168.5526
-572.69885,311.47192,114.13434
-696.62054,348.6267,138.47115
-751.25867,380.72925,126.576035
-878.4694,457.1979,183.1262
-859.7895,446.74197,170.5511
-1417.9791,502.9575,213.6807
-1978.3112,540.9671,403.5599
-1440.9266,447.9674,556.8047
-1282.4712,476.76596,790.4998
-1171.8406,268.7491,662.7189
-795.25916,29.194252,439.14975
-508.42307,39.63172,396.4635
-511.9411,202.5962,443.86993
-491.8064,200.19911,396.4535
-577.78424,145.44785,374.89072
-609.16095,173.50258,351.35922
-828.7939,312.4642,365.30643
-1039.1772,366.40787,373.88525
-1186.5016,369.96667,381.98618
-1517.2235,409.09775,389.0483
-1443.3213,443.63,458.23346
-907.1301,285.8528,317.40335
-811.90936,225.61913,214.6311
-914.15063,204.7009,191.7792
-1046.2941,181.34862,104.932465
-960.88153,245.94527,58.387527
-883.4537,381.35693,120.95479
-757.7821,399.1795,163.61624
-723.3085,385.18198,152.04697
-752.5786,370.4251,178.93018
-783.3731,362.2438,205.40088
-773.56726,352.1768,206.01877
-758.50854,387.6741,195.70975
-758.2516,409.42236,210.60837
-829.99744,457.0312,237.20372
-960.22174,422.50235,244.94522
-1013.07996,389.28378,271.44055
-1134.1519,374.30325,282.49988
-1347.9094,414.00146,308.4901
-1129.1221,359.94785,264.8599
-840.89154,386.02457,273.5161
-837.96454,470.91302,402.1875
-847.1149,423.4539,375.53644
-767.555,371.56766,294.2056
-649.5396,333.78342,324.42688
-636.31384,330.4324,436.55594
-660.02386,367.3622,474.74817
-636.0676,378.64877,461.30832
-689.6963,348.76645,505.6051
-645.0064,163.85973,489.86694
-642.39795,233.44754,423.77298
-573.1713,292.4003,386.01483
-528.9487,295.7812,301.705
-561.2795,304.5044,270.13345
-715.4621,265.5505,288.332
-861.92413,269.36044,291.01694
-1238.4554,306.7184,268.54547
-1411.0,318.4292,258.32468
-1663.2926,301.3051,168.78561
-1616.2651,322.48578,174.34322
-1178.5135,342.9915,276.34995
-870.4959,367.07852,277.95718
-594.2986,345.94305,293.6556
-461.41473,263.98428,242.62361
-395.28763,210.36934,158.85268
-381.2483,211.85048,143.56699
-543.80334,264.47763,137.94235
-644.6544,297.61127,210.30957
-726.2902,325.6496,283.0179
-944.3038,370.14273,357.57794
-1635.4675,493.523,395.2218
-1952.0905,619.5997,663.2868
-1310.3152,528.41516,811.33264
-1064.0864,373.23334,556.12726
-909.3821,226.37605,405.3408
-638.51074,197.77257,279.31213
-387.35147,237.16898,206.91502
-284.26004,377.3249,205.41515
-265.5871,307.49747,292.42255
-335.04337,294.7193,319.85043
-526.16797,366.89786,277.93707
-657.552,347.1349,232.00531
-1045.7935,304.24753,225.42651
-1667.7809,329.1557,278.40436
-1907.0807,368.32675,340.24417
-1749.872,286.64734,280.24847
-1455.746,219.575,265.32925
-1137.4164,316.43353,337.8782
-735.8118,335.57,294.57892
-507.4475,328.075,231.02238
-286.36374,257.4464,177.09622
-223.39096,257.88336,134.5427
-262.81674,223.67079,104.194824
-469.35126,278.83078,141.66028
-563.0176,326.8376,213.5038
-737.10834,350.5342,222.11467
-1248.4933,415.58783,286.5564
-2177.9592,643.493,540.13184
-1758.8701,661.32544,959.7302
-1272.7719,577.1093,839.96747
-1148.8627,324.09787,511.1736
-789.4332,58.186657,309.7846
-440.4251,156.24847,194.60513
-287.41827,358.03192,201.9754
-306.5842,367.40598,234.46059
-366.03705,13.011994,283.21207
-532.92737,268.71042,292.48407
-745.95135,412.69412,267.32092
-784.9552,423.3049,198.44788
-898.4723,269.99597,137.91264
-1170.284,202.49486,199.13493
-1752.2079,255.90157,307.1849
-1786.6035,359.3199,308.97522
-1393.4937,319.29,296.62393
-1124.363,332.43698,317.73184
-981.25757,367.93863,347.82013
-747.305,368.95074,284.90143
-526.9137,284.47525,235.3906
-422.26547,300.30536,177.34966
-445.46457,309.3033,146.16422
-577.1005,353.70978,145.73473
-634.57074,372.74063,164.7573
-500.28796,357.09973,153.92555
-522.5353,314.40063,180.7017
-891.2638,448.92343,156.45868
-2316.0645,913.3393,640.79144
-1716.21,747.4801,1015.43823
-885.48816,404.18152,686.50964
-1198.8365,242.51218,606.8964
-858.77216,-57.53228,335.43747
-381.08417,287.52304,290.38263
-245.41594,-284.0461,281.36523
-249.26132,-180.32863,293.14276
-353.8162,303.37424,254.55348
-798.90607,478.37033,197.71567
-1733.6849,553.8446,26.325808
-1734.8016,428.05313,109.460625
-1259.2957,190.08261,102.55686
-1057.615,96.7732,178.0818
-933.2287,284.01447,282.63367
-777.01166,513.0362,192.1116
-474.5464,453.974,108.61548
-368.2055,359.9365,171.12587
-417.74985,203.55579,113.3629
-878.9611,176.17613,71.77735
-1603.8285,344.40668,230.75545
-1792.131,767.2848,665.1471
-1027.0022,923.7922,735.4134
-749.621,771.5825,579.2401
-781.3404,545.0578,430.8921
-660.4428,205.61365,287.3889
-552.86523,256.7888,323.98572
-531.27606,341.68378,416.10956
-724.5569,378.4847,484.5391
-1235.5369,471.4016,456.65314
-2079.8684,266.6079,374.40106
-2254.9714,310.7967,476.43735
-1638.9534,239.3319,354.61288
-1222.5074,230.65344,240.88422
-1020.0496,253.99742,315.18576
-870.8572,213.14517,290.32083
-623.2078,159.4315,182.64612
-558.0096,153.63326,242.93283
-482.62454,105.73878,254.59013
-542.5287,267.50177,259.55313
-562.30835,429.21793,224.29286
-622.46545,512.63605,211.35045
-680.9768,525.12994,168.05273
-852.3993,585.87885,174.34702
-897.4866,557.32166,176.40547
-1176.7878,566.38354,91.34335
-1371.6276,581.0675,48.235313
-1230.4866,617.24426,126.05812
-1128.1677,492.72366,153.51768
-1085.0603,384.7654,151.421
-983.29767,343.6909,139.71135
-789.20105,336.35278,38.389145
-634.40045,466.8637,37.961994
-585.3597,560.0311,94.98105
-621.0858,545.4574,144.17311
-692.4951,533.4597,273.72906
-653.7752,468.87625,329.3869
-770.2362,488.04416,412.16516
-928.5889,515.5886,462.7137
-1020.65717,505.14062,501.06113
-1056.7327,446.74652,531.9405
-1137.6835,532.0164,541.7313
-1223.7645,553.6868,570.77515
-1031.1919,405.58633,499.6989
-948.2635,301.29376,425.5233
-1100.2982,176.82512,357.57666
-1185.9314,136.48065,276.87662
-1041.6449,134.41838,206.07756
-858.9936,176.1304,182.61058
-778.55945,229.47202,208.03078
-652.87683,203.67958,164.6473
-587.41785,252.94551,116.58127
-552.7384,249.27359,145.52258
-530.39996,239.51233,131.94994
-495.87766,257.08145,129.19263
-529.59894,277.03973,133.45052
-573.1017,334.25558,141.32011
-713.7931,386.82724,195.70068
-851.0883,439.08768,276.78403
-898.9879,416.9212,288.64252
-1200.6287,450.0426,333.68826
-1643.3376,456.94638,416.79507
-1769.514,554.2289,593.1216
-1310.7175,569.8197,669.9071
-1048.6255,517.40314,560.1524
-820.66504,449.5305,499.8166
-543.22656,322.6804,357.26636
-345.0068,317.325,272.7175
-258.48016,302.4416,231.95183
-298.3914,342.65506,266.42123
-474.14844,296.74548,293.80652
-702.6489,311.40842,272.032
-983.7703,256.61447,230.78667
-1336.6095,278.2732,193.0806
-1826.0913,393.48782,289.23474
-1929.2876,436.06784,350.08337
-1528.3787,300.43512,248.20607
-1222.3898,283.62704,380.74106
-836.0868,218.96501,401.4695
-586.0369,304.83304,274.20102
-398.74326,240.64781,174.8251
-302.23984,255.68143,145.00792
-339.13953,193.36456,132.08522
-493.35147,199.55698,123.65756
-538.69293,294.96402,136.42125
-601.3177,336.33466,155.04063
-741.533,381.37936,230.2114
-1112.8785,448.1988,285.5958
-2010.9937,686.1514,509.88947
-1733.256,761.7349,1011.8959
-1238.0604,511.17368,874.43665
-1134.1454,225.57182,561.8347
-783.8344,88.619255,389.24237
-498.2576,272.6695,296.29794
-321.88242,334.8441,303.43387
-308.4779,449.02206,310.0194
-444.70645,264.8532,354.78534
-502.1571,-205.38249,318.94418
-646.4793,260.0937,223.38918
-760.5557,411.44598,186.62671
-1057.042,469.63068,144.06529
-1558.9493,346.72552,146.96974
-1795.2483,270.6585,258.22604
-1735.4994,304.31345,343.0816
-1370.563,304.32626,383.28156
-1109.5063,377.3685,376.6992
-764.3878,322.28607,368.09177
-542.4455,265.05624,305.60455
-298.7502,220.54657,247.77058
-243.39784,231.83633,195.12868
-277.0957,215.24599,195.95354
-483.79358,222.84795,214.91153
-625.29926,225.94885,211.54039
-760.8519,270.18018,183.65866
-936.3022,317.7602,204.24487
-1469.5444,439.06393,293.74612
-2031.6769,753.0135,576.83057
-1409.0913,675.3663,837.53076
-1089.865,514.8582,631.55414
-924.48816,279.68478,457.13083
-604.09784,39.645073,298.95428
-427.53076,229.38985,211.69257
-305.88776,378.75598,211.97105
-350.32364,628.1401,286.15277
-464.68683,-204.69476,350.3757
-598.8137,-306.45328,387.6446
-750.4538,134.65526,349.3235
-1109.1343,459.05804,249.74684
-1495.0599,642.69305,163.8799
-1751.138,418.695,195.62666
-1404.1294,209.60454,206.71999
-1268.6193,171.72778,276.50803
-1057.0834,326.50537,310.35236
-819.6196,449.44025,250.94089
-552.58746,441.56055,195.19249
-372.43158,295.2271,203.26454
-307.11346,214.15376,133.96431
-293.4844,122.7471,99.26114
-431.63647,179.80324,49.352283
-1220.7294,277.19354,220.05775
-1993.96,598.8352,595.3792
-1452.0571,811.2704,892.4393
-813.4807,624.2895,808.46045
-704.85834,126.95419,399.25433
-500.88464,49.908943,255.20346
-403.20007,67.29361,319.97626
-355.97647,-62.773724,327.52182
-483.1579,130.65918,342.6006
-1280.4982,239.96802,313.6923
-2178.592,581.8011,329.10178
-1625.5011,514.80853,186.2972
-1340.1034,332.0666,129.39542
-1126.4203,345.41974,382.76663
-850.577,399.52768,323.81235
-561.9942,432.76825,213.0718
-464.6039,378.0454,181.03351
-373.0222,300.26666,151.14262
-486.233,195.62157,112.172844
-536.63275,171.8872,123.16521
-566.98016,256.33252,170.4606
-575.27814,342.54877,224.08542
-912.69293,390.97174,246.46562
-1571.6384,334.7927,176.61119
-2222.865,532.185,432.04965
-1681.3331,576.94556,890.3672
-1041.5585,516.5302,841.85333
-866.97253,295.5511,597.9258
-595.4533,79.553604,230.32967
-493.66806,211.06013,141.72864
-369.71927,242.00218,182.34508
-429.0138,275.85745,281.4198
-559.15955,348.94995,387.9403
-816.97784,252.47218,448.19507
-1100.0963,517.73425,484.42407
-1391.8617,632.138,525.3071
-1612.7916,555.36005,514.1293
-1568.4391,446.36395,571.4006
-969.21344,112.93813,422.69635
-703.6759,20.864832,225.42963
-861.4073,22.640522,145.1138
-1085.014,84.27159,21.48039
-1164.1613,288.5164,8.870027
-963.93787,429.36865,91.260635
-763.0806,501.419,201.98509
-586.3676,389.29785,203.57915
-578.4836,365.76117,181.25818
-609.77716,375.57922,244.64656
-589.41956,325.298,255.58005
-559.97217,328.36673,262.61377
-651.61847,279.11295,227.02133
-765.4325,287.3583,211.63078
-957.0551,319.92767,250.25922
-1181.9464,372.9311,323.60452
-1229.3024,367.01898,352.60443
-1367.8274,367.33966,327.9421
-1638.1663,312.10275,321.5785
-1222.3008,246.8374,239.82756
-917.232,320.2151,182.16417
-900.05347,383.60944,285.22324
-808.41046,287.3476,230.94893
-530.5813,244.63019,134.33594
-442.35562,252.6568,169.97598
-426.6034,311.95343,230.3876
-516.7755,433.34464,328.13895
-607.7337,451.33664,437.03165
-618.00793,452.32404,563.73895
-556.49835,378.16138,565.64764
-526.4774,234.15681,410.39185
-465.87607,192.79552,270.28662
-622.3745,227.20877,299.00015
-689.9971,247.59169,340.68393
-944.5244,343.7192,356.08255
-1385.5977,503.895,486.62897
-1689.2655,591.0056,532.67096
-1662.7156,502.17188,381.34778
-1380.7009,326.10156,304.8468
-1185.7352,247.17688,326.01254
-848.1439,286.92023,274.40305
-584.8165,322.1527,204.82632
-393.69296,334.42334,166.61601
-287.7936,294.4997,170.92996
-331.51266,251.28203,143.70222
-512.9814,237.30594,128.67593
-657.65594,258.77414,160.24536
-655.4912,270.027,190.9057
-845.91455,356.87097,248.94849
-1239.4572,475.0478,405.39072
-1757.5665,613.6908,589.7273
-1587.1912,642.0824,881.49133
-1207.0143,402.3568,783.7461
-978.14355,183.81088,530.7104
-631.177,159.29094,394.6026
-388.31067,302.0796,283.16586
-297.20352,346.71497,296.87723
-307.48886,302.62772,363.42105
-409.59213,-91.3762,360.04993
-587.71075,-101.76949,262.62952
-682.02454,379.9107,201.1584
-1139.4772,437.10876,161.41223
-1724.5022,478.111,157.48985
-2001.4034,384.89984,211.26913
-1646.111,276.05316,239.31224
-1244.3378,253.9975,248.78485
-893.9972,355.10776,305.23087
-614.90643,342.94403,235.9596
-443.00192,302.88763,173.96193
-325.36166,193.81548,103.66248
-313.8056,195.26872,118.060394
-472.105,72.837814,151.14043
-586.7195,21.702408,147.03539
-652.06134,316.88135,240.82597
-1077.8329,477.1896,303.1294
-1841.4404,648.48376,366.74695
-1848.4441,828.7987,762.9647
-1329.063,618.0738,909.3756
-1038.2067,257.2865,490.19284
-771.62756,81.316895,331.27856
-567.32227,147.22972,180.66719
-367.1035,212.77592,202.10005
-311.64566,416.90933,240.23903
-416.9585,193.69214,319.54065
-592.9843,88.4721,356.29703
-717.10077,353.25906,316.89603
-1187.9388,420.56512,275.7652
-1568.311,339.25336,269.7358
-1938.3835,288.64685,275.27542
-1676.9095,243.01044,275.60486
-1203.1227,233.90599,290.00043
-773.7893,297.7772,301.6888
-514.3464,305.43365,258.6509
-297.89758,277.69788,154.76826
-208.9954,226.93382,99.35477
-222.57437,239.36798,90.230644
-489.50677,328.64038,104.33369
-759.3865,384.1285,191.17836
-907.33844,387.64926,256.29495
-1234.137,357.98245,362.1361
-1959.1447,558.498,602.20935
-1883.3094,757.9331,904.0364
-1216.7937,549.729,823.28
-1085.807,313.7571,616.01544
-802.01984,138.53802,358.59167
-557.4828,169.18509,227.19003
-400.30823,328.915,275.09308
-474.00858,165.86557,327.269
-469.87112,88.964714,314.04126
-580.55945,319.1613,256.4601
-662.47205,331.67917,201.09325
-641.1685,324.001,131.67227
-747.88635,191.86577,139.30144
-1057.723,121.60805,84.13137
-1297.7628,95.544365,43.727642
-1612.1521,459.89783,144.12874
-1343.2883,543.1313,277.7771
-1171.4277,437.512,367.90384
-1120.913,356.09918,470.1943
-961.22217,373.48477,400.40836
-622.7218,224.95386,226.1651
-408.41068,4.9919505,44.402977
-127.19135,184.35709,-48.75143
-407.2743,292.7388,-143.29823
-1050.5748,734.20856,-127.445786
-1938.1447,1340.9719,363.63995
-1366.8401,894.64905,861.5073
-622.24927,500.0315,790.4585
-677.95483,438.92972,411.1485
-728.17584,325.57568,285.63885
-699.7271,506.43903,329.12958
-851.68506,524.8159,437.0504
-1446.5382,227.1107,553.9832
-2015.1057,195.4648,416.4904
-1776.1902,241.83806,378.7803
-1390.1637,171.36977,239.75635
-1373.9752,376.37616,271.29782
-1059.6771,301.98242,309.4059
-735.508,268.053,251.07262
-512.69806,175.08525,231.18327
-473.78064,81.45061,212.1228
-493.3121,215.78218,196.65648
-608.87634,442.98962,163.78802
-692.81146,562.23334,94.65734
-827.44434,594.2043,108.294426
-913.9663,582.1069,167.2059
-1001.09796,536.6189,243.39342
-1134.8354,494.56006,221.46608
-1526.3994,512.24286,182.08606
-1407.4034,474.06415,199.53337
-898.01074,436.27353,221.01024
-900.132,330.87808,212.11867
-1006.28827,295.07193,251.69519
-864.9331,241.00858,184.85707
-609.17236,349.9322,156.21141
-456.0888,431.03897,244.72054
-472.39304,421.11526,297.12094
-598.17163,431.56454,354.8616
-679.7782,420.9633,409.46515
-697.44824,382.35995,465.0582
-699.1976,379.59174,503.82227
-861.19006,404.11853,521.9977
-1073.8737,419.32343,564.63885
-1162.0576,371.81204,545.8854
-1253.4437,466.87354,512.3051
-1434.0912,488.95752,592.56085
-1156.9167,365.5996,499.29538
-708.6017,268.27524,322.39035
-772.27216,274.1567,264.76685
-1006.32166,239.72627,207.86353
-1198.2054,258.62323,150.5134
-1070.8088,247.06155,150.18121
-914.03894,261.03842,158.40164
-711.57404,253.74446,126.36336
-716.2071,287.82697,100.41394
-632.4906,258.2559,98.569824
-586.2938,251.90785,105.92829
-570.98047,274.45148,182.33623
-543.4918,270.8176,194.62451
-498.04208,272.34006,171.4406
-563.7866,300.72043,179.37366
-701.81635,382.96515,219.93692
-865.93994,433.13596,243.22777
-806.6268,400.133,251.23453
-866.8385,383.73032,250.17743
-1283.4657,381.36722,274.3097
-1831.5237,524.6291,261.60632
-1697.4496,711.3266,534.61566
-1167.8953,846.3615,707.8293
-1005.9158,784.36584,647.0074
-820.4342,477.85352,389.5783
-621.71075,329.99515,309.19983
-475.78955,391.14615,346.6979
-454.74466,369.40036,385.47507
-503.32724,380.9172,370.95233
-682.06506,446.82773,327.3484
-738.4054,326.07306,293.02084
-721.3106,278.70035,244.90877
-709.51434,283.1865,211.23529
-910.2777,257.29355,218.0211
-1224.1613,282.70984,252.55911
-1628.7122,421.7287,286.7236
-1700.6001,485.60242,334.9203
-1315.3728,350.4224,292.7811
-1063.1476,293.9457,279.72318
-785.6963,287.33987,281.85446
-603.1265,296.145,209.4367
-402.7119,292.7114,175.72215
-384.1103,341.76422,129.3819
-445.4281,322.83643,99.76154
-673.45325,342.31024,123.36346
-717.7579,374.43668,200.58205
-748.2984,387.4615,280.71927
-903.71375,444.0105,321.9092
-1659.5504,688.3004,454.88916
-1840.3123,718.5701,729.18604
-1270.7501,599.19995,647.0682
-1306.3547,499.23358,577.6339
-1103.2882,249.75609,496.2635
-751.44507,237.77223,338.38742
-493.457,322.53214,263.824
-477.67377,379.00616,243.85466
-469.40717,351.624,276.4526
-538.1968,321.878,290.04724
-620.5648,287.66702,242.37274
-582.8763,225.34842,157.02983
-636.2253,262.83853,211.67944
-816.2616,227.87894,211.10281
-1261.9976,256.14444,202.22252
-1582.6472,335.08304,308.24936
-1812.2578,395.09088,315.67307
-1551.3556,332.96896,328.55267
-1250.0721,374.7743,419.66983
-968.47144,422.10388,384.69577
-687.4113,348.08325,262.34158
-525.14124,238.68385,190.34407
-413.41647,281.48117,152.43245
-362.46533,306.55487,106.70623
-529.5287,371.83,104.41993
-566.2807,475.354,178.49117
-756.8601,480.31796,256.07367
-1155.9208,460.19623,288.89224
-1859.1376,576.37897,366.90015
-1938.2897,992.64935,857.7321
-1267.1154,688.1994,770.5256
-1218.9648,609.68976,541.13666
-999.9384,291.48862,388.26535
-777.8672,101.63291,287.24252
-607.7072,121.180725,300.43088
-502.62592,156.25835,225.89049
-494.84833,260.3717,190.7115
-659.2004,290.55756,130.93756
-636.18005,253.27798,91.9098
-643.17535,220.83597,96.77604
-771.9649,235.38527,152.0001
-1092.1823,320.6617,181.98386
-1463.16,456.00543,219.46489
-1407.1923,401.04498,252.14357
-1294.8757,311.0918,290.30698
-1229.4241,336.3874,377.24283
-1274.956,548.95557,451.30438
-1007.8822,664.8515,344.35693
-752.5659,366.17,223.2415
-743.20764,263.1659,135.55551
-474.51492,244.83247,80.03531
-368.6768,255.7373,-43.21898
-625.41565,404.78934,-219.36128
-1697.7191,866.44403,2.30334
-1793.933,1209.6096,430.32196
-928.6842,680.39606,719.07965
-921.52295,339.67548,909.1835
-876.5172,372.63104,418.5189
-784.8008,154.72368,433.67932
-593.6607,233.0756,487.2342
-644.2029,325.0994,541.4904
-724.07837,342.9314,448.8676
-881.7807,266.3413,296.8247
-1489.3171,492.27933,241.89088
-1708.2045,668.6082,242.71988
-1512.08,459.4018,149.51485
-1222.9489,247.32988,147.6109
-864.21967,252.03206,256.80447
-615.27716,331.2411,269.14453
-485.82004,370.92993,290.00885
-373.10425,339.61185,196.56752
-397.22223,340.17984,93.49687
-487.29285,403.53943,153.26994
-596.48145,396.87408,236.76477
-656.05853,372.8777,179.0715
-744.55585,407.77997,279.3229
-1140.0427,400.01443,264.4625
-2116.0938,584.9454,307.35355
-2091.579,625.17285,601.28107
-1402.8776,395.29828,737.2182
-1206.6621,225.86009,734.0472
-859.70416,163.18669,502.84753
-562.54126,236.3735,352.08182
-236.20103,248.23781,305.50723
-235.88698,395.80212,354.56967
-337.25238,196.34564,406.6262
-543.95026,38.686886,392.20483
-720.9227,298.96997,381.93192
-1001.4825,400.14197,395.17566
-1149.2914,415.86124,384.03143
-1330.6539,366.23788,397.53726
-1502.6792,368.1072,455.3657
-1434.8004,354.82877,507.6142
-965.42255,275.52496,452.52792
-799.82935,129.96666,251.95357
-901.9776,140.33704,139.42111
-1105.628,146.76009,89.60389
-1089.4005,220.51056,38.178776
-1007.39325,408.489,61.509163
-851.7673,461.02887,146.177
-769.5479,449.8564,191.88503
-715.5352,407.69287,155.74149
-666.17426,383.7057,159.77875
-613.65674,341.28647,153.2935
-629.0099,394.98514,149.88191
-650.7595,471.66998,190.55685
-709.8849,517.42523,231.46953
-753.1009,495.17102,246.96588
-876.8621,472.53714,280.11935
-1001.834,434.90613,310.76624
-1091.8195,419.3401,335.19153
-1310.38,477.64542,416.4961
-1215.5215,455.60144,486.25092
-874.273,317.08276,443.19504
-967.98206,247.64241,416.08945
-1078.7473,214.16058,376.1945
-920.00305,184.47893,331.69916
-624.63934,262.68958,305.16776
-491.60266,322.5916,380.0699
-467.16626,366.7637,446.24594
-569.24,375.98547,486.4025
-635.22736,270.36356,481.92334
-670.4001,322.11804,417.96207
-677.7007,361.4062,392.16794
-661.107,345.93866,402.95526
-610.76996,246.45848,366.36557
-589.9781,168.8226,287.18863
-608.5485,204.97336,256.3468
-757.16675,269.34262,267.8114
-762.1565,314.77267,305.6753
-769.1986,361.76163,312.22144
-1184.2423,415.06613,365.07925
-1451.3939,380.79605,356.43924
-1646.4911,342.8825,328.8909
-1659.7733,287.2149,328.8721
-1431.0272,283.72812,323.84988
-1012.7035,302.92996,279.45187
-661.29486,272.23865,258.36002
-467.52225,290.30066,238.10335
-347.6226,325.70926,195.53955
-352.82697,276.60632,156.67743
-468.05527,269.27896,106.25378
-699.198,280.373,149.59224
-690.67816,289.2726,176.09604
-724.179,367.10043,239.55159
-928.45917,434.16806,325.71054
-1403.3318,595.0062,448.69104
-1787.8815,668.9486,679.48364
-1393.2621,489.05444,763.00543
-1293.3649,375.44897,629.15283
-1074.8748,236.11208,499.70895
-674.1626,197.97148,348.0185
-493.85083,302.20938,284.8945
-477.94308,347.48627,280.96973
-394.3717,297.64563,267.62454
-411.2558,302.07758,210.43245
-515.9448,389.49158,186.76892
-668.513,379.85254,186.41302
-744.3633,291.3977,189.1646
-1053.3342,273.51282,213.58418
-1254.0979,262.29358,269.22296
-1664.1282,326.45242,316.32004
-1660.778,385.62094,348.24066
-1399.8165,326.73865,301.95975
-1175.1461,363.5173,384.30225
-880.71796,339.7333,410.94724
-657.16833,355.49756,315.68082
-490.67535,262.84702,228.2303
-436.23868,348.7201,217.5947
-448.94904,359.2918,171.99356
-639.4952,410.29114,186.32141
-706.6286,398.44644,215.08165
-838.84564,478.89557,239.17477
-1146.4733,555.8187,296.1777
-1403.4402,791.7839,443.8698
-1494.449,869.80084,678.23566
-1455.162,542.926,636.2177
-1429.1403,372.9355,554.34674
-1237.6755,287.27325,455.73132
-835.90247,265.28915,371.27917
-694.9852,252.38936,357.73605
-597.67944,192.52147,302.0086
-514.2642,186.13315,217.91666
-590.28876,199.17775,159.6621
-734.9225,211.31917,118.44931
-744.3123,188.51208,112.90057
-816.0422,292.52472,209.0856
-813.62427,360.48602,223.12424
-1152.5955,565.05615,288.07538
-1432.2313,679.73724,415.5315
-1342.8175,508.32065,410.158
-1256.3013,326.3871,364.33057
-1133.2068,303.26053,426.35254
-922.3516,428.3451,382.21198
-692.0359,422.66986,264.4588
-620.2696,425.28867,161.6346
-644.5395,481.5737,172.13156
-721.544,470.686,136.56706
-779.28217,533.557,157.60658
-718.32965,475.8713,151.98357
-866.3123,496.654,134.0226
-1378.1527,652.03357,203.28438
-1730.4208,886.92444,499.43692
-1363.4788,853.6684,753.4179
-1257.5532,672.0929,671.6762
-1199.7185,436.7775,517.3079
-934.2762,178.21062,343.6136
-690.6989,101.66894,295.62418
-580.32635,161.49487,289.0974
-569.30133,140.79102,379.61804
-629.7665,160.19267,349.26257
-657.52124,273.1181,287.90854
-662.30695,291.9732,252.35703
-657.6778,215.85968,164.33427
-835.6205,291.69852,189.47632
-1063.8678,378.9982,299.63968
-1353.3137,533.79596,351.37546
-1305.5748,455.72864,277.77936
-1167.7125,393.17563,239.01895
-1154.1141,419.16782,255.3734
-1174.72,534.4587,302.4351
-893.3192,651.01105,272.75256
-570.0669,496.60394,78.88971
-392.68698,368.7952,20.862343
-279.84323,336.12894,59.6205
-499.1198,381.49792,29.75063
-1184.1425,723.3648,170.37035
-1546.8911,800.5479,441.46036
-1316.605,667.5631,589.72687
-790.32965,561.186,687.8886
-726.6106,424.02332,565.9361
-720.16815,237.19571,426.606
-819.1583,373.70596,485.70612
-1070.5028,326.39517,588.9212
-1899.9525,216.02498,447.9195
-2228.2888,380.4046,598.21295
-1500.8695,191.80334,500.64227
-1206.6627,206.72182,250.52171
-1061.0631,240.34492,287.10556
-857.9461,333.5355,316.5925
-622.3214,241.31262,228.80704
-480.96024,145.7557,170.12479
-447.79468,210.96791,160.44885
-487.68814,368.65527,157.63962
-539.35284,498.94287,152.81311
-650.06934,648.63684,145.45349
-715.9995,657.6624,156.54736
-872.83527,545.98846,190.62282
-953.2519,513.402,231.53711
-1298.7296,545.5035,237.43925
-1549.8295,593.804,267.176
-1207.6935,529.85205,265.6994
-977.1611,258.2927,169.61719
-1083.0297,152.94957,196.94727
-951.50916,195.2306,135.52065
-749.01807,362.8098,63.540688
-538.30725,529.48846,127.043495
-473.27026,518.9928,176.17574
-520.5799,480.75784,263.13193
-655.1787,426.87207,360.96948
-654.3466,385.7154,394.8755
-718.5217,410.84854,492.70575
-806.63983,399.2486,512.42615
-981.4956,428.6782,531.5052
-1099.3397,425.46423,571.95374
-1155.3444,396.41534,580.8193
-1234.0151,442.41266,625.98114
-1366.722,432.9491,669.7119
-1144.9644,281.9692,500.82773
-869.00464,209.82161,317.59106
-843.9364,201.58018,254.8003
-1053.9913,204.23308,170.8105
-1188.654,207.42181,86.7027
-1065.8053,240.25082,59.736397
-930.58563,276.24106,87.972046
-790.47833,275.88168,95.31028
-703.4753,290.11838,80.92106
-603.73456,269.2162,74.96524
-578.35223,269.26733,111.20759
-559.50287,295.29214,166.14188
-561.31165,314.1196,178.08473
-552.5895,293.45462,180.88777
-567.981,296.1997,185.4091
-651.0912,348.34192,215.16994
-810.57416,383.3918,223.85205
-896.90765,420.02747,213.29892
-934.3449,411.3445,235.9463
-1118.5511,452.39328,223.44383
-1708.6396,690.4849,327.13895
-1737.9127,775.35767,621.5761
-1249.9341,696.0083,666.73114
-1068.0183,540.791,628.0077
-796.93286,310.48785,552.5448
-534.299,286.02997,354.89172
-312.55887,364.15616,315.5407
-271.58826,354.21802,366.30014
-309.04324,361.49658,391.82483
-433.8538,110.42632,373.8428
-704.7536,256.01813,371.71085
-993.5762,369.9596,332.78757
-1559.872,386.08478,306.7386
-1765.8646,342.56653,330.6341
-1887.612,258.504,219.86937
-1636.1069,229.57382,267.66776
-942.8267,214.00955,288.56924
-604.6305,263.2424,189.70421
-396.3043,269.001,190.47556
-371.2432,263.60028,154.2924
-418.46582,261.25125,117.8822
-452.12222,265.28537,90.61308
-534.9537,272.9455,129.54602
-615.749,300.2866,128.60039
-633.2469,346.87637,198.53464
-771.2681,386.35678,294.98978
-1055.391,453.68405,385.76083
-1529.0724,513.8983,542.67334
-1875.4044,581.08203,763.10944
-1483.8969,470.92368,782.7373
-1140.4498,347.45392,582.6998
-898.4064,219.35776,423.33606
-570.1884,218.70367,318.82266
-403.16992,328.04584,227.54585
-317.60666,448.7898,287.87463
-362.3868,357.78412,339.774
-350.22748,67.8355,324.52972
-587.4814,242.86218,291.75446
-829.53705,390.03223,254.03656
-1184.8798,335.31473,191.451
-1581.5652,217.8864,210.8412
-1881.361,231.7084,267.82956
-1711.7522,275.9965,251.0102
-1226.8142,308.68127,233.03696
-947.6195,347.4809,291.48135
-746.71936,372.28186,222.17793
-537.52106,303.9662,160.41771
-389.7768,239.73792,131.81139
-301.68408,294.3785,148.82559
-366.61676,291.0846,101.53639
-568.0483,339.566,158.9561
-654.8363,339.46463,252.7567
-956.74536,382.0468,292.14874
-1357.2964,456.38208,368.92398
-1803.4773,678.9358,683.66705
-1630.683,677.39575,942.82666
-1293.627,359.37976,670.0623
-1211.8157,280.59024,499.6381
-838.2637,153.31236,400.60162
-548.9687,207.10915,320.24295
-412.32904,297.53555,295.24408
-388.00317,292.08932,275.82306
-364.22284,283.64014,198.54776
-465.32532,329.65762,157.62444
-514.79456,261.12186,137.61147
-695.8827,272.60413,142.68448
-960.9716,334.0901,160.47218
-1470.0151,426.97873,237.49898
-1748.5602,454.99493,305.16452
-1608.1333,353.459,294.60532
-1365.5477,271.6468,301.3652
-1159.2249,347.97064,361.53796
-940.93945,453.8374,344.20837
-644.6003,407.6621,268.30624
-469.80142,286.0638,201.60605
-375.9693,321.85474,156.99579
-398.43484,303.3131,153.78392
-553.55664,391.89954,179.61658
-567.9329,383.5606,204.71251
-771.39886,363.66653,213.59944
-1480.3716,419.64996,314.19803
-1908.7258,646.90753,541.84546
-1434.6095,852.992,916.2865
-1118.9127,569.99835,817.9623
-1151.744,539.15564,628.3603
-859.3989,164.41919,444.57446
-573.92865,96.55322,321.26718
-581.7932,252.28578,348.57535
-609.20337,283.08054,353.1526
-575.5781,359.76187,282.888
-726.18365,375.36816,228.95059
-744.1181,298.83093,203.53534
-622.08386,199.15556,186.1004
-697.0844,261.30554,264.4899
-938.8501,394.58914,335.2923
-1272.0774,605.25476,380.0899
-1302.2786,633.04535,388.90857
-1127.9092,466.19696,349.737
-1028.418,448.77792,422.91867
-1089.5981,617.1179,446.02124
-945.252,711.49,326.37912
-726.38696,508.71838,209.98193
-602.48535,338.56488,170.4812
-624.559,347.86563,179.98718
-662.78265,422.3621,137.77638
-754.14404,550.6478,145.71677
-766.15674,563.6248,134.46043
-745.0581,503.19107,201.17657
-1080.4725,477.658,251.7543
-1547.9681,613.82104,441.15762
-1678.2595,612.8924,757.793
-1607.7246,471.2111,898.9906
-1343.8593,202.73442,802.29346
-893.88904,-71.98961,617.68036
-552.1639,-8.259661,498.6067
-408.598,255.51999,571.9279
-352.45013,-37.504654,510.08075
-412.2348,137.55313,401.72812
-587.4124,344.25394,435.48184
-713.52277,426.65933,430.54666
-866.34814,468.71448,410.74475
-977.73804,379.1698,455.47504
-1011.28375,346.1472,420.44348
-1080.6842,366.73703,372.75964
-1180.2235,405.39532,399.38657
-1122.2393,529.5915,408.0555
-992.6705,454.56845,309.83823
-948.29706,304.50748,242.89642
-1143.3112,239.56161,223.90378
-1170.7971,173.18707,102.764946
-1055.2698,272.40088,57.91522
-957.1884,364.23172,72.565125
-833.1949,459.8212,107.81635
-775.1299,469.23218,122.144844
-723.0464,443.1162,145.56657
-638.87555,410.91434,199.9499
-573.04297,409.6047,239.01582
-545.9079,443.72766,229.70204
-594.33154,502.87344,284.03925
-687.1173,521.257,339.72748
-834.5281,476.5972,378.14417
-962.9732,390.56836,378.61566
-1041.265,327.24396,435.5859
-1197.2072,295.29468,414.79807
-1452.7817,382.1179,436.75897
-1224.435,334.84457,450.37527
-881.4624,257.5223,348.26483
-924.7454,256.88098,360.5571
-930.6939,215.09749,339.03278
-715.56915,272.42776,246.91731
-505.9751,328.2421,260.65726
-464.98755,370.40875,298.7891
-514.9676,391.78067,395.8355
-561.8804,373.53595,426.71365
-546.11584,395.60056,401.83853
-564.7715,325.7762,382.15933
-549.9427,272.86584,368.86218
-527.7867,198.05042,276.37436
-585.6477,236.7561,264.47266
-693.9584,265.60678,295.01572
-828.87964,304.40616,339.27737
-1112.3976,350.3425,352.02493
-1484.4585,398.795,434.60266
-1544.9454,376.82242,415.43362
-1874.2792,393.61282,373.909
-1491.1526,267.396,369.0236
-889.758,228.64786,273.10547
-534.5153,144.52629,245.71346
-346.15186,134.43608,184.55386
-353.36145,218.54817,130.78769
-402.1439,288.36917,58.54535
-418.70352,314.96124,50.480156
-584.94965,314.23596,69.21689
-632.52985,393.49945,165.16293
-675.78925,452.6407,266.41653
-1117.3273,621.0694,426.2399
-1571.0449,711.3369,550.15717
-1808.0502,538.4628,691.88367
-1538.5448,461.64868,778.80865
-1240.5216,326.12708,647.65454
-929.78735,264.37595,501.28888
-603.7864,316.4654,360.59946
-505.1999,343.25565,301.19647
-396.64844,289.4058,196.97983
-357.468,276.4051,138.10661
-451.9148,301.3705,157.29666
-624.33746,322.6608,189.012
-668.89453,314.14548,212.87529
-902.9308,347.68604,293.01712
-1087.0901,371.21375,335.12897
-1382.3257,404.56848,371.22098
-1549.7599,395.93268,330.7209
-1456.7471,419.5046,310.88937
-1302.4183,476.76932,349.45218
-1117.9434,512.78906,404.40717
-836.979,525.77264,325.27048
-596.22675,377.2981,268.51816
-513.0901,279.1258,195.34537
-533.6629,373.9689,157.25142
-627.0725,421.95456,175.6519
-668.4915,534.756,229.05376
-589.29205,475.84418,238.51364
-814.30804,503.24963,328.3174
-1183.124,433.1287,474.9156
-1718.5575,499.3467,443.98752
-1573.9268,904.8886,786.5775
-1258.7826,668.7262,775.4799
-1244.8098,566.111,423.54626
-1136.6437,490.3397,403.26337
-1067.5896,64.22267,376.13232
-760.509,6.9443026,199.348
-617.11505,166.4398,194.81561
-582.2902,204.27835,236.78287
-568.0696,227.46838,191.5923
-491.80676,248.33952,174.99806
-503.18796,283.84912,167.1155
-624.819,414.06113,244.22156
-823.4608,564.121,295.18448
-1075.969,721.6043,369.93817
-1179.3279,687.3633,432.81345
-1126.3041,439.93387,421.57562
-1144.7637,364.4667,401.11798
-1187.7799,423.553,441.2961
-1180.2432,696.2699,458.62943
-842.1947,726.62305,423.73984
-570.8565,422.06027,249.35953
-557.9697,338.92923,232.18727
-652.48047,327.32355,246.15155
-666.34125,447.86295,267.23853
-772.0433,564.07764,185.43037
-996.0701,675.98376,250.7524
-1356.5544,627.78937,309.637
-1824.0405,830.3447,595.5861
-1516.0123,635.61707,752.8925
-1331.3832,456.90472,543.1555
-1249.653,355.51898,440.28668
-912.44604,217.91422,219.23415
-809.6885,217.76263,225.3784
-662.94556,96.45335,223.136
-665.67017,197.94637,222.7244
-685.7109,198.35596,229.02855
-668.8947,229.77345,204.37198
-608.29626,254.41837,213.69539
-674.737,385.24976,281.52765
-782.6035,501.92004,340.46423
-939.384,561.39374,346.7203
-1192.2247,734.74384,443.83206
-1198.0536,561.53345,473.41254
-1096.72,444.60092,391.52945
-1089.6389,416.978,370.64865
-1007.535,563.7429,330.6801
-876.30414,710.4291,293.5741
-685.6928,528.6544,225.06389
-668.08997,345.42438,206.28383
-777.5992,360.00937,138.92659
-843.2424,393.23547,111.74096
-739.1171,475.3006,64.651825
-845.487,614.68945,72.69112
-1077.0436,674.2618,217.3556
-1355.5609,763.44836,379.565
-1635.0623,899.64795,809.5069
-1288.3302,744.7755,662.70215
-1211.7557,434.53326,367.08365
-1051.7656,215.6693,450.3616
-765.6918,137.48904,362.51035
-639.63293,227.30551,312.95587
-645.2322,278.80316,296.2174
-665.22186,274.92804,242.31633
-791.39325,244.7507,200.45847
-732.33655,165.07225,117.18063
-687.2511,241.61554,167.55365
-831.6647,312.54706,277.95203
-1078.0702,419.0537,275.1332
-1415.7994,514.8619,369.2265
-1400.8013,483.5995,384.92996
-1269.257,397.91943,315.6696
-1232.1433,464.0997,352.5876
-1080.0851,588.6771,452.54047
-809.869,581.56866,357.139
-568.86566,379.90762,264.53348
-514.61053,326.16217,243.295
-555.338,431.2518,174.8082
-715.8143,521.1501,177.23607
-797.20905,425.1739,192.97778
-943.4804,352.72983,203.13986
-1203.6849,413.2572,219.41241
-1679.0411,726.4416,432.8931
-1561.6285,855.2695,869.0461
-1203.6986,735.2204,745.7907
-1199.4125,479.6573,629.5526
-883.9541,34.78535,447.99063
-760.76776,142.93718,412.58612
-641.83356,171.561,338.69415
-556.6792,233.76305,258.62152
-616.7811,243.49055,212.31898
-571.79083,220.9797,125.01861
-609.76184,119.21478,108.76478
-467.02585,218.37274,135.53354
-650.1451,376.8671,294.39786
-1185.9427,494.75684,272.23798
-1556.677,643.1439,300.9816
-1579.2434,366.8102,329.7622
-1320.002,336.72345,316.75113
-1214.5063,601.83936,366.1955
-963.33405,792.46173,435.536
-697.4041,569.02435,310.73138
-560.49066,372.3305,212.01491
-588.9627,289.63998,202.38046
-654.5201,289.97357,168.98164
-842.1982,370.9701,94.75194
-678.5539,463.90558,87.36251
-402.72397,384.3402,144.07483
-458.49362,345.7198,106.653
-1041.1384,605.6293,165.78207
-1890.7688,949.0032,620.51636
-1548.6785,645.0442,861.87317
-902.7682,361.02448,739.6693
-957.696,238.52304,567.8177
-736.51746,48.492664,470.42432
-373.07172,181.27739,420.7667
-301.37228,294.37762,420.76917
-466.3592,312.8077,385.98798
-781.82117,281.2678,290.49722
-1610.385,392.99124,183.98627
-1884.0792,482.39194,272.42102
-1502.7373,415.2715,224.47975
-1078.5359,234.07158,210.45845
-863.55365,238.15724,321.21503
-653.3577,320.80887,216.72119
-398.8659,294.4974,131.32805
-356.04266,313.66986,124.00302
-503.44388,366.92294,115.67495
-459.72812,294.065,179.0778
-590.24945,368.56503,200.73372
-892.7349,544.71027,311.50113
-1491.372,826.801,511.6126
-1718.8953,872.3524,834.15967
-1274.9,618.8461,843.48035
-1166.4337,416.40018,633.329
-870.3673,224.05904,548.8953
-548.62537,249.562,413.36954
-381.36218,408.53513,351.94482
-298.0123,477.38156,306.32263
-278.6487,450.96118,296.98523
-397.4555,417.14496,274.17227
-683.34814,337.31387,291.90173
-850.05585,274.95123,290.13504
-964.7601,280.67,333.3127
-1410.1577,308.3117,346.4384
-1812.9176,384.88324,473.2835
-1880.8611,397.384,566.157
-1562.7904,97.49058,334.31833
-1257.4186,110.34556,281.5478
-911.12085,210.83118,344.48117
-646.9296,293.24652,343.02832
-519.2565,406.4848,288.2417
-460.01404,387.23135,286.031
-508.4137,332.32532,293.53348
-654.98773,348.67426,285.60193
-782.0131,431.8955,313.7279
-835.9326,470.6264,335.46936
-821.081,429.20428,318.7032
-870.39484,392.17874,314.92322
-911.01117,391.02283,322.5518
-924.5563,405.81082,362.754
-974.99347,383.9462,346.73026
-1156.3206,400.69934,385.5483
-1129.8778,323.51398,390.045
-951.27515,277.3561,281.36285
-1125.4001,219.98418,245.75836
-1247.7726,260.15686,259.26663
-1036.8932,295.60583,211.76231
-706.28094,313.90884,129.49881
-495.18506,340.88733,114.59241
-443.3218,379.83466,105.12547
-496.50464,407.7302,112.64717
-574.9244,392.3248,136.54987
-613.43774,388.3245,165.6482
-819.5417,477.3901,249.56322
-1063.6112,600.45013,393.893
-1173.2764,618.4266,461.98944
-1314.9574,559.91473,534.9743
-1314.0221,543.8334,602.58826
-1301.011,632.98285,618.6187
-1101.6246,518.95197,622.0055
-836.5337,293.93692,515.607
-810.8518,309.71548,403.78412
-924.257,250.85767,360.0707
-1044.5784,240.09526,335.3135
-1015.61804,274.16275,312.74228
-841.975,287.43954,269.64093
-732.76117,323.3194,247.2787
-663.10693,350.71558,210.86406
-603.66626,308.93872,170.42871
-562.19574,265.69803,182.05206
-509.4693,250.55453,196.66678
-636.7622,346.1976,229.8842
-745.33276,387.5977,339.54327
-880.0567,405.00494,412.16446
-1132.2512,347.3594,385.14145
-1277.4624,344.34476,513.6133
-1247.4536,423.63293,643.11554
-1164.3069,426.50372,547.4501
-1084.6887,249.55101,366.79916
-994.74097,221.79141,297.52243
-818.2162,254.37154,263.777
-654.145,362.17654,174.44028
-534.9119,513.5131,137.88809
-493.3863,592.84937,167.19897
-499.26456,571.17413,245.41531
-577.63556,508.96826,315.52533
-715.2725,520.9051,408.22147
-965.6003,523.8506,526.84265
-1091.835,402.08514,508.2201
-1202.9509,290.4192,457.6231
-1381.2506,309.73935,531.0239
-1345.0206,350.55978,526.1343
-1232.3596,352.67178,384.34042
-1232.6553,340.888,277.40042
-1343.7926,151.17917,208.03166
-1195.7595,83.16095,36.85203
-895.2394,107.83183,-46.318935
-748.426,115.11409,-29.11579
-659.5677,186.77281,-26.192072
-631.18353,213.74611,-41.15397
-606.4952,213.02255,-39.399273
-584.7951,201.84613,8.117369
-607.67096,216.70752,109.01068
-588.81036,194.4499,138.8884
-566.67944,194.24753,161.06033
-627.1588,231.94928,297.85745
-689.94946,297.6587,341.33154
-830.7035,428.0608,299.4133
-1602.5112,638.45404,459.80728
-2127.3826,905.0085,790.2707
-1576.5681,700.077,715.1946
-1225.9725,373.2697,561.2305
-926.22424,224.73808,460.91867
-629.16455,239.70071,294.29346
-397.43423,403.372,241.25606
-244.3811,546.0732,236.03447
-243.98396,489.41626,275.91696
-404.7026,406.4604,337.45285
-641.08276,339.0784,359.66776
-836.2246,254.78546,266.65704
-1139.3676,217.47829,216.15192
-1486.0746,210.90761,263.4031
-1634.9183,266.75623,350.7441
-1792.1658,302.21198,296.08606
-1471.5144,294.3385,297.3076
-1044.5916,272.35822,300.6246
-646.2262,217.99161,260.61703
-400.0531,201.2936,222.42049
-314.18262,198.50694,193.06926
-384.37552,234.25508,133.71922
-408.3517,289.60114,123.84992
-544.1927,286.69043,128.96706
-688.05945,305.9406,173.91693
-736.2619,338.27185,239.60332
-903.6849,413.41974,304.13974
-1409.6962,572.77,397.7371
-1720.4504,683.1946,638.79486
-1611.1692,655.09595,797.32935
-1447.6346,449.6808,621.8251
-1060.4308,94.96832,437.1972
-751.8346,163.00859,397.20004
-561.9099,305.80106,345.41904
-461.60083,462.48468,297.52438
-389.8498,413.66928,282.51883
-432.41385,308.4289,239.58594
-606.43823,280.36566,222.23183
-706.72217,214.7379,178.96107
-877.9799,220.7099,181.24503
-1220.5538,255.86472,230.31535
-1515.6926,343.60974,297.45798
-1852.0675,463.795,308.68713
-1535.7003,398.48737,345.65237
-988.78345,323.85004,391.28616
-656.1997,249.7829,362.15213
-553.5122,210.46655,253.37755
-571.1041,257.3384,191.51714
-593.5489,268.697,163.55275
-621.7164,344.1851,141.1525
-670.205,361.56097,74.11068
-718.6093,454.325,135.6729
-697.20917,476.95657,193.53456
-811.9126,574.9106,315.2173
-1180.2301,707.2986,410.21973
-1873.7808,866.6514,793.9655
-1560.5864,569.4713,812.1246
-1193.0703,240.92,479.3966
-1018.5293,152.4525,520.08813
-673.69977,221.76538,416.4242
-515.38416,327.5326,361.45007
-501.87125,325.80728,304.12103
-570.5645,289.74423,281.13834
-705.9073,260.57227,210.96889
-746.26447,226.43044,171.4559
-875.97687,221.42645,148.81299
-1172.4191,256.07324,192.1945
-1305.9884,312.69742,190.14569
-1659.003,459.4669,235.1469
-1591.9027,391.07895,303.17056
-1098.8739,361.85037,358.73428
-745.1688,290.35077,355.75952
-621.6641,281.2949,260.9813
-687.3159,311.456,180.673
-829.73193,266.5696,159.49303
-882.0743,340.78284,120.47075
-939.43005,314.21997,15.775186
-946.9768,436.06943,-24.899714
-757.8528,569.3881,65.87394
-435.74164,498.77933,96.204025
-364.94318,466.79395,17.542074
-876.8967,720.8902,222.41455
-1601.9453,866.46313,611.4276
-1671.1637,827.81964,835.612
-1094.4087,331.06143,748.3489
-1025.3141,-7.053875,579.3502
-768.2629,122.69344,470.2461
-486.25146,294.29272,392.03693
-347.7828,148.67493,320.67856
-438.88416,260.17255,318.1276
-708.05664,278.73685,351.8541
-1384.5698,450.7487,292.83496
-1658.1582,621.07587,195.89215
-1509.2804,501.7918,146.4541
-1123.0063,158.63058,208.03456
-862.57825,146.72752,368.98416
-701.8015,278.43732,385.31964
-581.39496,408.72424,204.18945
-507.709,447.25745,124.32742
-599.17426,397.65402,87.340004
-589.618,296.0178,104.981544
-730.45605,335.40656,140.48811
-767.916,390.45422,214.50816
-1894.221,497.95923,176.96417
-2152.7795,714.6439,437.77115
-1404.0203,571.8441,632.2749
-1415.9956,299.73557,883.7566
-984.3667,114.16666,557.3335
-675.41437,185.91309,171.6261
-337.54172,355.98013,218.07858
-258.32916,346.66873,240.50822
-399.94562,553.4431,387.97583
-640.07904,-232.14099,425.96942
-712.69354,-228.91817,490.5335
-974.4873,443.07376,475.35464
-1188.6072,598.84827,468.33307
-1161.4702,522.0481,351.80237
-1287.2228,225.28853,317.022
-1476.686,143.88834,446.8106
-1133.114,223.55235,373.60406
-793.3451,260.093,177.48872
-925.40234,235.59358,138.42924
-1149.7288,248.04153,81.63958
-1114.5958,239.85652,47.902714
-925.6724,346.845,80.387405
-837.0701,405.178,180.65468
-760.0231,380.34622,177.61325
-706.73694,304.85648,109.15387
-683.1493,276.81946,117.29096
-665.07465,287.41357,142.464
-694.47455,360.90027,132.61337
-810.0693,396.21466,122.03247
-916.0733,406.77118,153.88586
-1022.2001,379.14444,180.13881
-1204.304,427.8795,216.60365
-1483.517,469.4593,285.93057
-1230.1298,477.48392,413.33942
-791.0236,328.43835,364.60397
-830.479,342.7201,388.21805
-920.61774,291.33212,367.575
-952.482,330.17218,308.10123
-687.8342,369.88416,327.9921
-520.8294,376.91312,427.2937
-432.52682,338.07477,530.3349
-456.52127,418.4168,561.425
-434.93253,334.47784,475.9751
-460.5159,172.83871,394.90723
-521.3984,222.97562,397.36536
-602.85675,266.27698,389.6481
-676.9881,290.84653,306.2218
-730.0258,275.45566,335.10297
-822.63745,273.82385,321.38068
-1299.5022,401.85458,396.64566
-1429.901,399.65543,408.72452
-1775.2975,343.19128,326.01688
-1637.3945,268.23645,293.909
-1319.5042,283.095,315.53433
-853.187,287.3996,297.4446
-521.30347,247.52278,243.82762
-328.65085,204.45499,230.64748
-278.61438,105.70865,154.5095
-306.80453,151.80948,72.582184
-343.67123,257.55093,71.379684
-599.0452,366.94028,121.18018
-806.9829,423.36343,220.56839
-1123.402,530.3892,318.38895
-1911.1892,874.1757,651.46
-1832.1821,841.76056,975.92993
-1365.8608,375.99066,613.5513
-1086.3036,-45.90035,451.18222
-735.30975,-17.912697,305.45468
-499.81104,286.11615,230.2672
-357.64642,390.47003,274.02142
-376.05655,427.3129,325.07755
-437.76822,331.01517,354.8044
-545.28656,315.90283,363.9426
-660.9409,313.39145,353.2829
-799.73706,311.84958,267.1162
-1053.2904,256.37796,228.24492
-1412.7665,209.67055,281.30838
-1783.9803,256.92105,351.11688
-1640.5148,280.98825,303.25146
-1273.896,291.08356,270.73663
-863.98987,359.52808,318.4774
-639.8373,394.25443,295.9595
-463.8284,455.91476,224.49823
-313.72424,356.03973,190.3225
-340.28568,384.0326,153.31229
-618.30585,419.45486,208.84909
-823.37195,321.96417,214.49118
-840.8386,295.25195,162.23763
-1013.60187,418.34314,232.85866
-1366.6155,590.712,318.9237
-1708.4093,854.1486,615.2941
-1312.7234,658.0742,820.0197
-1165.6511,523.16174,663.0751
-1080.1005,211.24036,588.62836
-737.79193,189.82672,469.69058
-406.936,214.59941,341.8985
-390.54663,398.0871,358.98352
-458.69046,156.09792,390.9726
-549.2258,-94.43567,375.79025
-695.01746,312.66232,264.3698
-853.29443,311.8849,188.27255
-862.4578,293.2515,144.8514
-1025.2125,178.3516,108.87839
-1189.0369,273.3505,238.43263
-1315.649,421.04465,310.42618
-1606.8298,612.2325,330.58606
-1375.3046,541.99445,411.19553
-920.28033,393.4546,423.39874
-637.9563,231.38113,389.95563
-546.54553,239.71657,319.87326
-537.81195,255.33592,248.43857
-556.5158,298.95303,211.49785
-608.8164,362.23178,249.07484
-652.75415,365.03397,202.65125
-553.7724,406.87985,274.54364
-488.4411,401.48065,265.71115
-611.79443,533.0179,184.12904
-1045.1565,705.628,424.49423
-1633.8627,769.384,731.8157
-1367.1631,718.2533,864.1516
-857.4383,439.54147,616.2569
-541.7943,292.7005,507.5171
-357.03287,155.66275,548.57587
-190.03815,265.78577,343.23676
-257.00345,450.4283,178.09111
-639.1276,579.4071,157.8007
-1298.9956,872.3357,249.94691
-1499.7231,1129.2267,320.25842
-1282.7133,857.86053,189.89665
-924.39984,659.9525,187.26057
-670.3186,865.37976,208.49344
-444.89352,764.4862,178.66756
-353.0795,741.3642,234.0063
-303.37637,781.36743,318.76624
-228.09813,644.48785,235.77731
-332.4221,729.3105,166.8438
-445.49677,897.2334,193.41734
-628.3396,1015.95087,295.6559
-830.1191,1192.0308,282.69855
