# PAMAP2 dataset (wrist-mounted sensor)

acc_x[mg],acc_y[mg],acc_z[mg]
-553.1538,629.05414,301.4581
-585.58246,561.2715,320.56607
-660.75824,434.88724,301.42847
-686.6024,459.07114,231.52481
-703.7339,396.5828,166.23201
-846.8868,512.1982,186.8978
-1100.7634,488.22476,197.01633
-1312.7317,484.55972,249.13757
-1425.0074,469.2123,390.29694
-1552.8966,655.22833,459.16803
-1383.8035,577.1669,409.65045
-1191.504,623.81384,467.30334
-1185.5021,572.178,482.27127
-1107.5598,541.242,328.30203
-1126.5624,478.0305,260.5006
-1025.9602,478.24948,248.08534
-774.3346,266.38556,183.12581
-630.05383,444.51492,312.93262
-502.18726,379.09634,243.18384
-314.0956,504.37192,360.9535
-186.47614,156.23901,191.87393
-74.87815,435.7489,325.06247
-166.04433,-350.01736,-16.854242
-260.18726,846.85803,682.7152
-224.40347,2051.8967,1015.77277
-617.2876,262.19962,118.894455
-779.8022,1054.7151,518.88086
-535.01056,557.82007,269.83185
-463.6473,807.25555,344.65442
-401.0159,675.04126,266.83597
-371.33575,821.7101,271.026
-407.17773,628.2254,228.02228
-478.60825,761.1902,282.44363
-544.98114,657.4394,200.84091
-642.2652,810.23676,265.68393
-733.2307,589.6367,209.18579
-955.9628,877.95435,317.25232
-1158.2596,663.19763,226.47435
-1523.6085,917.26215,365.25488
-1581.156,-117.68041,551.8777
-1318.6909,704.0648,366.80966
-1058.8239,1067.231,391.64917
-931.837,599.09015,360.79825
-791.6445,645.3229,175.10133
-723.9814,806.39594,313.00134
-639.7575,611.16486,238.69278
-428.87863,563.3618,153.4497
-460.7229,577.00275,215.68839
-383.45166,552.90204,179.19542
-436.39703,592.3306,107.71675
-523.228,509.53592,104.06384
-488.43744,506.33032,23.166588
-544.35376,163.39592,-35.63244
-495.2046,284.03534,155.29756
-783.79926,2104.5767,720.66223
-448.09918,694.568,339.102
-672.61725,982.26154,408.49298
-389.6372,713.56793,265.29953
-506.49414,787.93726,392.33878
-415.50592,592.6233,196.35695
-472.0754,602.19666,258.92624
-515.5746,665.8632,176.96896
-615.7257,692.4148,221.40448
-609.3798,768.0666,61.723064
-856.65356,914.42834,201.14554
-1036.0808,759.7502,194.41049
-1087.6248,480.56375,350.5105
-938.0923,677.4632,262.4045
-977.2001,1658.7042,358.7308
-929.96436,1359.2734,336.5298
-894.47437,1132.617,341.57376
-793.14197,982.9079,310.3591
-802.0494,922.85345,263.9596
-671.0115,635.8679,217.69
-580.94403,501.42783,179.8577
-413.45047,287.1574,83.96222
-376.74634,332.84955,86.1288
-446.74542,416.23837,71.83362
-473.97028,464.60608,47.611824
-599.03516,370.30066,1.3807032
-587.8502,234.67262,-61.231018
-774.2875,481.86285,133.38571
-870.1833,1962.3859,533.4314
-545.9451,873.0169,287.02548
-1109.9971,923.1343,388.2892
-1039.0546,505.5909,199.2773
-1044.5953,423.61285,240.96855
-726.0488,538.61584,280.77557
-631.0134,591.8643,382.67035
-570.1537,370.51797,336.50064
-644.61426,405.73227,277.02878
-658.0674,382.36688,194.0292
-729.5258,323.01324,102.12468
-945.8149,255.01122,133.83186
-1369.1835,667.3374,335.20212
-1317.7148,604.8101,239.73398
-1418.3188,814.5633,332.37454
-1190.4878,821.70404,345.20447
-1263.9734,734.0423,367.8046
-1245.1104,738.33,343.29175
-1292.794,750.37244,326.10257
-1183.3142,729.80786,246.03195
-1049.1707,595.1687,141.60342
-793.1392,400.2924,64.08975
-781.1631,464.11606,128.73091
-608.33093,282.33514,110.199684
-506.37878,295.1874,84.0973
-373.50995,224.93121,79.28281
-417.76624,276.55045,71.44133
-348.88757,-1.8448675,37.675007
-809.9183,84.095634,74.33389
-439.7435,2270.1133,1051.2931
-402.4556,946.20935,458.5983
-883.05334,770.4385,441.6411
-856.6687,840.83954,402.8555
-787.0659,460.60083,280.8935
-622.8914,763.21747,291.05792
-442.89056,637.0794,222.80034
-470.52817,646.59973,322.1624
-514.88995,474.16785,255.5763
-521.27496,606.2201,288.1062
-612.81525,486.99722,290.32913
-835.3392,535.587,279.88007
-1039.1786,562.8203,210.95119
-1292.2736,465.6714,300.90955
-1658.6624,160.74966,449.11407
-1628.1414,676.9851,386.2098
-1391.0812,651.69275,325.20496
-1116.9232,704.6263,454.46478
-1078.6165,606.11743,252.33452
-1031.3284,689.4941,264.14832
-925.271,449.2903,78.42456
-805.2352,771.80054,97.693665
-654.36206,571.82904,127.164246
-587.5271,649.66016,137.8991
-447.292,376.4191,34.735733
-445.37155,645.8945,79.79348
-392.1724,324.41098,-73.164635
-429.59357,365.8397,-17.762465
-518.50507,23.976313,-59.39882
-539.3009,1620.7092,244.82794
-534.6945,1355.9673,219.91272
-569.11487,743.2969,207.14973
-676.61316,1116.0535,260.28934
-574.29565,605.7495,290.58148
-536.2678,795.6331,271.1067
-470.616,716.3131,219.09534
-524.5975,678.09735,252.77658
-564.79724,540.19476,285.30118
-625.2008,612.12244,253.73123
-565.69977,598.7768,164.65694
-696.9934,772.1497,121.39139
-876.93634,801.9163,167.2807
-1008.7494,683.27893,182.62187
-1141.2686,579.747,270.2672
-1202.4495,980.52576,309.53104
-1070.4172,1173.6273,369.64282
-930.06305,1130.0981,302.07083
-923.62695,1088.1748,283.66977
-914.82794,987.3151,298.4388
-786.6529,816.52075,216.3481
-683.38055,671.2918,178.25633
-581.5988,659.85205,197.15431
-493.06424,503.86926,151.32053
-414.4452,398.56006,145.0817
-282.4582,243.93028,15.679205
-315.46332,414.73904,85.31957
-379.9772,329.83405,60.07614
-558.4417,378.46472,123.92004
-651.6326,276.43228,102.05297
-892.68463,1744.8905,281.32092
-887.0961,1262.94,118.844055
-869.94086,851.30255,325.84833
-883.88367,1035.6655,279.0809
-768.23785,645.58276,272.74704
-594.8877,674.9618,335.84567
-468.22992,647.7941,274.311
-471.6592,555.13055,273.18805
-495.46152,467.7989,294.9581
-567.5113,553.9002,197.49895
-710.80365,535.20416,133.6218
-902.4128,527.78204,93.05015
-1298.9188,712.43036,255.91113
-1302.6002,588.6743,95.58749
-1257.3317,688.7191,201.97226
-1200.3718,758.4929,324.6459
-1185.4714,949.41705,255.31468
-1091.7208,971.0234,260.2031
-1037.9421,915.5222,219.84393
-1029.2546,817.3175,240.72333
-859.91034,796.6239,242.44167
-733.04944,604.5779,112.894745
-623.73956,637.0387,189.30975
-584.7079,541.8477,93.842735
-499.4599,534.3694,65.137436
-380.90628,401.55737,11.654138
-430.5426,570.1812,60.345463
-355.5599,368.98047,50.013306
-467.86038,410.1998,73.04922
-396.07993,-248.40428,-28.09603
-675.7711,1964.8745,811.5323
-532.40717,1389.4347,546.4886
-829.6224,519.8373,351.67603
-847.0008,970.3309,264.46802
-576.9647,679.53674,281.87527
-455.80188,891.197,159.22815
-438.18826,654.28253,172.67342
-564.6969,640.62976,220.59094
-619.33417,373.44174,147.76965
-532.67633,537.7799,164.57108
-501.4418,406.0213,212.91808
-657.5125,761.7977,237.44731
-930.944,817.9162,160.30429
-1108.6118,888.814,100.48568
-1240.1167,634.07086,278.24155
-1393.9808,918.3616,212.58629
-1234.1704,1535.569,112.20228
-934.6384,1409.3878,152.85367
-922.1826,1456.3898,101.10057
-867.5509,1418.969,33.799625
-837.46277,781.29895,-117.34581
-632.087,838.79407,-40.412918
-591.5487,475.0067,44.288185
-412.75714,239.73462,-15.166667
-390.7215,208.83665,120.53272
-341.05396,256.2899,31.851488
-550.69354,341.93127,99.75321
-505.08664,430.5482,54.507298
-579.4786,661.97217,276.53546
-587.3924,217.42683,41.971508
-1151.377,-478.94907,-26.90414
-1786.1031,2700.8462,577.9358
-666.01483,1708.1337,386.14252
-841.4254,736.87555,327.90775
-720.69586,1010.6572,241.08957
-641.10974,479.9805,161.9565
-442.9835,731.06433,75.5858
-407.9267,491.99857,-63.738285
-487.71454,553.832,18.462902
-636.72375,171.16144,11.485024
-780.2842,516.0964,114.48692
-1013.5917,243.83212,88.35891
-1436.5111,312.54355,361.96008
-1401.3478,692.9317,225.85832
-1616.3899,745.2253,233.36606
-1414.8503,510.79236,65.22695
-1212.3093,1064.1107,127.50932
-1121.294,881.40967,185.6342
-1207.6106,683.03314,56.304203
-1138.4116,663.77264,167.51022
-1113.6592,830.941,24.73229
-962.44763,681.47314,162.74052
-711.39166,623.8277,290.01385
-621.3772,603.24866,319.04272
-550.9486,332.5782,154.96793
-380.2542,350.09183,23.488733
-386.67886,278.51523,191.27753
-278.23853,338.6254,222.55707
-427.60754,237.59766,324.51956
-585.1598,270.93494,45.903263
-762.50726,937.06586,365.88882
-634.8656,1333.021,945.31683
-520.1705,1014.5653,565.59204
-578.4441,706.8674,573.93207
-614.35596,751.1404,432.39114
-487.43015,605.8751,334.15933
-403.70715,881.6996,219.02673
-367.57123,793.6571,188.78606
-506.48605,732.1131,290.86435
-594.32605,432.5171,202.65955
-469.14087,547.6259,198.78015
-338.53082,574.8306,176.1718
-680.46857,1088.6674,271.4367
-851.76935,949.53674,316.7598
-917.433,997.9341,276.71692
-1190.308,909.8876,397.01056
-1425.5542,1156.8433,323.06226
-1195.1057,1177.0958,337.03882
-974.547,871.3623,389.66806
-907.00885,924.1155,296.8189
-839.9351,771.68805,324.35074
-635.41254,518.9779,165.17326
-537.90454,649.3243,170.18697
-503.63977,482.76035,227.49649
-382.92584,449.4971,130.2376
-376.14136,610.37585,128.98152
-412.39856,582.031,159.8779
-374.25638,560.4588,77.38185
-387.7399,430.16388,197.32405
-363.11673,282.71915,47.904266
-527.18475,211.7795,206.01915
-765.8643,2012.79,1015.91693
-658.6069,791.62036,247.26147
-938.22003,677.07654,304.60794
-686.3295,862.7945,371.0248
-608.3366,463.83322,421.96295
-563.7852,544.6551,414.62857
-585.9999,401.92188,386.75732
-681.23517,404.091,497.93713
-771.07544,331.47003,502.7719
-827.1641,405.9587,392.7042
-912.1459,298.42703,288.21576
-1111.473,443.4501,224.83731
-1197.7062,298.40466,107.17131
-1332.1412,665.62195,101.72999
-1328.2842,885.04224,62.525566
-1350.4796,981.92426,130.57538
-1236.9657,785.7104,283.799
-1073.151,734.1409,392.46875
-1160.2067,701.27295,524.4984
-1169.4742,593.1628,385.71497
-1075.349,475.34238,374.10452
-867.60913,493.45258,388.92303
-676.46405,316.1915,264.8158
-490.25787,404.32697,195.05821
-533.9923,453.8171,140.09361
-395.12985,400.304,146.71115
-308.7234,356.86105,104.33542
-373.16647,431.57437,154.1789
-384.31332,102.27035,-28.184246
-705.83264,447.22403,301.39725
-746.98724,2004.0121,904.27826
-586.10016,1054.7561,259.12506
-688.3148,545.7204,361.2083
-589.62244,949.94086,499.86957
-441.07825,566.4959,325.99753
-462.9683,773.00104,316.16364
-429.37222,521.95197,303.5156
-563.7801,552.40204,353.88754
-589.9876,478.0036,392.4936
-702.46967,649.6151,452.91006
-791.6584,554.51416,403.18082
-1148.1204,780.5309,323.7355
-1237.5817,728.7778,158.45491
-1124.7457,670.82837,126.29914
-1401.3052,426.57468,189.85777
-1606.4033,688.5217,212.45166
-1268.1041,710.999,179.82655
-1155.395,766.9408,387.43253
-984.4734,558.7531,322.3917
-965.3542,647.45795,254.46295
-953.6148,482.2409,142.1731
-899.237,608.5561,137.19179
-690.19604,230.87576,53.27227
-461.54007,478.80795,18.864271
-421.02518,241.02293,88.83819
-477.67664,713.45886,197.9682
-403.81198,343.91983,25.074318
-584.65466,463.9748,4.845272
-442.34036,-507.86993,-154.27856
-1116.1206,1653.3499,626.86
-815.7433,1833.4059,533.73126
-772.2105,342.06335,178.82489
-852.1802,1036.2188,243.05637
-591.0219,511.74127,166.08301
-578.2432,674.65924,161.26572
-492.36176,531.14575,133.82176
-596.14935,479.74503,224.20018
-608.1241,387.46863,255.9938
-702.5177,483.1995,255.62718
-811.88605,484.16968,154.05351
-1217.0038,397.63336,169.41838
-1376.9642,155.75821,164.37494
-1500.0736,659.40173,144.6582
-1469.2239,984.6943,220.5464
-1317.831,916.67914,248.92686
-1245.1693,818.69806,416.60556
-1125.7351,521.4644,206.94234
-1016.29205,754.3757,168.40508
-919.9002,667.8264,38.464424
-864.7545,739.7279,-16.244846
-756.0236,596.6771,0.45038015
-670.17426,695.4235,54.913277
-639.8775,495.56332,-73.35482
-628.1167,587.7863,11.792626
-650.7735,272.29416,7.213945
-488.46765,342.03363,138.4799
-436.21817,-590.75494,-135.31474
-510.8596,1288.4518,459.12546
-137.53117,1729.9238,510.5497
-628.97363,730.691,175.83125
-861.256,910.19275,351.32764
-824.7532,524.8578,273.979
-559.9999,728.23126,394.16656
-448.95706,545.96185,349.7017
-466.41818,603.28986,390.7421
-621.33514,356.88318,284.88284
-692.89026,541.0075,256.81305
-725.4302,628.6426,159.08525
-764.5998,596.7624,163.39827
-1021.48285,586.9045,88.601074
-1100.0906,596.21246,26.738276
-1476.8121,438.97662,141.20108
-1721.1709,717.3722,235.46642
-1359.831,1118.9996,-50.635403
-1023.1019,940.7063,188.66428
-976.9798,892.90607,254.96701
-922.35925,927.5263,181.25687
-918.4874,815.5014,106.39918
-876.69543,792.164,101.63519
-771.98193,599.7293,86.10873
-642.79224,458.2853,94.31233
-604.62616,502.84802,88.2009
-328.82727,490.02664,79.51232
-488.1841,555.59863,76.17526
-227.16815,308.37036,-78.02552
-486.54156,49.708744,57.6386
-683.19696,108.99939,111.44226
-801.4979,1551.7311,292.70752
-938.33356,1239.0059,472.20776
-931.25085,491.79587,278.00833
-954.1733,864.94403,251.672
-679.57367,514.87836,290.14618
-604.45966,653.95886,243.88643
-500.35297,337.36313,190.16946
-626.8538,197.45375,147.79054
-712.9687,483.66803,156.04303
-785.03345,474.75647,22.293255
-952.10944,770.0352,-115.76715
-1316.5516,711.4836,285.9967
-1332.9117,408.4975,326.50113
-1410.7461,783.49304,289.52002
-1349.713,939.7315,342.76477
-1077.6459,865.07513,304.102
-1004.52783,949.1795,322.77377
-1196.1686,884.2577,291.5586
-1237.5466,731.45184,178.15765
-1094.3978,606.8078,24.950712
-963.91223,625.7808,2.58927
-856.5402,582.4837,19.819218
-665.5589,468.4954,32.59643
-454.83032,263.5967,6.6160183
-592.2239,405.22556,126.676155
-660.0031,309.4695,45.063183
-708.36566,262.53546,30.39034
-633.0441,-418.4054,-217.40634
-937.1896,596.3235,406.33594
-484.96124,2294.6484,717.61053
-793.59106,616.6211,98.552246
-1004.3112,1043.1067,429.60147
-837.5536,505.08615,299.65665
-700.51886,661.91003,456.805
-519.2691,459.97662,266.93076
-460.10828,619.56903,392.91995
-515.2217,369.78552,301.87534
-651.1566,567.744,310.90372
-680.035,465.64276,170.50371
-850.7854,701.5569,235.84926
-1034.5703,696.7283,89.83462
-1090.0792,715.8588,154.10037
-1299.4412,672.37537,206.8824
-1252.7311,1187.6561,212.58919
-1174.2766,1132.6423,73.81209
-1139.9609,1218.561,245.0583
-1147.7775,966.11884,140.72072
-1252.8567,1146.1411,212.5829
-1026.3021,713.14246,167.21251
-848.1506,667.7531,227.35402
-518.4334,293.4011,95.56387
-334.93787,159.48882,142.14027
-179.51265,153.45256,78.304016
-466.05252,697.06024,203.66791
-770.257,73.43063,-108.05799
-780.5454,515.7707,-65.87825
-857.3404,-166.19704,-106.850975
-909.58954,1239.2238,426.97324
-464.71198,1633.4844,682.0852
-637.232,931.68835,368.28918
-782.0986,970.3972,464.18585
-865.1106,507.57227,334.16623
-711.1065,624.6148,354.4392
-551.3968,644.56555,275.47882
-476.82767,607.7858,254.71082
-539.6386,471.7703,241.39105
-546.78973,247.13596,201.15851
-640.5783,506.6719,163.8871
-747.2588,927.1187,221.69644
-1128.3527,584.29034,187.59908
-1288.3168,744.30634,126.98884
-1550.061,645.9182,111.53225
-1538.0004,845.432,149.42744
-1428.7598,595.4972,85.62744
-1184.671,722.71674,325.09314
-1168.1503,759.1879,219.97736
-1082.57,642.7047,160.86284
-1006.41644,704.8986,182.65924
-893.0326,703.4427,131.5318
-756.4269,665.35065,74.00659
-605.71765,623.0579,84.736176
-512.9777,348.74832,46.495384
-286.26492,350.62238,75.581604
-481.0248,207.10303,146.94197
-499.10327,229.80414,91.03086
-699.22784,-0.6005438,6.221089
-1067.9269,67.20362,50.037483
-1196.2092,2013.2126,514.1751
-762.3696,1356.8187,354.9145
-871.68604,791.8111,302.9652
-704.1499,964.6744,305.90576
-569.72003,409.2616,232.99599
-548.2467,750.40466,220.41953
-445.78998,569.2075,132.47102
-488.74377,623.5498,153.48126
-552.77856,434.9484,242.06569
-726.1705,568.98645,250.55724
-859.67914,331.07745,190.34978
-1109.3997,506.7033,145.87062
-1403.3625,505.2609,283.8693
-1620.6771,464.51315,288.99033
-1658.639,634.4767,220.90216
-1348.3846,640.5925,285.36826
-1092.6654,680.5362,372.93472
-1061.1573,676.0313,378.8377
-1024.6625,500.0588,240.83704
-972.6085,646.86523,127.5578
-1011.32495,757.7012,18.796564
-976.15466,802.63965,-145.01208
-771.79987,312.95825,-27.0187
-620.91547,475.66495,109.66015
-464.4159,362.57306,145.52484
-587.53424,514.0881,136.91417
-436.68494,65.47365,-49.331
-519.29456,40.42307,-129.87257
-915.63586,-180.17188,36.84118
-1110.5449,1951.2556,944.36127
-733.0624,1254.2686,337.84958
-937.5061,630.08826,299.82104
-764.2074,800.6638,340.87442
-672.98395,459.56326,338.39496
-559.5,630.5384,292.27408
-637.4046,477.33887,245.05298
-621.34265,437.344,244.39188
-658.81384,473.52695,223.01927
-723.31586,470.41235,191.93365
-952.29816,380.5457,157.77357
-1251.3182,561.876,130.17032
-1376.4907,545.45306,240.3918
-1384.7344,492.03714,292.128
-1676.9518,732.5107,261.3944
-1437.3942,560.4609,288.41547
-1208.8226,496.32956,321.7784
-1181.0166,541.2823,367.5032
-993.2171,532.14075,289.39294
-1003.911,551.0301,280.3893
-949.16003,662.68256,153.41985
-746.06903,293.72458,8.590554
-513.4123,377.2577,76.494514
-432.03394,326.042,93.992546
-620.0078,546.10406,186.6668
-560.85266,248.1105,24.148928
-694.2221,312.42804,24.228336
-659.2231,-422.38715,-195.83223
-1221.3894,1116.723,331.48273
-915.4023,2159.354,551.1697
-895.1579,290.5215,134.51376
-994.5292,1064.1799,343.22025
-702.43726,499.21948,159.09216
-638.41565,577.98553,274.70715
-507.28848,472.1692,168.31982
-474.63815,581.7113,347.75446
-573.9895,336.51843,473.469
-626.4182,639.72327,316.8412
-812.6304,848.117,179.05438
-1102.6696,615.3208,144.10748
-1289.4719,259.2776,176.56932
-1362.3496,1075.0447,249.38586
-1165.6884,1227.6058,229.20801
-1114.2587,1063.491,271.97232
-1117.7742,994.7441,247.68654
-1220.3842,941.5476,227.87569
-1199.4607,792.859,223.45113
-1027.5168,671.6357,241.71474
-752.47626,369.85916,187.32076
-537.9923,428.39304,171.15271
-485.46243,334.9733,121.546745
-395.32275,335.25882,82.18383
-503.70975,388.7541,71.26286
-552.64886,426.81873,73.4764
-634.58765,349.35693,44.494225
-676.2195,5.86006,-30.38516
-918.9615,271.5504,-29.709024
-873.996,2516.403,823.0558
-586.7911,919.5551,478.21802
-919.00195,829.7514,429.97104
-834.4163,806.2919,429.78168
-670.7458,547.3182,300.05273
-536.357,611.75726,261.00583
-461.3359,531.27075,195.825
-500.93576,503.48077,220.3747
-568.38885,554.9939,254.93953
-677.65344,634.24994,222.51231
-750.1572,584.93134,179.84824
-1036.2794,506.89456,176.07484
-1305.359,569.564,208.56331
-1459.4758,447.02783,209.03545
-1581.5122,283.1801,188.93442
-1507.9996,343.26175,257.6416
-1222.7048,584.03815,376.39398
-1110.5894,505.34595,313.36087
-1033.1993,403.3773,305.80707
-862.549,404.2255,195.21233
-922.21796,568.50323,153.10541
-1035.9902,566.3067,73.262665
-1020.6659,632.4069,4.3966613
-784.5842,479.38974,-4.944339
-757.25653,613.51373,104.54906
-645.8827,649.1334,-1.9623364
-493.17874,490.3195,59.63993
-413.85147,292.0308,78.44852
-376.23737,145.51659,153.30815
-631.3769,-23.755114,154.35355
-1214.7992,898.4862,383.6109
-1062.5829,1706.6232,479.8906
-799.5,321.5194,248.1125
-762.0446,869.3822,399.84738
-589.4757,612.43463,369.09808
-563.6986,376.54507,256.33206
-545.69434,359.24835,237.63884
-590.1518,299.12354,172.44662
-789.87164,472.0454,110.97599
-991.08746,533.62683,137.34254
-1266.6519,541.8904,266.70447
-1442.0957,662.85876,241.12558
-1451.7429,920.45886,346.7481
-1335.015,935.4834,335.5833
-1189.9252,990.54407,274.02597
-1147.5719,809.9458,292.70493
-1127.4597,748.1865,199.91539
-984.3483,686.57404,217.08083
-802.1802,607.1076,126.04079
-759.0147,505.59558,87.48969
-663.35144,580.1916,63.070705
-596.6461,317.6317,142.87988
-421.2721,272.3401,64.87971
-358.03253,48.88932,22.25861
-495.15475,124.99988,130.32095
-562.427,-292.29474,111.79153
-411.6209,1929.0841,961.46796
-255.39758,1384.0286,314.07693
-914.97845,773.72797,174.07115
-934.6509,1081.8142,195.62634
-943.71466,584.1279,167.5663
-726.58936,733.7944,297.979
-666.2851,421.5983,301.5195
-556.7325,488.66147,320.19348
-583.97107,317.22357,272.36728
-612.08813,550.64484,285.45172
-719.2769,489.30576,278.73175
-959.9729,965.00195,279.85434
-1055.4602,745.89343,170.8092
-1168.7839,820.0174,236.86906
-1139.4739,199.51396,433.2611
-1085.3625,1107.4453,503.2112
-1194.0793,1261.5435,438.28903
-1173.2468,1134.2673,354.25397
-1102.4637,840.5641,210.31908
-975.1278,882.502,125.51108
-848.474,671.03845,104.506485
-612.2679,663.6231,81.99692
-516.8075,259.16904,73.681335
-354.07166,464.0318,56.105965
-532.76215,312.2578,-35.718056
-393.9107,553.4973,-7.691798
-831.5943,481.58255,92.33252
-601.36237,279.3053,43.972317
-711.91614,-341.94614,-73.20673
-1168.6547,1426.7018,-38.142864
-685.6414,1856.88,5.833446
-849.1409,748.0881,-36.41582
-998.73413,968.7823,244.7504
-957.9203,610.80615,204.75388
-769.93555,663.55115,332.69556
-566.39044,511.0993,259.4299
-476.2585,522.3408,324.33307
-565.5578,319.20227,265.5266
-556.75,299.98108,347.90894
-776.4641,340.49316,496.59393
-976.9524,1019.9631,197.20627
-1192.6075,806.1011,202.2032
-1310.0121,682.85614,59.178062
-1055.9507,1043.0541,95.76145
-841.1054,1191.246,108.016556
-915.34485,1242.476,188.14178
-1047.7175,1172.1039,119.74857
-1126.3547,1059.5411,119.23094
-1044.0875,880.01733,151.58151
-881.3911,759.47986,181.46648
-657.09625,467.52917,161.94661
-544.0857,485.3935,226.825
-424.37988,140.9396,140.69029
-416.58167,341.69836,143.58066
-458.41367,29.491964,21.441975
-649.89294,525.209,144.84015
-583.6776,-527.049,-112.17719
-874.61017,1314.8718,516.15656
-204.59114,1883.5856,718.71
-666.0699,770.27386,422.49768
-1097.7861,1157.4545,375.48904
-1052.6985,405.3056,230.6952
-767.43097,626.5768,257.71606
-478.47864,413.16663,101.060486
-383.23502,837.22974,170.67186
-342.58926,657.948,199.47906
-488.27664,668.85126,240.2818
-650.865,415.28937,89.21337
-889.49994,631.68146,160.16122
-1010.988,497.45755,286.4456
-1104.9918,504.37787,346.86716
-1362.0415,669.50653,410.1191
-1359.3807,866.5415,517.4984
-1378.3716,969.79565,340.00797
-1472.325,995.8393,334.40598
-1203.3221,807.28864,181.40224
-1149.8164,770.54834,213.36674
-952.0586,642.2523,220.66779
-811.3675,542.9367,61.577465
-642.2672,442.3997,112.71929
-545.9913,363.1988,78.85755
-496.5534,446.19183,11.315234
-380.6186,91.0389,-2.154279
-377.60922,192.3805,84.30623
-205.16338,38.8039,-138.14232
-602.7335,217.01361,187.44414
-473.14026,2216.961,913.0422
-637.32477,732.37195,182.34898
-1046.8679,1085.7467,380.56256
-937.8916,567.3336,337.66476
-888.17773,732.86163,359.4898
-637.2592,583.72473,206.14333
-545.4838,681.55115,277.8439
-520.83875,536.026,211.38376
-568.41656,608.3903,227.55608
-542.2026,574.6571,128.92894
-737.3741,745.38,159.96614
-854.19867,682.5362,112.7883
-1074.3218,710.3985,190.77832
-1270.4138,623.7156,275.19153
-1193.5077,818.10614,464.83548
-1181.2059,1131.8378,440.07144
-1344.6008,1200.9683,472.77396
-1161.7014,870.12573,288.3285
-1161.5043,813.4214,369.3157
-990.4404,673.7762,259.6601
-917.57526,648.5865,258.80887
-777.14044,509.7286,198.94649
-617.4669,255.06432,146.53691
-373.84836,260.37607,90.48604
-289.71057,443.0607,249.42596
-550.37036,388.06528,252.94414
-454.2901,382.3195,84.69353
-788.79205,-70.43386,-47.770504
-795.8839,170.49077,3.5702398
-949.61273,2300.767,547.4562
-730.1066,1102.1394,73.14621
-816.20013,832.07306,297.3266
-748.92206,744.5357,321.80417
-642.442,350.10703,227.08203
-581.145,666.4896,132.74866
-354.37277,715.0224,42.546474
-424.95865,795.7295,101.44762
-461.24915,613.7689,90.99287
-615.94653,700.2378,86.132324
-761.251,524.602,48.801716
-1114.2811,571.5933,171.6621
-1293.1094,412.77145,129.90115
-1410.3438,565.48346,166.74469
-1445.1707,879.588,242.19316
-1350.6995,1231.7659,187.75139
-1082.8799,883.53455,209.78084
-1154.5372,1277.096,207.9688
-1131.355,821.35095,94.65349
-921.9087,543.61743,213.36125
-847.4061,583.6694,152.5106
-652.0819,513.65454,161.73598
-551.4112,427.0852,124.74007
-602.5838,277.7581,61.023838
-598.23846,202.9024,66.025734
-541.84235,835.0937,385.70676
-550.1727,352.9617,201.92941
-540.08057,70.622314,-22.353601
-790.97327,-264.1249,-4.575926
-935.7926,2351.4756,941.62354
-619.6949,757.0474,315.7818
-789.42126,721.05664,510.74335
-606.4289,866.26495,408.78915
-679.6552,766.8473,244.39513
-535.3726,523.9684,237.58675
-542.2343,660.6746,191.90999
-512.45953,565.16284,202.35706
-607.1437,609.6876,221.99982
-575.68787,570.1794,118.28044
-838.92694,773.0965,90.85456
-1104.5669,609.40607,86.00368
-1440.4391,741.8944,127.31252
-1422.0797,703.49225,386.46274
-1470.8433,1255.5092,390.9889
-1336.744,1006.82086,377.77863
-1283.6477,917.5757,479.2615
-1226.7346,760.3961,227.62645
-955.7511,782.53,434.18698
-719.8274,773.6414,262.18814
-663.4312,323.71506,135.5623
-433.33292,208.72276,53.857243
-540.2737,309.74057,119.27887
-481.72635,220.51332,-20.047186
-737.2305,420.7883,96.29222
-544.9907,423.27994,121.31872
-568.85626,761.46075,448.76
-507.52588,-65.93841,-85.72228
-635.7349,52.614727,-96.89695
-1500.5929,-94.13297,-51.93232
-2123.9307,1105.2073,634.1289
-1394.2549,2389.0203,882.7565
-552.97235,-292.24966,162.02614
-1286.499,296.644,257.3538
-971.12756,613.6316,113.397156
-956.73364,195.93044,39.133984
-1000.6509,553.89276,-18.445417
-1027.3711,791.2246,144.42107
-983.8552,810.45483,213.09079
-1077.3757,835.46484,224.32306
-1156.8807,706.6981,163.46298
-1331.0557,792.99286,218.2292
-1291.1056,858.83844,293.46448
-1472.382,674.7126,305.7921
-1462.0085,634.5624,252.64844
-1703.7444,606.6334,147.67195
-1537.7982,558.52344,83.622856
-1165.128,209.88754,26.28278
-759.3343,622.8901,264.60373
-809.61615,371.56018,191.06789
-745.6733,322.8191,164.4196
-627.83453,158.86177,-172.50511
-670.0172,342.28116,41.03107
-865.77765,226.71591,88.00039
-727.00964,264.11865,118.85715
-821.3253,-464.6006,-228.59598
-977.1212,941.5282,675.3659
-518.67126,1991.6575,1073.1797
-598.7492,773.18994,388.73273
-781.6504,987.4096,519.2853
-784.0223,574.60333,232.32906
-556.89264,741.8354,235.8211
-379.26297,525.2977,103.30623
-372.97635,672.577,153.4848
-448.7768,523.63556,195.90414
-528.1411,812.5106,268.29636
-609.2165,636.6285,131.77878
-879.5533,812.6772,183.87819
-1047.0968,879.783,167.65051
-987.82025,724.40076,160.96033
-1077.2034,1578.8014,99.975525
-1223.903,1484.7922,-2.143327
-1126.1327,1309.3391,92.9614
-1043.8668,1188.3245,239.85349
-1045.9187,966.10284,153.87125
-906.75854,954.3428,133.17598
-692.3563,661.53796,71.7999
-536.633,308.17914,104.25294
-428.1162,205.40166,165.33423
-313.5225,338.6238,106.61484
-536.79675,455.9729,136.44695
-517.0555,258.97775,-46.369713
-628.1939,469.27484,-15.490993
-572.9461,-271.6391,-220.05052
-872.916,962.4059,340.33972
-151.62566,2085.9368,842.4802
-589.31036,812.65594,208.81123
-998.49115,1055.5532,490.4413
-1018.9556,347.0419,400.115
-882.5803,698.5014,424.7548
-679.31146,495.4139,270.28503
-570.61456,697.8177,347.22867
-480.333,416.16318,280.41464
-585.7222,585.38116,331.38373
-576.1479,341.0779,165.44734
-687.87476,524.49713,149.64302
-1068.4036,557.845,74.02521
-1329.5869,607.4903,139.1515
-1254.3351,547.3337,75.64083
-1322.4276,949.2005,180.88712
-1281.7549,791.2514,215.27585
-1331.1637,888.02356,261.0822
-1337.2806,610.2945,202.13365
-1338.1112,788.3819,181.25397
-1033.6168,487.13904,200.59492
-818.3653,632.4639,214.89525
-660.78723,292.78357,120.935
-504.68243,454.79214,119.8849
-492.797,121.63459,89.559494
-463.4704,446.46506,49.308327
-634.6866,220.1419,67.88597
-794.80725,504.51062,32.75935
-867.6045,-255.59283,10.35899
-836.65686,989.92596,127.66943
-396.834,2243.6519,216.1654
-583.3298,588.72906,226.33743
-924.70416,1041.5114,190.59906
-829.66876,549.1501,330.51047
-720.1756,635.1529,359.4455
-539.05945,559.25055,343.4825
-543.5404,469.10712,337.35626
-460.0982,484.35297,310.74802
-466.28394,288.9111,367.62418
-674.4477,538.0894,303.20523
-957.1515,1175.3267,57.84932
-1378.0479,451.8384,166.27066
-1359.5546,768.7717,-30.866127
-1114.7788,932.4333,-66.8511
-972.65985,1371.6096,35.263847
-1055.142,1022.2619,15.370726
-1176.012,1213.0521,7.0284557
-1196.6831,891.54193,109.95132
-1061.5012,905.258,64.13244
-808.9188,562.8014,161.51132
-642.6717,380.30878,151.8847
-567.97784,372.7437,90.31767
-644.4557,511.34903,23.820904
-507.14218,302.48474,-1.8399205
-483.89087,511.44528,97.09527
-462.73697,459.96692,140.07802
-293.94986,86.94028,89.21225
-569.53723,69.063805,209.38725
-270.89883,1823.6069,896.03503
-428.8223,1098.7423,509.8328
-861.7086,797.2426,372.29803
-924.6005,771.73065,264.24454
-803.1263,715.8015,195.89651
-518.83777,713.1995,285.33118
-379.54596,570.0947,163.83653
-442.1375,629.73975,182.0847
-488.00433,490.19138,146.02924
-479.04614,534.09894,174.93396
-490.90216,617.2864,146.39885
-753.81506,859.89526,227.24599
-1125.0916,841.51,248.2869
-1212.6571,885.9485,188.94333
-1291.3815,692.3825,319.7258
-1404.2555,1080.5596,322.54416
-1304.3329,1213.6278,143.41576
-1122.38,1024.7725,176.43439
-1060.5061,895.4216,151.93732
-912.2513,863.2042,198.21568
-789.6726,770.1639,80.3176
-670.78485,595.27356,122.01135
-665.67474,421.3572,172.48404
-499.64316,313.77158,18.123413
-457.11636,410.29916,114.78197
-579.09125,460.9781,252.87468
-416.59192,446.5049,32.894966
-496.52548,177.17285,54.261135
-552.38666,210.72008,-120.18912
-716.37695,209.26888,233.78911
-1276.8738,1675.4443,844.49493
-888.0059,1310.304,440.3908
-888.4986,598.7586,326.98392
-833.85126,703.39404,360.5505
-639.33124,529.2369,172.41748
-543.5895,609.37384,182.47682
-476.26147,514.3509,122.4013
-538.3902,480.8753,241.59596
-654.6111,495.91946,197.68544
-748.50604,583.73694,149.67667
-910.13776,437.89383,88.43752
-1340.8855,444.64728,362.59744
-1416.6829,544.40753,263.2531
-1484.9706,1127.4344,427.34238
-1485.3843,815.9399,391.2246
-1301.3386,795.52655,354.46985
-1178.7499,815.34784,328.428
-1133.8334,776.437,320.701
-933.59064,726.7782,165.43498
-706.2745,637.1292,31.2932
-579.53534,463.4498,-43.648464
-326.61935,308.36746,67.10926
-454.7981,386.74026,154.30562
-599.6371,345.37915,61.406887
-803.5973,119.489494,-236.2695
-883.84827,255.65318,-112.08317
-968.1021,15.541678,-152.17749
-947.72034,1446.8821,312.1842
-532.1025,1232.1248,409.70026
-935.57446,1037.8606,175.08237
-1089.3359,714.59503,346.42212
-1001.37585,380.8352,431.24234
-681.1492,496.99005,409.02594
-535.4835,439.57684,409.19873
-448.62845,472.13492,433.9114
-558.1479,392.0496,417.096
-695.1019,342.93558,378.65424
-863.0933,282.35886,267.25616
-1019.2122,337.38834,251.77603
-1184.745,417.64886,242.48575
-1357.117,608.7832,220.76532
-1402.7557,788.4679,334.52097
-1438.0541,888.3,352.68054
-1538.002,742.9524,259.0173
-1445.0751,638.07336,418.38007
-1347.3353,640.749,351.3521
-1114.723,583.0125,269.25006
-960.1345,438.46506,293.44617
-783.6938,389.43582,289.67014
-618.4164,143.27596,200.70506
-605.1524,331.3224,169.20454
-563.912,366.7439,170.38342
-838.85284,475.18564,253.24953
-604.91144,240.17154,119.27727
-367.8045,69.56284,-136.14322
-639.3384,-91.02598,68.352356
-1044.7532,1371.1442,1090.8456
-566.83044,1049.5548,1017.1901
-547.7081,663.48773,661.40845
-706.9681,697.0031,674.9836
-628.4786,458.98016,500.88605
-617.97363,620.4473,368.57666
-416.58524,567.1764,395.02533
-468.4772,572.33673,409.49783
-496.2315,513.6486,313.91357
-693.3583,676.3343,312.33792
-862.54987,930.96954,157.48207
-1142.1681,1020.5174,113.56996
-1161.6305,619.08997,194.77095
-1299.934,768.15106,267.8232
-1201.1573,1312.3861,353.48672
-1168.0504,1261.0664,460.91876
-1036.4966,1294.1382,332.51352
-1015.88135,914.5162,391.73697
-848.1148,806.67737,412.97858
-662.9021,434.08423,302.5761
-577.14557,500.052,258.5624
-511.9318,30.226887,153.8213
-429.53595,410.4671,208.7832
-456.88577,50.24443,33.26721
-316.2131,634.5661,110.01815
-436.70062,302.25598,138.26035
-701.78674,391.00583,-5.105775
-794.50006,-424.69104,-140.66241
-1302.3363,2137.1362,440.78592
-615.9083,1647.7554,595.57214
-738.2667,575.77246,395.55603
-835.94806,1015.1331,604.143
-718.80914,465.35974,409.2151
-540.11945,782.6981,317.36707
-397.70178,586.91254,313.25223
-473.1652,692.7528,312.6126
-477.729,461.1686,279.33804
-550.94604,695.6194,288.66666
-766.4762,592.5065,257.8875
-1098.1663,575.28723,211.3033
-1337.28,229.67679,-166.48499
-1615.1025,1363.2144,-101.58095
-1391.6646,1016.87335,-121.31152
-1304.3784,1139.4454,-50.48878
-1063.6877,834.64606,83.151955
-1105.8262,876.8003,111.638214
-964.7002,645.078,212.18834
-764.6999,929.49695,155.55405
-677.5087,617.3276,33.25895
-655.8342,646.5199,10.505218
-535.9424,326.3879,15.96204
-510.95444,601.4555,48.06788
-467.46332,197.09003,7.0705757
-481.1666,352.56595,1.1580036
-485.03903,-242.644,19.398504
-567.3787,1147.4453,370.21295
-351.97504,1151.2671,540.2183
-851.17163,1046.9713,362.8882
-1029.7684,911.86743,309.14334
-1033.2356,633.71985,330.45755
-736.75555,488.7165,129.61386
-591.165,640.2169,47.646805
-417.26135,641.5598,130.13531
-466.51733,553.3501,186.28246
-536.3892,606.97034,204.0538
-621.6215,595.2312,251.37575
-788.5991,448.64056,267.9314
-1093.9478,545.0813,134.88475
-1252.2809,662.3835,230.48314
-1285.9475,711.7698,180.36386
-1332.166,1259.1277,227.09164
-1174.6262,1214.4703,161.42346
-1212.8761,1056.0319,50.57189
-1079.1694,898.90375,62.2117
-1203.0039,756.85114,32.899117
-1063.422,622.4289,-30.12241
-917.1891,385.0819,8.539573
-798.4594,357.60654,49.61357
-802.0541,295.70844,3.7150824
-578.48676,417.83624,29.121038
-788.4017,399.89395,104.254776
-667.932,294.72034,162.29854
-764.7745,272.9628,111.84195
-754.6876,-253.77258,5.000734
-1008.76624,-32.71292,223.06491
-441.04666,2288.496,569.47894
-734.60767,877.9545,275.25967
-1177.6302,828.03125,347.37146
-1116.9059,433.3028,222.32346
-945.4873,495.2685,212.46317
-665.91327,527.90344,142.73668
-565.10504,622.8736,274.9227
-552.67017,435.85916,274.89655
-582.20447,438.776,292.70245
-593.7781,281.96024,160.56386
-893.1253,363.3068,200.33916
-1271.9333,83.044334,402.45636
-1484.9281,500.0332,276.7293
-1481.6841,622.8716,339.97894
-1364.49,697.276,432.6495
-1436.5573,597.9934,296.5532
-1438.9271,576.8732,352.76245
-1312.8429,362.6797,181.71173
-1276.5889,534.65204,198.1073
-1072.2533,325.74606,79.77084
-983.11694,463.93036,121.658485
-815.6113,329.50314,129.42404
-785.03656,405.1763,142.06793
-621.5739,172.71568,158.74579
-905.9617,403.0069,238.41748
-707.54224,202.5444,7.9537597
-677.7347,221.63727,138.24445
-618.61084,-229.32816,33.662518
-737.41925,1465.2422,457.7852
-622.78613,1658.4412,297.8867
-704.44855,740.52313,309.94745
-927.04614,1000.69617,408.79886
-807.1419,427.46262,372.58646
-652.9664,586.53,382.82846
-447.64584,487.66418,370.00882
-410.15033,561.82446,400.31155
-424.191,367.2878,428.6082
-474.81766,579.8481,400.57602
-543.7812,586.86255,383.99463
-861.1561,641.1872,480.08652
-1152.5381,505.16992,537.7915
-1236.8481,197.11069,289.68347
-1224.7399,587.35034,353.13824
-1293.1807,1001.6571,490.90085
-1381.3007,921.5764,356.64304
-1321.3112,832.21747,341.33893
-1195.0839,584.62946,332.8479
-1030.8313,586.9264,296.36664
-878.4534,546.68097,261.00473
-812.45294,515.644,320.61707
-674.49554,448.8009,205.8993
-602.1896,313.00635,195.79047
-554.6976,232.19237,232.83638
-477.46048,268.95486,162.85837
-668.49884,206.048,160.25417
-635.1685,-0.36691317,-38.729095
-1155.2268,-71.637375,189.86676
-938.71735,2070.1587,964.599
-764.7546,945.39734,271.81644
-1075.2527,433.64676,362.3166
-983.00366,653.0033,329.0663
-879.60406,377.621,328.9713
-666.9937,461.09607,265.8061
-580.9474,514.1109,273.12872
-466.97458,438.1138,248.16208
-568.4049,336.46902,261.26135
-656.39404,497.39294,192.68454
-806.33057,423.3348,170.53416
-1042.3739,597.17285,261.69302
-1302.6193,288.43497,368.56616
-1404.9916,518.09674,218.61197
-1469.4038,695.9753,363.1565
-1327.119,683.28125,326.73938
-1354.9039,607.9373,309.49802
-1203.8916,546.1415,266.89355
-1205.5851,379.69922,224.25684
-1049.7886,405.45016,185.10472
-941.6568,237.67996,129.89871
-803.8502,571.4522,-117.59267
-996.3474,816.77954,-60.98722
-854.89386,673.5956,-165.32755
-630.34326,673.0773,-11.605715
-693.43866,418.09607,243.46544
-474.2485,-115.68829,2.2793782
-720.3581,273.597,74.58606
-657.87305,-546.4069,-0.23368086
-1120.7365,1502.9663,5.9079494
-980.08264,1685.5062,189.74786
-906.5916,455.831,290.0098
-1066.9819,934.8307,238.29851
-809.5155,523.265,308.23367
-696.1195,648.75446,197.79485
-546.6393,499.6526,210.76595
-601.9132,605.4655,165.45746
-609.71515,433.90396,210.03427
-698.3466,600.74994,121.404274
-801.2086,578.3617,81.461754
-1233.3774,536.83,89.876076
-1251.1884,633.1031,118.21197
-1064.9445,1112.3947,258.93402
-1033.3242,1171.9741,370.34253
-1244.2749,1102.9635,288.8499
-1370.2646,1053.3419,306.24942
-1417.2727,978.253,197.13347
-1157.6089,726.1554,321.65497
-913.3091,568.94086,191.42043
-681.8607,422.14102,187.91193
-700.8159,411.99863,88.23593
-452.21542,148.51254,117.419556
-520.7555,271.55997,252.64354
-478.84174,158.25888,-10.302259
-537.93634,210.86932,83.12029
-742.48834,-8.796173,82.80223
-996.52277,561.7347,224.12553
-602.388,1903.446,850.0533
-703.52435,899.7769,452.8634
-950.52673,1131.7069,442.46713
-854.8572,568.2698,384.5886
-744.59894,577.0534,347.98166
-522.34515,476.41666,246.9568
-445.8446,684.53076,275.59784
-442.81186,545.4042,304.78806
-572.3868,655.4394,333.57224
-548.1306,598.25854,210.15295
-671.5409,825.88965,279.5518
-799.1922,725.84204,201.92232
-1105.8992,935.0541,354.3932
-1016.1798,864.557,414.8202
-1147.7446,1289.4923,531.3443
-1127.7137,1416.0786,368.70834
-1125.7214,1257.5104,316.10464
-1099.7766,888.2941,-4.529953
-1017.3581,663.6162,5.0712094
-813.32025,529.4298,135.22107
-643.16064,379.14178,58.652245
-525.6396,218.9446,184.61906
-643.52716,184.77162,264.2637
-529.5908,538.3184,119.45526
-719.5238,156.23616,239.80728
-765.82996,28.844505,203.23056
-706.2787,-403.3034,15.910671
-865.9497,1106.351,19.413958
-751.1518,1556.6646,292.7846
-1177.3312,743.164,180.87952
-1169.3867,719.11084,169.64128
-1026.1268,254.0976,273.08725
-859.3915,325.5828,238.45493
-850.3369,-392.34253,265.28217
-1044.7598,348.4763,658.8904
-637.19977,1574.5598,244.53027
-595.2,-469.27893,132.00877
-1094.4464,470.44247,-19.314821
-1124.1458,784.6966,-218.7548
-1100.6948,725.2271,-203.36668
-1180.3816,884.96063,-67.0327
-1253.1558,910.8196,-92.63677
-1114.954,992.33234,-7.536568
-1266.0173,972.75183,12.815998
-1375.3733,980.1865,76.693886
-1408.5792,854.1642,102.27832
-1293.41,732.29614,97.06987
-1052.0088,468.09808,-75.23139
-813.10315,576.5056,100.800705
-795.0832,253.02649,-6.413693
-614.2713,255.95743,50.275795
-652.2898,232.27965,85.00601
-632.58997,348.7702,80.8258
-827.4757,55.41749,2.425581
-694.96875,226.52974,9.566059
-1040.3201,-407.23325,-117.88576
-842.5861,2011.3287,965.5728
-552.42883,1345.1399,534.8924
-969.1464,561.1202,348.48688
-1062.7998,919.4688,340.5367
-913.92303,363.66418,179.56181
-695.41705,624.64966,179.25116
-538.08734,495.42136,91.737724
-502.07806,648.8268,161.07646
-546.23785,397.90323,146.09467
-656.2107,613.17535,72.72167
-743.9658,568.4167,67.20815
-905.9221,626.24695,185.44963
-1161.1163,509.6549,244.38489
-1345.9694,573.29315,234.9748
-1486.7903,590.6393,332.5555
-1442.1311,696.1477,300.87445
-1375.1459,567.9022,372.20593
-1168.8129,570.3763,365.73767
-1151.358,486.85574,362.25342
-993.5894,461.25598,268.4645
-910.72797,378.16605,180.62067
-902.8869,470.61063,94.86692
-840.1734,419.26837,113.38051
-728.32733,435.02808,102.48278
-684.5271,547.2843,68.18643
-653.42413,628.5178,53.332607
-461.92157,617.9436,139.33002
-387.24673,385.4837,131.1367
-310.21402,314.57187,154.66025
-313.01517,-172.67392,33.59624
-1006.3097,1344.9226,582.87146
-746.1481,1523.4408,850.1594
-887.66254,261.6737,327.4387
-893.4684,659.47504,416.52762
-662.865,625.5819,393.69003
-561.6412,595.63184,360.11584
-529.9006,429.253,249.00218
-593.6143,503.20636,278.5865
-642.74023,407.44836,208.41019
-649.3088,599.8272,110.14699
-906.3582,642.6172,-2.350772
-1219.0756,666.2348,173.37378
-1310.3553,602.6012,186.00392
-1206.5544,1028.0363,188.98492
-1186.6067,1057.3102,284.6842
-1165.2373,1127.7194,249.8889
-1058.0629,954.31055,284.01877
-1072.3076,916.8502,206.0064
-973.993,817.04407,147.72446
-774.1223,687.96924,117.94132
-693.81555,624.76685,131.24388
-570.7095,371.0173,86.01421
-449.95956,346.04584,79.626434
-402.96057,299.96042,108.77214
-379.31314,385.16916,65.34682
-601.211,512.4981,48.784996
-656.31055,79.329124,13.580376
-930.186,488.26617,-63.34203
-407.4354,1927.2568,680.8694
-564.65936,734.7359,460.84314
-1046.7085,920.55194,302.9731
-977.6355,752.3352,351.44803
-868.9634,620.4152,309.93762
-670.7208,527.45624,249.70609
-604.9578,517.5255,169.47655
-554.38257,476.25836,205.5816
-581.06744,421.4925,176.25694
-592.5195,463.50583,157.50203
-749.2749,580.9957,129.90535
-893.21796,498.42746,169.46063
-1327.176,514.9569,208.13644
-1328.5034,284.2096,276.63593
-1289.3701,546.44434,312.5778
-1211.7671,825.49756,498.51694
-1237.8989,697.10925,421.0997
-1324.5242,666.6514,386.36328
-1393.4723,536.3531,312.55267
-1303.7472,618.81036,245.05183
-1053.1976,649.8368,122.27461
-916.4988,791.0602,155.9849
-768.2141,431.0688,84.09753
-498.88147,426.35757,107.553535
-541.50586,200.56578,156.90245
-444.79352,20.00947,20.367191
-611.3568,182.73154,-3.061284
-628.87024,52.546368,-58.28253
-901.5368,153.16617,-22.642605
-554.50275,2031.5414,743.00836
-483.46448,928.7097,490.28766
-1081.825,775.52856,371.803
-1072.3918,797.0752,414.85742
-964.9271,490.3318,305.6569
-733.04755,485.46097,216.73119
-635.5666,469.8146,206.38483
-560.5592,420.10522,196.42604
-562.6632,412.83057,172.0295
-674.31775,625.3978,127.46552
-750.44885,603.32367,-15.610882
-1039.6438,700.5081,116.87085
-1225.6318,660.02686,256.22418
-1245.1522,899.69794,255.3421
-1205.6265,1064.7882,369.32245
-1114.6367,976.91425,339.37982
-1253.8817,968.9181,310.54718
-1191.6348,892.3538,317.83813
-1201.8273,869.55054,156.03612
-974.23987,810.4402,122.07887
-860.82153,763.6593,49.438866
-775.8026,435.7018,65.73386
-590.5636,478.1968,70.90933
-509.17343,275.98233,3.2071497
-477.0172,364.77042,122.51124
-651.2015,251.909,30.393688
-575.9585,215.23581,6.063841
-689.07166,-228.1717,-151.19278
-792.9896,1366.6056,586.7846
-423.1305,1082.7092,621.25
-884.9937,817.43304,327.4548
-944.68835,968.7006,487.37537
-986.68787,589.95404,371.18042
-709.5436,673.8963,368.6736
-564.0269,410.21304,247.37038
-485.07535,621.45294,233.57263
-508.21527,430.5245,153.84207
-510.10416,576.6536,181.4195
-648.08984,521.55475,41.203163
-869.5961,773.00415,178.47691
-1024.4183,436.48846,112.020874
-1235.643,861.90326,305.15793
-1282.743,522.9696,327.37674
-1284.8843,932.0484,464.40155
-1200.1592,980.6972,377.6216
-1140.0763,907.04456,400.54596
-1233.4236,770.14166,343.63193
-1220.2761,797.78796,310.5449
-1015.49243,580.4862,178.00613
-829.7882,904.0997,90.9412
-637.44604,529.70776,128.62723
-476.91116,421.33173,100.28885
-569.9789,285.7976,-3.5923202
-642.54065,409.23624,123.09188
-751.359,155.49908,-28.534702
-644.6281,483.03574,94.33786
-723.5175,-348.29837,26.421692
-821.9481,1270.5259,264.6728
-512.01074,1548.5006,772.3683
-797.05536,595.3271,448.87085
-1021.5921,1015.65326,304.92838
-820.2135,551.50836,284.44482
-697.41296,667.0653,162.18504
-499.46588,567.81805,152.35048
-495.1741,527.37274,156.55988
-535.09296,402.6619,148.79591
-620.07074,477.20053,177.60405
-726.0116,596.90436,186.29176
-940.6963,603.37494,83.17111
-1304.5448,723.8447,267.86295
-1308.1483,526.76965,279.67325
-1193.6166,1141.2322,328.19803
-1154.9524,1016.808,418.9897
-1224.1062,1007.3326,285.7822
-1279.0715,897.4509,272.25183
-1220.8523,678.33655,203.80173
-1098.9784,745.402,180.2914
-1060.3333,757.3121,90.71659
-869.3061,388.1422,131.0987
-544.402,535.3158,260.21408
-573.486,261.2155,142.81894
-541.43207,285.68268,162.30927
-697.2823,60.394527,-40.981007
-491.21057,311.0645,107.442024
-899.0367,-633.14716,-380.4746
-993.1729,1191.3568,697.17267
-472.57748,2101.3933,645.2938
-917.16486,420.45834,170.93253
-971.9839,975.23346,381.06992
-906.7542,456.8801,181.79855
-649.38617,774.47815,241.94402
-549.68115,423.83273,88.50686
-506.57443,627.54175,214.95976
-561.2625,396.88464,210.32083
-604.07556,647.42096,243.47304
-765.70264,460.86584,143.0575
-1052.6577,702.14954,222.65161
-1261.6064,630.3719,369.58142
-1261.8239,1059.1384,288.38315
-1202.6855,1346.7993,276.21848
-1138.6753,1313.674,210.86423
-1107.6488,1194.8613,110.394485
-1140.1141,1032.6307,155.68922
-1110.0702,883.0629,101.35472
-847.9524,625.6529,4.3622694
-649.14685,472.53055,48.74127
-606.3893,520.53625,62.064148
-406.68375,154.72748,-39.10919
-518.8767,420.4845,21.623829
-543.94006,124.92391,-213.30188
-766.8881,342.7727,-103.90701
-813.6275,-126.5877,-195.13771
-1266.1134,350.45856,105.42207
-1009.569,1776.5715,1150.203
-944.9105,616.6007,620.0796
-1311.4557,826.3504,651.69904
-1035.7961,409.14514,433.75095
-818.9218,484.5047,242.94806
-571.4031,591.39874,230.04729
-514.3134,507.3507,250.23112
-560.92285,427.16586,248.07724
-607.5679,423.20364,202.75444
-709.3445,521.3053,144.00206
-901.4753,448.32492,55.407696
-1261.7748,607.12286,228.44823
-1346.7286,721.6711,305.07828
-1114.2275,931.67255,302.2995
-1126.6511,935.4833,409.0522
-1193.9872,978.677,387.5235
-1291.1022,882.3394,404.71442
-1269.1285,896.1184,364.80972
-1349.6692,757.60297,277.0228
-973.69196,535.1627,294.7995
-814.72906,563.657,223.41634
-732.8314,498.51154,288.7067
-676.6335,147.5615,77.12443
-476.32413,228.47229,8.791023
-438.3018,108.03554,49.257557
-400.84464,280.96054,120.19085
-302.65692,-440.42902,-249.77258
-965.6212,621.33276,587.6465
-465.5139,1668.1436,1061.6086
-657.18915,813.1066,361.02277
-1105.9664,981.3547,564.24554
-1016.2415,528.69104,241.26614
-927.66656,746.27673,296.20435
-620.21954,628.3862,81.79145
-504.50928,701.8876,256.31506
-424.17752,488.88638,252.7324
-640.2324,611.3843,344.36493
-610.62085,382.0478,283.1302
-722.6359,566.2923,247.83691
-910.0728,380.90994,203.35475
-1356.6127,879.31635,475.05054
-1160.5338,671.21216,125.44982
-1367.0283,1055.9264,194.06378
-1305.4564,1293.7821,196.06853
-1366.9946,1025.7656,92.984665
-1146.7306,986.6296,205.65141
-1135.2041,852.4989,205.6658
-891.2488,898.96405,213.59991
-877.7114,666.6553,161.515
-605.3956,474.63995,83.57934
-595.90027,387.37988,151.2791
-402.5445,284.77264,-14.884659
-482.45486,210.42549,35.51841
-235.67575,374.93332,-75.5702
-524.5697,356.8413,362.05963
-529.7483,198.64491,-105.647964
-1034.5436,-51.58877,-155.72615
-1036.899,2342.5527,1110.3071
-657.91644,982.5396,327.88492
-890.44745,816.03864,550.313
-766.52924,648.2773,531.9351
-754.13556,456.923,458.4716
-598.8155,523.417,286.37714
-488.36322,548.81274,267.27252
-484.35974,579.71655,305.33685
-598.8974,540.24335,257.82135
-690.80475,911.77466,106.38246
-745.1086,595.789,-10.817923
-981.1533,878.1817,287.64853
-985.0013,599.62683,215.94711
-1174.8176,1155.6509,309.44888
-1199.0658,1363.32,259.65332
-1208.353,1058.9355,223.47511
-1164.4309,1050.562,335.22534
-1132.2073,939.6111,280.02756
-920.0073,731.96533,243.34883
-705.95636,555.82666,157.99759
-509.82098,435.95132,174.72157
-505.24982,490.12476,151.93639
-465.43585,354.8832,57.12855
-507.14725,498.4985,53.933346
-527.784,336.153,54.487408
-747.5876,515.4097,80.18587
-579.3254,-203.98303,-177.94345
-904.5761,431.45978,66.26679
-387.04446,2333.1575,867.6688
-634.4202,585.01636,259.88147
-1213.4819,975.0333,354.27927
-1064.7693,454.054,295.63025
-927.5974,592.4616,336.5388
-622.5264,342.8598,338.6633
-581.7824,512.43134,385.49197
-528.69727,411.68494,245.10274
-624.06506,705.86584,312.71988
-632.6261,528.92303,172.38148
-702.01166,542.44257,52.152637
