acc_x[mg],acc_y[mg],acc_z[mg]
203.252,981.612,79.3
217.404,988.688,72.468
210.816,987.468,80.276
206.18,979.172,87.352
208.62,973.56,88.328
204.96,967.46,90.036
207.156,968.68,88.328
204.716,967.948,90.768
203.74,971.364,90.036
198.372,972.096,90.524
195.932,973.804,88.816
195.444,976.488,87.84
202.276,983.32,83.692
198.86,981.368,90.524
202.276,978.44,92.232
197.64,969.656,94.672
197.884,966.24,96.38
203.008,967.46,91.012
206.668,971.364,88.572
211.792,973.316,84.912
207.644,969.656,84.912
201.544,965.752,85.4
204.228,965.996,80.764
199.104,964.044,79.544
199.348,965.508,77.348
201.788,973.804,76.86
203.008,979.904,78.568
206.668,977.708,77.104
207.644,969.168,74.42
203.74,960.384,77.836
209.596,961.848,77.836
204.96,962.336,85.4
206.18,965.752,89.06
204.96,968.924,88.572
197.396,970.876,89.792
203.496,976.976,86.864
199.348,978.684,92.72
203.008,981.856,89.304
204.96,984.54,93.696
208.132,986.004,97.6
211.548,984.052,95.16
207.888,977.708,96.38
207.644,974.536,96.624
205.936,971.12,97.356
199.348,964.776,98.82
199.348,962.092,96.38
203.496,962.58,92.72
211.548,967.216,88.328
210.816,967.216,88.572
211.06,968.924,89.792
209.108,966.972,92.476
205.448,965.996,92.476
204.472,968.436,88.816
207.888,975.512,86.62
207.644,976.488,88.816
208.864,980.88,90.524
206.912,979.172,95.892
210.084,979.66,97.844
211.304,976.732,98.088
204.716,970.388,101.992
203.496,967.216,102.724
206.424,973.072,103.456
215.696,979.904,101.992
222.528,978.928,100.04
217.892,971.608,98.088
211.792,961.848,103.944
204.716,955.992,106.14
206.668,963.068,102.724
205.692,975.756,101.26
176.412,1016.992,76.616
119.316,1073.6,61.976
111.752,1147.776,50.02
86.864,1200.968,64.416
98.332,1231.224,64.904
121.024,1231.468,79.056
148.108,1193.16,70.76
150.792,1146.8,64.416
165.432,1135.088,68.076
155.428,1148.508,72.468
125.66,1173.884,94.428
101.992,1213.168,114.924
70.272,1247.816,129.076
15.86,1279.536,137.372
8.296,1324.92,129.32
44.408,1366.4,100.284
57.828,1402.756,89.792
60.024,1388.116,85.888
81.008,1313.94,92.964
109.068,1181.692,59.78
85.644,1014.552,61.244
20.74,860.832,84.18
-1.708,720.532,74.42
-5.612,573.4,24.888
-1.464,481.656,-0.488
26.108,370.148,-54.168
-23.424,331.84,-82.228
-36.112,323.3,-98.576
-38.308,284.748,-107.36
-72.956,199.592,-126.392
48.312,66.612,-166.408
207.156,-63.44,-157.136
207.888,-260.104,-157.38
161.04,-437.492,-91.5
397.72,-375.028,-143.96
1063.352,37.088,-238.144
1321.992,189.1,-159.332
926.956,83.936,-205.692
580.964,-126.88,-444.324
510.936,-367.708,-414.8
834.968,-450.912,-382.348
1188.524,-451.644,-407.724
1433.256,-366.488,-418.216
1558.916,-312.564,-331.84
1605.52,-346.968,-247.416
1657.98,-399.184,-169.58
1830.0,-451.644,-128.832
1926.38,-433.1,-142.74
2069.364,-388.448,-100.772
2109.136,-359.656,-25.376
2048.868,-330.62,2.684
1899.296,-317.444,23.18
1714.1,-312.076,41.48
1529.636,-298.656,36.844
1396.168,-276.452,23.18
1333.46,-242.048,-6.344
1256.6,-214.72,-37.82
1180.716,-195.932,-71.736
1124.84,-174.704,-106.872
1076.04,-136.884,-139.324
1053.348,-85.644,-168.36
1000.4,-52.46,-165.92
1008.208,0.976,-180.072
1007.232,5.612,-138.836
993.568,-31.72,-94.428
965.752,-57.34,-126.88
920.368,-73.444,-108.092
864.004,-9.76,-87.108
734.684,29.28,-49.288
537.288,66.612,-76.86
328.912,192.76,-230.092
155.184,295.728,-193.492
54.656,388.448,-215.208
141.276,508.252,-272.06
253.028,657.336,-246.928
343.308,702.476,-204.472
397.72,716.14,-199.592
438.468,711.26,-171.044
528.748,772.748,-155.672
486.536,786.656,-94.184
613.904,754.936,-64.904
1006.256,773.48,-134.932
953.308,680.76,-80.032
690.032,543.388,15.616
646.6,470.92,-10.248
403.576,518.744,-5.368
-24.888,695.4,192.272
-723.46,929.396,326.716
-643.184,509.228,178.12
-96.136,997.228,505.568
-312.808,858.392,426.756
-599.752,586.332,180.804
-642.696,469.944,33.184
-442.616,497.272,68.32
-346.968,659.532,50.264
-368.684,835.7,11.224
-247.904,1009.916,18.056
-159.576,1122.644,35.868
-237.168,1206.58,10.492
-287.432,1263.432,-35.624
-277.184,1293.2,-27.328
-129.564,1408.612,-43.676
-105.896,1464.976,-24.888
-54.412,1479.128,-32.452
-84.18,1418.128,-39.772
-104.188,1303.204,-46.116
-78.812,1213.412,-34.16
-83.204,1134.356,-8.052
-63.44,1074.82,8.784
-61.732,1047.492,4.636
-81.74,1006.744,6.588
-60.512,987.468,19.764
-56.364,979.66,34.16
-28.548,978.44,47.58
-25.62,970.632,59.048
-13.908,965.752,70.272
-8.784,976.244,78.08
-8.54,976.488,90.036
-1.22,986.004,90.768
-10.004,993.324,89.304
-15.372,987.468,93.696
-13.908,974.78,93.452
7.808,971.12,84.424
-11.956,955.992,83.448
-16.104,957.7,77.592
-22.936,957.944,77.348
-26.84,966.728,69.54
-18.056,979.416,57.096
-10.736,987.956,56.364
-7.808,995.52,58.56
-14.152,990.396,65.148
-10.492,991.372,64.172
-3.416,995.032,59.048
1.464,999.668,58.316
-0.732,999.668,61.0
-0.732,996.252,58.316
-1.952,999.424,55.144
-12.932,985.028,50.508
7.32,989.908,41.48
6.588,1007.476,43.676
1.708,1006.744,48.312
-11.468,1002.84,43.92
-30.012,985.272,43.676
-25.864,977.952,45.628
-14.152,980.636,37.332
-12.688,983.076,31.476
-11.712,985.028,31.964
-19.764,984.296,34.648
-16.836,975.756,39.772
-21.716,968.924,43.188
-19.52,970.876,34.892
-15.616,979.904,29.28
-10.248,986.98,29.036
0.488,1007.72,23.18
-4.636,1019.432,26.596
-6.344,1020.652,23.912
-13.42,1010.404,19.764
-13.176,1012.356,21.228
-13.42,1029.924,29.036
-17.324,1050.42,38.064
-26.352,1069.696,47.824
-45.628,1074.088,49.288
-72.468,1091.168,48.556
-95.404,1129.232,56.608
-74.664,1163.392,64.416
-81.008,1163.636,72.224
-97.844,1155.096,64.904
-130.296,1140.212,67.588
-134.444,1165.344,68.564
-120.048,1212.924,74.664
-101.504,1215.12,74.664
-135.664,1200.48,104.676
-160.796,1213.9,76.616
-104.188,1179.984,19.276
35.38,1141.676,13.664
50.02,1098.976,21.96
-26.352,1033.828,29.524
-41.724,1064.572,64.66
-34.892,982.832,56.364
66.368,884.744,-37.576
139.324,892.308,19.52
67.832,866.688,17.08
157.38,846.436,-85.888
37.332,755.18,-13.664
88.084,671.732,-84.424
498.004,640.988,-180.804
606.828,706.136,-127.368
256.2,665.632,-13.908
107.36,592.432,384.3
423.828,222.772,-17.812
707.356,282.796,-555.832
592.676,657.092,-118.34
274.744,520.208,86.376
596.58,339.16,-91.988
1132.648,79.056,19.032
1507.676,-72.468,134.932
1523.536,-35.624,149.816
1289.052,55.876,164.212
1144.604,164.944,205.936
1099.952,236.924,192.76
1067.5,297.192,122.0
1016.992,299.144,117.364
887.428,263.764,97.6
790.56,221.552,81.74
729.56,202.032,88.328
631.472,164.7,80.764
510.936,97.6,70.516
350.384,37.82,93.696
283.04,-53.436,114.436
344.284,-183.732,32.452
505.08,-226.92,-90.28
582.184,-188.124,-156.648
669.78,-172.996,-165.188
819.596,-230.824,-192.516
933.3,-281.82,-246.196
995.52,-284.748,-269.376
1101.172,-296.948,-265.472
1125.572,-322.812,-232.044
1266.848,-353.068,-184.464
1352.248,-443.348,-119.316
1470.832,-568.52,-8.296
1544.032,-678.076,140.3
1632.604,-716.872,269.132
1747.528,-748.592,393.328
1861.964,-738.832,468.724
1946.144,-735.66,563.884
1924.916,-744.932,639.036
1872.456,-727.364,661.728
1707.268,-642.94,594.872
1483.032,-505.568,548.756
1351.028,-364.78,480.192
1255.868,-301.096,416.996
1223.66,-320.86,409.92
1174.372,-351.604,403.088
1048.712,-384.3,394.792
916.708,-402.6,408.456
871.324,-397.476,404.796
924.028,-334.768,392.108
938.18,-273.036,392.84
856.684,-237.656,389.912
785.192,-220.82,368.196
697.596,-196.176,368.196
545.34,-131.76,298.168
466.04,30.988,113.948
418.216,270.352,-36.844
266.448,373.32,-110.044
169.58,418.46,-197.64
215.452,450.912,-208.864
386.252,509.96,-166.652
561.932,556.808,-92.476
684.908,565.348,-5.368
745.176,538.02,65.636
820.084,497.76,125.66
954.04,472.384,183.0
1066.036,462.136,251.564
1088.972,443.592,315.98
1075.552,424.804,374.052
1052.372,417.484,405.284
1004.304,418.46,413.824
966.728,433.832,397.476
968.436,447.008,384.3
988.688,445.544,371.612
956.48,420.9,376.98
1022.36,435.784,375.028
1052.372,462.136,369.172
912.56,456.524,413.824
732.488,467.992,487.512
592.188,506.788,445.544
376.492,589.748,361.12
155.672,585.356,276.208
-101.992,603.9,345.504
-50.508,735.904,427.976
126.392,743.956,348.92
119.316,710.528,174.216
31.964,742.248,201.544
35.136,722.484,240.34
63.684,729.316,238.876
71.98,719.8,198.372
63.928,626.348,129.32
38.308,510.692,88.084
87.352,484.584,53.436
18.544,607.072,9.028
71.248,884.988,-33.672
297.68,1114.836,-53.68
301.34,1260.992,-15.616
361.364,1439.844,-83.936
347.212,1663.592,-98.332
353.8,1744.356,-113.46
294.752,1666.032,-108.092
277.184,1544.52,-100.284
258.396,1391.776,-72.712
238.632,1263.676,-37.82
169.092,1135.088,-10.736
148.596,1046.516,-5.856
162.26,1007.232,0.244
127.124,964.532,26.84
145.18,961.604,3.904
125.66,965.264,-11.224
121.512,956.968,-9.76
178.12,979.904,-28.548
167.628,994.3,-19.52
157.38,999.424,-10.736
157.136,986.492,-9.516
161.284,970.876,-8.052
155.916,961.848,-9.272
160.064,964.532,-14.884
142.74,961.116,-7.32
144.692,952.332,-5.368
173.972,949.648,-13.664
193.98,950.38,-9.272
161.04,949.404,-3.66
146.4,961.36,-7.808
157.136,973.804,0.488
163.968,988.932,1.22
164.7,1005.524,0.976
192.272,1020.164,-10.004
163.236,1006.988,7.564
162.26,1001.376,-0.244
150.792,987.224,6.1
137.616,970.632,12.932
134.932,958.432,7.076
121.756,946.964,7.564
122.976,930.86,-0.976
143.228,933.544,-1.464
157.868,946.964,-2.44
159.576,958.188,-1.952
153.232,959.164,-0.732
147.376,963.312,-5.612
155.184,980.148,-1.952
157.38,998.936,3.904
144.204,999.912,4.392
131.028,990.64,4.392
128.832,983.076,-0.976
127.612,985.516,-7.076
140.056,1000.156,-14.884
128.344,1012.356,-14.64
129.564,1022.36,-14.64
127.856,1031.632,-8.54
126.88,1037.732,-11.468
118.096,1047.736,-9.028
109.556,1078.968,3.66
105.896,1111.664,8.54
105.896,1133.868,4.636
102.48,1154.364,9.272
115.168,1154.852,3.172
95.16,1160.708,4.88
63.928,1171.2,6.1
70.028,1183.4,-3.904
69.296,1179.984,10.492
64.66,1199.26,31.964
70.516,1201.212,32.94
94.916,1187.06,1.22
89.792,1151.924,-23.668
58.56,1117.032,-13.908
50.996,1084.336,-15.128
37.088,1045.784,9.272
-12.688,1018.456,16.104
-129.808,1010.648,82.716
-61.244,965.752,71.004
-140.788,869.372,58.072
-176.168,833.504,93.452
-149.572,780.8,74.176
-158.844,736.392,28.548
-159.088,742.98,-4.392
-127.368,761.524,-3.66
-74.908,806.908,25.376
-58.56,767.136,-10.98
-118.584,811.056,3.416
-125.172,849.364,17.08
-142.74,856.684,14.64
-152.012,863.028,-6.1
-137.616,887.916,-3.66
-104.188,900.604,-29.036
-161.284,910.12,-100.04
-116.144,825.696,-198.616
16.348,681.98,-232.288
381.616,477.264,-244.0
734.928,355.02,-121.024
695.888,144.936,301.584
539.728,-128.1,-82.472
915.732,374.296,-602.68
1427.888,853.268,-367.22
1246.108,756.888,20.008
1146.8,575.108,-91.744
1054.812,162.748,-271.328
1108.004,-59.292,-360.876
1281.244,74.176,-201.788
1176.568,261.324,-19.764
999.912,388.204,-79.056
831.796,402.356,-148.84
806.42,410.164,-146.156
854.488,386.496,-144.692
850.34,330.376,-174.948
808.128,272.06,-181.048
776.164,244.488,-132.492
710.04,194.712,-69.296
580.476,112.484,-8.54
385.52,16.348,52.704
345.26,-78.568,101.748
452.132,-178.12,81.984
525.332,-219.356,-44.896
553.88,-201.056,-170.8
621.712,-172.264,-290.848
737.856,-190.076,-418.216
911.584,-189.832,-536.068
1074.332,-192.272,-609.756
1106.052,-236.192,-617.808
1197.796,-361.12,-555.1
1318.088,-516.548,-446.276
1382.992,-589.748,-369.416
1449.116,-556.564,-305.488
1499.38,-495.076,-216.184
1538.664,-457.5,-153.232
1610.4,-438.468,-133.468
1786.08,-444.324,-124.684
1967.616,-441.884,-145.424
2025.932,-434.564,-194.712
1982.012,-401.38,-200.08
1896.368,-387.472,-144.692
1819.02,-399.916,-78.812
1720.444,-457.744,-13.42
1610.888,-491.904,16.836
1505.968,-500.688,26.108
1392.996,-471.652,25.376
1280.512,-436.516,18.544
1230.736,-407.724,20.984
1195.356,-384.056,28.548
1110.444,-366.244,33.184
994.3,-361.852,23.18
862.54,-359.168,-7.32
706.136,-319.396,-69.784
516.06,-217.892,-121.268
273.768,-102.724,-214.72
33.672,40.992,-229.604
-69.784,144.936,-285.236
-14.64,268.4,-312.32
115.9,393.572,-304.756
282.552,474.824,-278.404
433.1,524.112,-250.1
558.516,524.844,-230.58
721.996,518.744,-205.692
885.476,505.324,-178.364
1016.504,511.912,-147.132
1107.76,519.964,-123.22
1145.824,508.008,-96.868
1163.148,499.956,-87.596
1132.648,494.344,-72.224
1096.78,509.716,-56.608
1063.108,518.256,-49.776
1018.7,514.108,-26.108
1063.84,557.296,-24.156
1122.644,602.192,5.368
1061.888,523.38,-22.204
982.344,529.724,144.692
1022.848,576.328,122.244
1076.04,603.656,86.864
932.568,546.56,122.976
783.24,559.736,159.332
565.104,569.496,160.064
411.628,584.38,148.352
253.028,613.172,115.9
132.492,697.84,158.844
69.052,690.032,211.304
11.468,689.3,223.26
-79.056,692.228,225.212
-102.48,655.384,202.52
-91.744,651.724,192.028
-62.708,629.52,177.388
-50.752,658.556,120.78
-107.848,640.256,105.408
-166.408,635.864,132.004
-138.592,660.264,140.788
-126.148,677.1,115.412
-23.424,749.08,32.94
210.084,960.628,-40.504
319.152,1272.46,-40.992
295.24,1457.656,-71.98
210.816,1495.232,-140.3
207.888,1516.46,-185.196
292.8,1510.604,-228.872
277.184,1477.42,-213.988
234.484,1389.092,-205.204
209.596,1296.128,-202.764
200.812,1198.284,-199.104
179.34,1099.952,-184.952
152.5,1021.384,-159.82
142.984,969.9,-145.424
147.132,946.232,-146.156
161.284,934.764,-143.96
155.184,933.3,-127.368
165.92,948.428,-117.12
187.392,964.044,-107.116
213.012,982.344,-112.484
193.248,989.664,-96.136
189.832,988.2,-81.252
196.176,979.416,-66.856
187.88,964.532,-53.68
199.348,959.164,-49.288
198.86,959.408,-43.676
194.712,959.164,-36.6
204.228,962.58,-36.356
188.368,967.46,-26.596
169.336,964.288,-19.52
180.804,962.58,-23.18
174.46,962.336,-23.912
176.168,956.48,-28.06
175.68,953.552,-31.476
159.82,949.648,-33.916
164.212,952.576,-41.236
164.944,962.092,-43.188
162.504,971.364,-46.604
162.504,987.224,-52.216
149.084,1007.232,-64.172
151.28,1042.856,-64.66
156.892,1076.772,-72.468
132.004,1090.436,-41.48
152.256,1137.772,-95.16
119.804,1149.24,-46.116
151.036,1202.188,-24.4
159.82,1197.796,-30.012
109.8,1196.088,-5.368
110.288,1186.572,-7.32
97.112,1164.612,5.368
84.424,1150.216,28.548
107.116,1130.94,35.38
119.316,1104.1,30.744
117.364,1078.48,25.376
125.66,1065.06,2.44
94.428,1035.048,-1.952
105.164,1030.412,12.688
91.256,997.716,10.004
70.516,956.236,-3.904
33.428,908.9,-6.1
6.1,874.252,9.516
-23.424,845.948,24.4
-17.324,837.652,8.784
-35.136,827.648,15.86
-59.292,813.74,24.4
-73.932,817.4,25.132
-82.228,820.328,21.96
-92.476,812.764,5.124
-132.736,800.808,-2.684
-176.412,771.772,-10.248
-217.16,707.6,-50.508
-499.712,638.792,-153.232
-594.872,713.7,-172.02
-59.78,691.984,-161.04
410.896,476.776,-188.612
895.48,285.48,-135.664
1077.016,73.444,-269.132
938.668,65.88,-138.348
857.904,-6.588,-532.652
1696.532,742.736,-607.804
1498.648,1027.484,50.508
1173.152,287.432,52.216
1001.62,42.7,-99.552
1092.144,-248.392,-379.664
1251.476,-126.148,-204.716
1298.568,142.984,-18.788
1068.964,303.048,21.716
753.228,315.004,-95.648
612.928,284.016,-152.5
714.432,254.736,-130.54
797.148,204.96,-147.376
780.8,146.644,-188.612
681.492,100.772,-175.192
629.52,57.096,-108.336
601.216,-22.448,-15.86
546.316,-159.332,54.9
500.444,-302.56,3.416
468.236,-369.904,-153.964
445.544,-341.112,-308.416
588.04,-296.216,-492.148
791.048,-305.244,-719.312
889.38,-253.76,-909.388
882.792,-229.604,-928.664
1034.56,-278.892,-836.92
1166.808,-450.18,-646.844
1231.956,-651.724,-571.204
1372.256,-762.988,-505.324
1640.168,-766.16,-381.616
1843.176,-695.644,-346.968
1966.396,-622.932,-368.684
2011.536,-567.3,-353.312
2003.972,-508.74,-294.508
1906.128,-487.512,-239.364
1789.008,-467.992,-215.452
1665.056,-462.136,-197.884
1527.684,-415.044,-177.876
1437.16,-365.756,-142.496
1392.02,-331.596,-168.36
1321.016,-314.028,-195.2
1232.932,-284.016,-233.996
1159.0,-296.704,-238.388
1115.568,-317.688,-218.38
1089.216,-274.012,-265.96
970.388,-205.692,-242.78
893.284,-156.892,-180.56
690.52,-162.992,-176.412
442.616,-92.476,-159.332
286.456,9.272,-147.376
148.596,91.256,-170.312
65.636,216.184,-203.008
36.112,357.948,-183.244
34.648,476.288,-203.496
151.28,590.236,-226.676
293.044,671.976,-239.608
486.048,731.756,-233.752
644.892,748.592,-233.264
746.152,739.076,-221.796
812.52,739.076,-190.32
821.548,714.188,-141.276
836.188,686.86,-117.12
867.42,660.996,-111.264
923.296,651.48,-121.268
955.504,647.576,-114.68
945.744,642.94,-115.412
905.24,624.64,-117.364
866.688,616.588,-107.116
834.236,603.9,-94.428
824.964,590.236,-78.08
835.212,592.188,-68.076
838.14,592.92,-39.772
888.648,612.928,-18.788
943.06,643.428,-10.004
997.716,681.492,16.104
986.248,704.428,52.704
1002.108,697.108,85.888
875.716,612.44,135.908
710.284,602.436,147.62
605.852,640.988,139.568
398.208,665.388,115.656
152.744,724.68,145.668
7.564,793.732,168.116
-1.22,831.308,143.96
-48.8,808.372,103.7
-28.792,796.416,117.852
-0.976,795.196,131.76
17.324,761.036,161.528
-34.16,683.444,204.472
-23.912,623.176,235.216
20.008,598.532,261.324
61.732,640.744,299.388
91.256,696.132,356.484
96.38,755.18,386.496
-8.296,885.476,389.912
-81.74,1022.848,278.648
-40.748,1171.2,160.308
37.332,1325.652,53.436
20.496,1439.844,9.76
3.416,1484.74,0.0
-18.056,1459.364,32.94
-45.14,1385.188,61.976
-97.6,1269.044,60.268
-82.716,1179.008,29.768
-77.348,1108.736,26.596
-30.988,1073.844,9.516
-40.748,1043.832,2.196
-78.08,1006.012,10.98
-33.916,1002.84,1.952
-41.48,1015.528,2.196
-41.236,1013.82,3.416
40.992,1043.344,-22.448
2.196,1046.028,-12.932
9.516,1018.456,-5.856
48.312,1015.528,-1.22
19.276,1014.796,12.2
21.472,999.912,22.204
42.456,1002.352,17.324
4.148,981.368,27.816
1.952,952.576,35.624
20.496,953.308,29.036
-25.132,939.888,37.088
-25.132,922.32,36.844
13.908,951.356,10.492
-34.16,955.504,19.764
-24.4,959.164,11.712
-46.116,963.556,10.98
-60.512,951.6,12.932
-25.864,969.656,-4.392
-21.716,986.98,-20.496
-4.636,1003.328,-37.576
0.244,1028.46,-49.776
-23.18,1032.364,-43.432
-19.276,1031.144,-43.676
-30.012,1022.848,-41.236
-36.844,1019.432,-41.236
-15.616,1023.824,-52.704
-18.544,1034.072,-60.024
-44.408,1031.144,-48.556
-42.212,1025.532,-48.8
-56.852,1021.628,-46.848
-76.86,1015.04,-42.944
-78.08,1009.428,-45.628
-71.248,1012.112,-50.508
-76.86,1012.6,-48.556
-72.712,1008.94,-54.412
-75.64,995.764,-56.12
-79.788,975.512,-56.608
-68.32,957.212,-59.536
-71.98,941.596,-55.632
-66.124,927.932,-50.752
-58.56,921.344,-50.508
-55.632,924.516,-53.924
-52.948,925.736,-52.46
-45.872,932.812,-60.512
-62.708,950.38,-70.76
-70.516,997.716,-77.348
-93.208,1056.764,-75.152
-142.008,1095.804,-56.364
-178.608,1143.872,-39.772
-215.696,1224.392,-38.552
-228.872,1284.172,-28.792
-252.296,1307.596,-16.836
-262.056,1322.968,-10.248
-255.468,1381.772,25.62
-190.808,1406.172,66.368
-204.472,1314.672,66.612
-231.8,1205.36,44.896
-115.168,1116.056,0.244
142.74,1078.48,-42.944
183.976,993.568,-37.332
120.536,906.216,-24.644
101.016,824.964,-47.336
193.98,774.944,-62.952
265.228,743.712,-45.14
394.548,759.572,-29.036
350.872,755.668,-28.792
170.556,729.56,-15.372
58.56,685.152,-47.58
14.884,663.192,-79.544
-4.392,644.892,-72.224
31.964,630.984,-46.848
42.944,605.852,-19.52
-15.372,560.224,-3.66
-53.68,501.908,-32.696
-60.756,497.516,-93.696
-90.036,574.132,-163.724
-23.912,693.692,-201.3
443.836,726.388,-134.688
854.244,606.096,-133.468
958.188,190.564,148.84
808.372,-736.392,126.392
891.088,-441.884,-31.232
2224.06,624.884,-298.412
1736.304,953.796,432.856
1214.144,322.324,-21.96
1133.38,209.108,-98.088
1126.06,-79.056,-184.22
1243.912,-42.7,-20.496
1349.564,121.756,119.804
1137.528,242.048,119.56
865.468,236.68,23.424
738.588,214.964,2.44
791.292,180.072,15.86
806.42,134.932,24.156
648.308,110.288,29.768
409.92,93.696,83.448
233.752,53.192,111.264
186.66,-32.208,126.88
303.048,-151.768,141.276
449.448,-261.568,109.068
532.652,-313.54,42.456
672.708,-350.384,-38.796
807.152,-381.616,-83.204
998.448,-387.96,-122.976
1224.636,-371.368,-159.332
1382.26,-417.972,-222.04
1445.7,-498.248,-274.5
1455.948,-600.24,-264.252
1432.524,-630.008,-215.208
1405.684,-630.252,-167.628
1372.5,-638.06,-113.216
1374.94,-651.724,-62.464
1291.736,-603.168,-35.136
1322.724,-550.708,-41.236
1461.804,-523.868,-54.412
1581.608,-526.552,-85.156
1636.508,-518.5,-117.12
1700.924,-490.44,-121.756
1780.712,-510.936,-78.08
1777.296,-551.44,-49.532
1732.888,-595.36,-18.056
1667.496,-634.888,39.04
1604.056,-652.212,80.764
1555.5,-639.036,105.164
1508.164,-610.976,126.88
1441.796,-568.276,145.424
1392.508,-537.532,138.592
1372.744,-511.424,128.344
1301.252,-487.512,128.832
1255.136,-454.328,118.584
1152.168,-419.68,100.284
953.308,-369.172,73.2
706.624,-298.412,35.136
444.08,-222.772,-36.112
119.316,-108.58,-175.68
-239.608,94.184,-354.044
-316.712,382.836,-301.584
-199.592,435.052,-324.276
-27.816,539.24,-283.772
203.984,575.596,-245.708
382.836,570.228,-188.368
520.208,579.988,-138.348
638.06,575.84,-103.456
817.156,600.24,-31.232
927.688,609.024,10.004
994.788,617.076,39.04
1012.844,616.344,70.76
994.3,612.928,80.52
950.868,607.072,91.744
922.076,599.996,87.84
895.724,593.896,79.788
892.796,604.144,68.808
883.036,624.884,61.976
885.232,650.016,58.56
889.136,678.564,53.68
852.536,696.62,60.268
783.728,681.736,82.716
769.088,678.808,58.804
772.504,695.4,97.6
673.44,662.46,141.276
579.744,618.052,146.156
549.0,660.02,173.728
552.172,746.64,161.04
364.536,640.256,162.26
231.8,617.808,88.572
197.64,678.32,64.172
50.02,666.364,65.148
-151.036,642.94,47.336
-88.084,696.864,40.26
43.92,807.884,60.512
186.172,873.276,115.656
138.348,786.412,115.656
74.176,732.732,73.444
52.216,733.952,-2.928
17.324,795.196,-12.688
34.404,838.384,34.648
80.764,928.664,34.404
89.304,1129.232,-1.22
53.192,1322.236,-60.756
16.836,1449.604,-120.536
26.352,1547.692,-157.38
51.728,1575.02,-167.384
96.38,1585.512,-187.88
36.112,1514.508,-163.968
5.612,1381.528,-141.764
36.844,1275.632,-128.832
31.476,1171.444,-104.432
2.44,1057.74,-67.344
-3.66,958.188,-41.968
45.14,918.66,-29.036
74.176,907.192,-15.86
86.132,912.56,-4.392
100.04,920.612,-6.588
103.212,926.956,-14.152
107.604,928.176,-5.124
147.132,957.456,-3.904
141.52,987.712,12.2
130.784,998.936,20.008
135.176,1012.112,22.936
104.432,1006.744,37.088
101.748,994.788,38.064
142.252,1004.548,27.572
122.732,1010.16,39.528
107.848,1000.156,47.58
121.756,1009.672,36.6
97.356,1004.792,38.552
67.344,989.42,36.6
71.248,981.856,26.596
64.904,971.364,21.472
82.472,968.924,9.028
100.04,982.832,-16.104
69.54,986.736,-11.712
86.864,986.248,-14.396
73.932,980.636,4.148
73.444,969.9,12.444
95.648,972.828,5.124
75.884,962.092,10.736
81.74,954.284,13.176
121.024,974.292,-9.028
72.712,982.832,10.98
78.08,995.52,6.344
62.22,990.396,9.76
44.896,977.952,18.788
74.176,983.076,4.392
64.904,988.932,-10.248
48.8,976.732,-0.976
70.028,976.488,0.488
61.0,980.636,0.732
35.38,976.0,10.248
68.808,982.832,-6.1
74.42,995.276,-28.548
54.168,1002.84,-27.084
69.052,1009.184,-36.112
58.072,1008.696,-40.26
70.272,1013.82,-42.944
72.956,1019.676,-42.456
63.684,1011.624,-29.036
84.424,1012.844,-27.816
56.852,1001.376,-16.348
55.388,984.54,-11.956
65.148,976.0,-10.492
72.224,972.584,-7.564
72.956,976.244,-7.564
74.908,982.832,-6.588
83.936,991.86,-3.172
83.204,995.032,-0.244
81.008,996.984,-6.344
66.856,995.276,-2.196
73.688,1009.428,2.928
50.508,1047.736,12.688
11.712,1129.964,13.42
-26.596,1231.224,27.816
-65.148,1302.228,46.116
-92.72,1346.392,16.592
-120.536,1382.26,-7.808
-108.336,1378.356,-9.76
-78.324,1339.56,-1.22
-10.004,1262.456,-27.572
2.684,1156.072,-19.032
-4.636,1054.812,-19.764
-11.956,981.612,-13.176
-13.908,936.228,-6.832
-23.668,911.096,-3.172
-41.48,898.652,10.736
-81.496,894.26,14.396
-126.392,875.716,2.684
-182.756,866.688,9.272
-174.46,861.808,6.832
-172.02,848.144,28.792
-153.232,839.116,45.872
-146.644,812.032,47.092
-154.696,788.12,38.308
-158.844,773.724,34.648
-147.376,788.608,20.984
-153.476,807.64,6.1
-173.484,818.62,-7.564
-208.132,809.836,-13.908
-262.788,785.68,-30.988
-428.708,714.676,-75.396
-650.748,667.828,-148.84
-554.856,783.972,39.284
-198.616,790.804,107.848
196.176,638.792,17.812
443.592,534.848,-138.104
593.652,24.888,-211.548
546.072,-198.372,-11.712
688.568,-118.34,-412.116
1554.524,873.52,-198.128
1613.084,1129.72,29.524
1299.056,507.032,80.032
1194.868,284.992,-114.924
1279.78,-44.652,-473.604
1242.936,105.408,-192.76
1140.944,322.812,33.428
907.436,470.92,93.696
689.788,453.352,-7.076
703.94,395.28,-61.976
812.032,356.728,-50.752
843.996,319.64,-75.396
743.956,283.284,-110.044
600.728,247.172,-93.208
452.864,181.048,-45.14
376.004,81.74,27.328
356.728,-78.812,90.28
305.244,-188.856,-6.1
152.256,-253.516,-127.368
253.272,-305.732,-184.952
452.132,-405.284,-252.784
561.688,-494.588,-307.196
882.06,-504.836,-324.032
1152.168,-513.864,-302.316
1279.536,-629.764,-308.172
1390.068,-762.5,-278.892
1604.788,-853.512,-290.604
1767.536,-863.028,-328.18
1790.96,-770.064,-358.436
1738.012,-645.868,-394.06
1738.5,-582.916,-354.044
1777.296,-583.892,-252.296
1779.248,-598.776,-180.316
1840.492,-577.06,-157.136
1840.492,-542.9,-115.9
1774.368,-532.896,-65.88
1670.668,-522.892,-8.296
1594.54,-554.368,31.476
1560.624,-617.808,72.224
1576.972,-626.836,100.772
1534.76,-672.464,126.392
1446.432,-649.04,147.132
1284.416,-572.424,163.968
1079.7,-490.684,191.784
928.908,-408.944,190.808
808.128,-313.54,159.576
651.48,-209.108,104.188
402.112,-151.524,20.984
72.224,-45.14,-113.948
-240.34,126.148,-186.904
-244.976,299.144,-217.892
-149.084,406.016,-212.768
15.86,458.476,-259.372
335.256,463.356,-290.36
627.08,479.46,-305.732
758.596,491.416,-305.0
827.648,508.008,-255.224
966.24,492.392,-189.832
1147.044,478.484,-125.416
1281.732,455.304,-79.544
1303.692,426.024,-37.088
1232.932,416.02,-12.932
1126.548,422.608,0.0
1050.176,452.62,6.1
1032.364,490.928,5.612
1088.972,541.436,1.708
1138.016,617.564,-8.052
1128.988,630.984,-0.732
1103.856,700.524,29.036
936.228,654.652,-0.244
713.944,626.836,12.688
577.06,632.204,7.32
473.604,638.548,8.784
284.504,637.572,102.236
137.86,668.804,96.136
82.228,745.908,55.876
129.564,797.88,18.788
108.092,810.324,4.148
-81.74,801.296,75.396
-86.132,802.76,123.952
125.416,787.632,130.052
325.252,793.732,172.996
219.112,732.488,228.628
118.096,647.576,249.612
138.592,640.5,277.428
198.86,685.884,249.368
149.816,676.612,196.176
-13.664,721.02,146.156
-21.472,836.432,71.248
36.6,973.56,4.636
31.964,1110.2,-73.444
-3.66,1219.268,-161.528
-1.464,1283.928,-231.8
9.028,1333.216,-253.272
74.908,1392.264,-270.84
63.928,1388.848,-245.464
86.376,1338.34,-229.848
49.044,1263.92,-213.988
32.452,1181.204,-186.416
116.388,1157.536,-175.436
87.108,1123.132,-139.568
66.124,1069.452,-138.104
90.036,1052.616,-150.792
83.448,1036.268,-145.668
60.024,1004.06,-134.444
102.724,1007.476,-135.908
109.8,1019.188,-120.536
95.892,1004.304,-102.48
111.02,982.832,-93.696
130.784,985.76,-87.84
96.624,959.896,-66.368
114.68,936.472,-57.34
148.84,946.964,-68.808
84.424,937.204,-48.068
77.836,938.424,-61.488
59.292,940.376,-53.192
79.3,955.26,-52.948
109.8,973.804,-62.464
134.444,994.3,-70.028
180.56,1029.192,-85.156
144.204,1032.12,-61.976
137.86,1023.824,-56.608
141.032,1027.24,-57.828
108.092,1007.232,-42.212
95.892,984.54,-44.652
103.944,966.484,-54.412
103.7,967.948,-56.364
83.692,960.14,-50.752
84.912,953.308,-54.656
71.004,945.5,-52.704
65.392,938.424,-51.728
86.62,934.764,-64.66
80.52,935.984,-70.76
86.864,945.5,-68.808
95.404,973.072,-71.004
99.552,1006.012,-76.616
114.924,1028.216,-86.864
120.536,1040.172,-91.012
122.976,1046.272,-90.28
119.56,1038.952,-89.304
109.068,1020.408,-91.744
85.888,994.3,-89.548
81.008,977.708,-91.256
78.568,971.364,-89.548
76.616,965.508,-86.376
65.636,962.58,-77.104
44.896,969.656,-64.66
4.148,988.2,-56.12
-75.884,1041.148,-48.8
-118.34,1155.828,-68.076
-93.696,1266.36,-110.044
-83.936,1320.528,-157.136
-50.752,1344.684,-183.488
-0.732,1325.164,-165.92
29.768,1291.98,-161.04
130.052,1217.316,-186.172
142.74,1111.664,-184.464
83.936,1019.188,-153.72
81.74,947.94,-134.932
52.216,899.628,-115.656
9.516,874.008,-117.852
-14.884,891.82,-118.34
-31.964,931.104,-111.02
-53.68,949.404,-112.728
-67.832,954.04,-118.828
-85.644,941.84,-113.216
-104.188,945.988,-85.156
-122.976,946.476,-49.776
-135.908,935.252,-38.308
-161.04,908.656,-39.284
-136.396,885.232,-31.232
-192.516,929.152,-7.076
-201.544,874.496,-72.468
-271.572,868.884,-57.584
-207.888,904.752,-75.884
-162.26,912.804,-49.776
-201.3,887.672,-33.916
-213.256,877.18,-40.992
-244.0,847.656,-34.16
-273.524,821.304,-34.892
-315.98,798.124,-30.012
-452.376,744.688,-32.452
-574.62,679.54,-74.176
-521.184,682.956,-71.98
-392.352,773.48,53.436
-59.048,727.608,40.992
475.8,666.852,-0.976
777.628,666.364,-48.068
1112.64,294.02,-84.668
1128.256,165.188,-253.272
480.924,-75.884,195.2
703.94,394.548,71.004
1000.4,904.264,241.56
1398.12,576.572,221.552
1470.344,345.016,182.024
1276.364,139.568,82.96
993.324,108.336,-47.336
736.88,193.004,111.264
640.744,319.64,187.636
595.36,324.276,158.112
570.472,231.556,93.94
531.676,144.936,50.996
477.508,95.892,94.916
390.888,18.788,93.208
296.704,-72.224,-1.22
356.972,-139.812,-114.436
578.768,-177.876,-177.388
633.18,-217.404,-243.268
601.704,-256.688,-374.052
794.464,-320.372,-486.048
1045.296,-357.46,-543.388
1196.82,-425.78,-601.46
1259.528,-568.276,-622.444
1388.36,-662.948,-552.416
1374.452,-725.412,-511.18
1332.972,-786.168,-496.54
1290.516,-791.048,-509.472
1225.368,-800.564,-515.328
1216.584,-790.316,-531.92
1296.128,-782.996,-528.992
1286.612,-780.312,-540.216
1303.204,-759.084,-569.984
1407.148,-763.232,-557.54
1451.8,-757.62,-541.192
1444.724,-749.812,-534.36
1413.98,-731.756,-518.012
1383.236,-714.92,-490.196
1356.396,-656.848,-467.016
1323.7,-580.964,-448.716
1293.688,-532.164,-435.784
1349.564,-535.336,-382.592
1528.416,-550.708,-369.416
1583.56,-538.264,-377.956
1494.5,-575.84,-361.608
1343.952,-580.964,-345.016
1112.884,-538.752,-229.116
832.04,-364.78,-170.556
469.7,-205.692,-207.4
141.032,11.468,-227.164
-71.736,173.972,-210.816
-64.66,261.08,-286.456
14.396,404.308,-366.488
46.848,458.476,-288.896
152.744,531.676,-248.148
359.168,601.948,-208.864
521.916,643.184,-130.296
638.06,638.304,-82.472
720.288,614.148,-40.748
776.652,584.868,14.64
854.488,570.228,79.544
922.808,572.18,141.276
961.116,576.816,183.976
997.716,576.084,206.424
1014.796,580.232,221.064
991.372,582.916,229.116
954.528,597.312,229.848
916.22,615.612,234.972
866.688,622.444,243.268
866.688,629.52,249.124
869.616,548.756,251.808
823.988,588.772,247.904
787.388,586.576,322.08
778.36,591.7,324.032
738.832,549.244,235.704
573.644,506.544,210.084
422.364,509.96,167.14
390.644,550.22,109.068
277.184,590.968,74.42
159.332,625.128,55.876
133.712,757.376,18.056
102.48,855.464,-2.928
110.288,900.848,-4.88
101.748,931.104,25.132
118.584,956.48,20.496
127.124,875.96,-71.492
174.216,859.856,-18.056
210.572,848.388,-24.156
197.396,878.4,-79.788
131.76,927.688,-83.692
149.084,1027.484,-43.188
183.488,1129.72,-10.492
170.8,1203.652,-6.344
104.432,1243.912,6.832
68.808,1204.628,0.488
-30.5,1173.152,-45.628
-105.408,1163.636,-80.276
-75.396,1201.212,-91.988
-17.568,1226.344,-97.6
-24.644,1241.472,-121.024
-42.456,1224.636,-130.54
-17.324,1195.844,-127.856
-9.76,1156.56,-114.192
-5.124,1101.66,-113.704
-14.64,1045.052,-119.56
-5.368,1010.404,-120.048
5.856,999.424,-98.088
24.156,999.668,-71.004
32.696,994.788,-47.58
40.992,966.728,-27.084
81.252,966.24,-29.524
63.928,952.576,-12.444
105.408,958.92,-13.908
121.756,990.152,0.0
98.332,976.732,36.356
120.048,984.052,48.556
145.18,1014.308,47.824
105.896,1002.352,55.876
111.752,986.736,61.0
141.52,1013.82,50.508
92.476,1001.62,70.516
125.66,994.3,68.076
131.272,994.056,60.512
101.26,976.0,61.244
98.332,963.312,66.612
81.252,953.552,80.764
71.736,937.448,89.548
112.484,961.848,73.444
74.908,966.24,78.812
79.3,960.384,75.64
139.324,990.152,51.484
93.208,1008.696,62.464
116.632,1021.14,58.316
97.112,1031.144,75.64
101.016,1021.384,68.32
70.028,1000.644,71.492
60.512,979.172,72.712
59.048,952.82,74.908
58.56,938.912,63.44
64.66,946.476,46.848
73.932,965.02,40.504
91.5,991.86,28.06
73.444,994.544,36.6
71.248,986.004,47.092
78.812,987.956,44.652
66.368,986.736,44.652
89.548,998.204,33.184
81.496,1002.596,34.16
84.18,1005.768,32.208
68.076,993.08,40.26
66.856,986.248,37.088
56.12,981.368,35.136
62.708,986.004,32.208
66.612,990.64,33.184
71.736,990.884,33.672
61.244,983.32,42.7
68.564,983.808,45.14
73.2,993.568,44.652
82.472,1013.088,35.868
71.004,1054.08,36.112
42.456,1110.444,43.676
-6.1,1183.156,30.5
-77.592,1253.184,9.76
-150.792,1308.328,-20.252
-154.208,1362.252,-18.056
-107.116,1416.908,1.952
-46.116,1435.696,29.28
29.036,1382.016,32.208
120.048,1327.36,4.148
120.78,1267.092,0.244
145.424,1175.592,11.224
192.516,1085.312,29.036
241.804,1043.1,23.18
163.724,990.396,102.236
130.296,925.248,114.924
85.644,871.08,113.704
24.156,809.348,134.688
-21.96,745.42,132.004
-83.692,693.204,136.152
-153.232,638.304,127.612
-293.776,573.644,99.796
-431.392,470.676,53.436
-488.0,416.508,78.568
-394.06,547.78,102.724
8.784,360.876,-31.476
703.452,230.58,-112.728
1050.176,178.608,-176.412
966.24,-141.276,174.948
951.6,-386.74,-662.948
1423.496,867.908,-474.092
1624.308,870.104,-164.212
1200.48,768.844,235.948
1046.516,165.92,-93.208
1034.316,-236.68,-358.924
1164.124,-13.176,-119.072
1062.864,351.36,125.904
778.848,499.712,93.94
481.412,466.04,-32.208
490.44,398.696,-40.26
643.672,308.904,-6.832
689.788,232.532,-25.62
595.116,151.28,-4.636
508.252,84.668,43.188
476.044,-5.612,86.132
355.996,-96.868,169.824
253.76,-206.18,189.1
240.34,-348.676,71.248
428.464,-432.368,-139.568
702.72,-404.796,-314.516
929.396,-369.172,-527.284
1130.94,-351.848,-668.804
1274.9,-357.216,-674.416
1378.356,-436.76,-675.392
1382.992,-576.816,-714.188
1410.808,-646.844,-681.004
1481.568,-616.1,-563.884
1423.496,-564.616,-459.208
1364.692,-556.564,-386.984
1379.088,-540.704,-324.764
1508.164,-535.58,-275.964
1621.38,-532.896,-284.504
1769.488,-511.424,-292.8
1883.192,-476.288,-297.436
1963.956,-450.18,-283.284
1870.748,-445.3,-281.332
1733.864,-457.988,-264.008
1632.604,-503.86,-267.18
1558.428,-560.224,-260.592
1545.008,-628.788,-277.672
1592.832,-626.104,-325.74
1617.232,-622.444,-323.544
1637.24,-601.46,-285.968
1499.624,-527.284,-247.66
1183.888,-457.988,-182.024
790.316,-420.656,-156.16
421.632,-391.62,-155.184
126.392,-295.972,-207.156
-269.62,-146.4,-269.864
-595.36,65.148,-205.936
-477.996,208.132,-246.928
-155.916,338.672,-319.152
173.972,423.096,-324.52
442.616,487.756,-334.28
590.236,538.264,-341.356
653.676,561.2,-321.104
738.1,560.712,-294.02
829.112,555.588,-271.084
948.672,546.804,-244.976
1078.724,553.88,-226.432
1163.88,576.572,-218.624
1167.052,593.652,-191.296
1150.216,606.096,-162.504
1128.256,621.224,-139.812
1082.14,628.056,-110.288
972.096,580.232,-72.956
906.948,584.136,-30.256
897.676,572.424,-53.924
768.6,554.856,-6.832
730.292,591.944,20.984
602.68,610.488,48.068
489.464,635.62,81.984
463.6,692.96,81.74
388.204,732.732,91.5
243.268,766.404,104.676
203.74,768.356,88.572
156.648,765.672,61.976
93.696,778.36,29.768
13.176,783.484,-0.244
-45.14,775.676,-17.812
-46.116,772.26,-8.54
40.748,775.188,-7.076
77.104,799.1,-33.428
114.192,876.692,-54.412
103.944,947.696,-49.776
105.896,967.704,-41.236
45.14,985.272,-77.836
50.752,1069.94,-153.232
40.016,1163.148,-203.74
-0.732,1248.792,-170.312
-12.932,1303.692,-164.212
-1.952,1309.304,-140.056
44.164,1292.956,-157.136
37.088,1274.168,-156.16
-29.768,1211.216,-145.912
-29.768,1130.208,-108.58
-2.44,1074.332,-76.86
6.588,1037.976,-84.668
-25.864,1016.26,-90.28
-28.792,998.936,-79.3
7.076,1003.084,-83.448
20.496,1020.408,-75.396
5.612,1006.988,-56.608
97.356,1035.78,-87.84
66.368,1047.492,-75.396
39.528,1033.34,-50.996
56.12,1003.816,-36.356
88.572,1005.036,-34.16
50.752,985.028,-8.296
50.264,964.532,-2.684
109.556,974.536,-23.18
72.956,974.536,-8.296
59.048,964.288,2.928
105.164,984.54,-9.028
53.924,977.464,12.444
56.12,972.828,21.716
79.056,976.244,17.08
39.04,956.724,25.376
89.548,969.656,6.344
96.136,987.956,3.416
50.264,988.2,19.032
85.4,1001.62,5.612
66.124,1002.84,18.544
39.772,986.004,31.232
65.148,987.224,17.324
56.364,980.636,21.96
55.144,975.512,22.204
83.204,984.784,12.688
61.732,984.296,20.496
53.436,979.416,20.496
48.8,974.292,17.812
43.432,972.096,19.276
49.776,974.292,11.224
52.216,974.536,-1.708
69.784,984.784,-18.544
94.672,997.716,-29.768
107.116,1010.404,-28.304
108.336,1016.26,-26.84
107.604,1014.552,-23.18
100.528,1007.232,-16.104
94.184,998.936,-10.492
97.112,995.276,-11.224
86.864,981.856,-3.66
106.384,982.832,-19.032
83.204,978.928,-12.932
73.444,971.852,-7.564
70.028,975.024,-7.564
81.008,981.124,-13.664
87.108,999.18,-22.448
93.208,1024.068,-29.036
97.844,1035.048,-27.816
89.06,1026.508,-25.132
71.98,1004.304,-20.252
66.368,977.952,-17.568
73.932,969.168,-25.132
74.42,968.924,-25.132
91.012,976.732,-28.792
95.16,990.396,-25.864
80.276,988.688,-13.664
96.624,988.2,-12.932
80.764,979.904,-6.344
71.492,970.876,-4.148
103.212,983.808,-24.156
83.448,988.688,-19.032
89.792,994.3,-18.3
97.844,1008.696,-23.668
62.464,996.74,-10.492
62.952,990.64,-10.492
56.12,983.32,-7.564
71.736,985.76,-16.104
69.784,988.688,-15.372
78.568,994.3,-15.86
87.108,998.448,-16.592
74.908,995.52,-8.784
75.396,991.372,-2.928
76.616,995.276,-3.66
77.836,1003.572,-6.344
70.028,1010.648,-5.612
69.052,1015.772,-8.784
69.296,1018.7,-13.664
62.708,1029.192,-9.272
62.22,1042.856,-6.832
53.68,1052.616,-2.684
22.936,1060.18,-8.296
-34.16,1079.212,-11.468
-37.088,1113.86,-25.864
-10.98,1166.564,-33.916
-34.648,1232.444,-21.716
-88.816,1225.612,-24.4
-39.772,1213.9,-19.52
17.812,1197.552,-8.784
-9.516,1166.564,8.296
-34.892,1139.48,36.112
-32.696,1115.812,29.28
-51.972,1099.952,16.592
-49.044,1099.952,-11.956
-1.708,1098.976,-13.908
9.028,1069.696,-8.54
-22.204,1022.116,-5.612
-59.78,975.512,-6.588
-113.216,920.124,2.928
-149.084,863.516,-3.172
-192.516,814.228,-14.64
-211.304,764.696,-10.492
-216.672,698.572,-5.124
-234.484,637.328,-7.808
-399.428,564.616,-25.376
-709.552,570.228,-96.868
-638.792,691.496,-1.708
-61.244,829.356,87.596
794.22,799.344,22.936
1217.804,637.328,-131.76
1236.104,-12.932,-151.768
778.116,-698.328,-228.384
671.244,204.472,94.672
863.028,1208.776,152.744
1091.656,919.636,357.948
1190.72,394.792,217.16
1199.016,-148.108,-201.544
1056.276,-98.576,-85.888
859.368,228.384,159.576
671.732,429.684,216.916
447.252,380.884,108.336
364.536,273.28,28.06
425.048,227.408,51.24
497.516,203.252,53.68
527.528,154.94,66.612
439.444,66.856,113.216
291.824,-62.952,130.54
278.16,-192.028,74.908
431.636,-259.372,17.568
645.624,-291.336,-23.912
755.912,-316.468,-84.424
838.872,-327.692,-149.816
949.648,-378.2,-193.492
1117.52,-441.396,-237.168
1304.912,-503.372,-306.708
1362.74,-558.76,-390.4
1392.752,-582.672,-464.576
1468.636,-588.772,-468.968
1499.136,-615.368,-472.628
1474.736,-668.072,-461.16
1493.28,-714.432,-427.0
1515.24,-720.288,-389.912
1596.736,-691.496,-344.772
1801.208,-705.16,-287.188
1941.264,-718.824,-237.656
1924.672,-723.948,-174.704
1924.672,-700.524,-122.0
1885.876,-655.872,-59.292
1847.812,-618.54,-2.928
1851.716,-606.584,30.5
1858.548,-598.044,55.632
1821.948,-582.428,87.108
1656.516,-583.16,125.172
1470.832,-559.492,139.324
1218.78,-486.292,87.84
920.124,-469.456,13.176
521.428,-367.952,-31.72
29.524,-165.432,-122.0
-267.912,73.688,-177.144
-257.664,218.624,-138.592
-107.116,271.572,-171.532
16.836,322.568,-210.816
87.352,379.42,-216.428
157.624,442.372,-201.788
234.24,493.124,-170.556
376.492,538.752,-132.736
510.204,579.256,-95.892
645.38,617.32,-63.928
758.352,671.0,-33.184
816.912,722.24,-15.128
856.928,772.748,1.952
900.848,797.88,21.96
932.08,820.084,35.624
955.748,823.256,51.24
1009.428,836.432,56.364
963.068,811.3,102.48
1076.772,823.5,110.044
1028.704,796.172,137.86
865.468,752.252,210.328
849.364,754.448,165.188
771.284,783.728,121.268
451.644,676.124,128.832
310.856,692.228,63.196
139.08,685.152,34.648
-87.108,644.648,59.048
-215.94,656.116,28.304
-313.052,603.656,103.212
-20.984,614.636,168.116
102.48,616.1,188.368
-120.78,518.744,215.208
-84.912,415.776,241.316
-19.032,405.528,201.544
35.868,527.528,116.144
-50.264,725.656,82.472
-143.716,1017.724,91.5
-30.256,1295.64,53.924
39.04,1518.9,9.272
55.144,1632.116,-50.02
27.084,1601.86,-68.808
58.072,1511.58,-58.804
76.86,1449.604,-64.172
-35.868,1284.172,-20.984
-35.624,1151.192,-14.64
-12.2,1086.044,-36.844
-77.836,1018.944,-8.784
-48.068,1003.084,7.32
-6.588,1020.164,24.644
1.22,1021.628,35.136
31.964,1024.8,31.72
35.38,1007.476,32.696
54.168,999.424,41.724
77.592,1001.864,53.436
54.9,976.0,86.132
84.668,975.512,103.944
100.284,991.128,104.92
57.828,975.756,125.904
97.112,997.716,112.484
76.86,993.812,127.124
59.536,976.0,129.076
86.864,991.616,107.36
66.368,984.54,110.532
67.344,979.172,111.996
100.04,1002.596,91.988
50.996,977.952,105.896
72.468,984.784,97.356
62.708,987.956,93.94
31.232,971.12,96.624
53.436,973.072,88.084
35.38,966.24,92.72
50.752,965.996,88.816
80.52,987.224,72.712
44.652,975.512,83.448
60.512,981.612,80.52
56.364,985.516,81.74
41.968,981.856,87.352
50.264,990.396,75.884
43.432,993.568,67.588
50.752,992.592,64.416
51.484,991.616,59.78
51.972,992.836,59.292
48.556,989.176,61.244
43.676,978.44,59.78
36.356,965.752,58.56
44.408,964.532,51.24
51.484,974.536,48.068
51.24,987.224,45.872
50.996,988.2,48.556
41.724,986.492,50.264
35.38,981.124,48.556
40.748,975.512,47.58
48.556,984.54,43.188
45.14,992.104,45.384
50.996,1000.4,44.164
36.112,992.836,52.216
44.408,990.396,54.168
58.316,1004.792,50.02
44.164,994.3,61.244
61.488,997.228,56.12
70.028,1006.256,51.972
52.704,996.984,60.268
78.568,1007.964,50.264
57.828,1005.28,54.9
58.316,999.424,55.144
55.632,994.3,50.752
40.992,981.856,52.704
58.072,986.492,48.8
56.364,993.812,48.8
62.952,997.472,47.092
55.144,992.836,47.824
49.532,986.004,53.436
55.876,989.176,55.144
51.728,985.516,58.804
64.416,985.516,50.508
57.34,978.684,53.436
60.024,977.464,56.364
62.22,986.736,56.608
59.536,999.912,52.46
58.316,1002.596,43.188
66.368,999.912,36.356
66.612,992.592,35.136
52.704,996.008,42.944
41.968,1001.376,46.604
23.18,1008.208,62.464
16.348,1027.484,70.272
8.54,1070.184,71.98
-1.464,1132.892,77.348
12.932,1193.648,97.356
-24.888,1239.764,136.64
-34.404,1317.844,135.42
-37.576,1449.116,161.284
-6.588,1478.64,193.98
-12.688,1360.788,169.092
-21.472,1256.356,124.928
5.856,1138.748,86.132
-7.32,1074.088,31.964
20.496,1018.456,-23.668
103.456,998.936,-76.372
116.632,967.46,-98.576
46.848,933.3,-83.204
19.52,934.764,-84.18
-27.572,884.744,-90.768
-69.052,831.064,-88.572
-119.316,809.592,-96.38
-149.328,772.748,-80.52
-167.628,733.464,-100.284
-190.076,699.304,-59.048
-218.136,631.716,-30.988
-517.524,476.044,-67.588
-835.456,427.244,-88.572
-717.848,618.54,70.76
-380.396,477.996,113.948
294.02,349.896,-39.772
854.976,231.556,-249.124
1281.732,-11.468,-215.452
1036.756,-249.612,-89.792
603.168,-162.26,-400.892
1590.148,867.664,-479.948
1569.896,1130.452,190.32
1314.916,541.192,-39.528
1003.572,235.704,-215.208
1063.596,30.012,-434.32
1040.904,141.764,-128.588
944.28,373.808,55.632
720.044,463.356,6.832
622.444,458.232,-73.688
703.696,403.332,-71.248
734.928,303.536,-95.404
654.164,210.572,-124.44
543.876,153.476,-52.46
415.776,100.284,37.088
256.2,33.672,89.304
176.168,-43.676,161.772
258.884,-167.628,192.272
436.76,-307.44,199.104
617.564,-466.528,115.168
779.336,-608.292,-81.008
894.016,-645.38,-291.336
1038.464,-619.028,-447.252
1284.904,-508.252,-523.868
1410.32,-435.784,-496.784
1493.28,-467.016,-440.664
1588.928,-568.032,-403.332
1548.668,-740.296,-381.372
1489.376,-805.2,-345.748
1500.112,-802.272,-309.636
1504.504,-710.284,-233.264
1517.436,-629.276,-193.492
1570.384,-569.74,-183.732
1646.512,-543.144,-153.72
1681.892,-519.476,-101.748
1675.304,-504.592,-58.316
1680.184,-499.712,23.668
1689.212,-495.076,136.152
1713.856,-511.18,196.42
1683.6,-522.648,247.172
1636.508,-535.336,269.376
1620.404,-531.92,316.468
1683.844,-491.172,329.156
1650.416,-470.92,339.16
1572.824,-437.736,300.608
1401.536,-469.7,251.32
1249.524,-436.76,201.544
1054.568,-412.848,132.98
807.64,-329.644,60.756
473.604,-222.04,-39.528
130.296,-83.448,-144.692
-253.76,107.36,-274.256
-290.36,268.644,-287.188
-153.964,356.972,-296.704
4.392,410.164,-254.004
202.52,449.448,-233.264
344.284,463.112,-186.416
440.176,480.68,-106.384
548.268,532.896,-45.384
628.056,570.716,23.912
738.344,623.176,89.548
860.344,678.076,145.18
952.82,699.304,185.44
1078.968,738.832,212.524
1070.428,750.3,255.712
1010.648,721.752,301.584
937.936,676.368,268.888
821.548,640.988,287.92
690.52,637.572,295.972
676.856,663.436,168.36
616.344,655.14,193.248
515.084,634.4,170.312
487.512,663.436,110.288
345.016,682.956,135.908
191.052,767.624,131.272
52.46,839.116,81.008
133.956,966.972,132.98
79.056,938.668,98.332
81.984,906.704,134.2
62.708,884.5,167.628
80.52,833.992,155.916
56.852,797.636,154.696
16.348,737.124,116.876
-35.868,651.968,61.0
-67.1,625.128,-20.008
-40.26,675.392,-44.164
73.444,869.616,-32.696
222.284,1120.204,-52.46
239.608,1291.492,-51.24
152.988,1364.692,-80.52
79.544,1370.548,-122.488
63.196,1348.344,-157.624
51.972,1309.792,-175.436
57.096,1279.048,-199.104
21.716,1230.492,-205.692
-15.372,1164.612,-195.688
-23.912,1108.004,-178.12
-17.324,1080.92,-162.26
-32.696,1038.22,-132.004
-7.076,1011.868,-124.928
25.62,1021.872,-139.08
-12.932,993.568,-113.216
34.648,1003.572,-119.072
60.512,1029.436,-108.336
24.888,1003.572,-74.908
57.096,1002.352,-78.324
84.18,1019.188,-83.936
41.48,987.712,-55.388
71.004,997.472,-56.608
91.256,1024.8,-58.072
47.824,1002.84,-30.5
79.056,1001.62,-36.112
78.568,1003.084,-30.988
33.672,966.972,-14.884
27.572,948.916,-17.08
75.396,970.144,-40.504
51.24,962.824,-37.332
31.964,963.556,-35.38
60.512,1007.476,-56.12
38.552,1015.772,-50.996
19.52,1002.108,-42.944
18.3,991.86,-46.604
14.64,974.78,-50.264
41.236,977.464,-63.928
24.644,980.148,-64.66
23.912,986.492,-68.564
42.212,1001.62,-72.956
19.276,999.668,-59.292
13.664,997.472,-55.632
10.248,992.348,-49.532
15.128,989.664,-45.14
24.888,988.2,-46.36
22.692,982.1,-38.552
39.284,983.32,-43.676
38.308,974.536,-42.7
44.896,972.096,-43.432
30.988,964.288,-41.236
38.064,971.608,-50.996
37.576,973.072,-54.656
30.744,974.78,-57.34
37.088,986.492,-65.636
24.888,990.884,-60.268
18.788,988.932,-62.952
13.42,988.932,-64.416
9.028,986.248,-65.636
9.76,986.98,-66.124
15.128,994.788,-63.684
20.74,1001.62,-60.268
30.744,1009.428,-62.22
26.596,1008.208,-61.488
26.84,1006.988,-60.268
25.864,1006.744,-57.34
15.616,1003.084,-52.948
12.2,1001.376,-57.096
11.468,1003.084,-57.096
12.2,1001.864,-51.484
11.956,1002.352,-49.288
10.248,996.252,-55.144
5.124,986.492,-59.048
3.172,975.024,-61.244
12.932,976.976,-65.148
7.076,970.876,-56.852
11.224,974.048,-54.656
3.66,973.56,-49.288
3.904,972.34,-47.336
0.488,972.096,-41.48
1.464,971.608,-41.236
9.028,976.732,-42.7
11.224,983.32,-42.212
11.956,989.176,-42.7
11.468,993.568,-39.284
5.856,993.568,-36.112
10.98,996.496,-34.404
11.224,994.3,-32.452
5.856,992.104,-37.332
4.392,990.396,-42.212
6.832,993.324,-40.748
1.22,998.448,-36.844
-2.684,1004.792,-32.696
-5.612,1006.744,-32.208
-6.344,1004.304,-36.356
-8.784,997.96,-40.016
-13.42,993.08,-35.624
-18.544,984.784,-31.476
-16.592,983.32,-28.792
-18.056,980.636,-24.644
-15.128,983.808,-22.448
-11.224,986.004,-16.104
-5.856,988.688,-12.2
-5.612,991.86,-10.248
-9.028,997.96,-8.296
-17.568,1008.452,-7.564
-24.644,1044.564,-10.004
-59.78,1090.924,2.684
-60.512,1156.072,13.176
-92.476,1219.756,55.144
-65.148,1295.396,37.088
-96.868,1309.06,13.664
-189.832,1315.648,67.1
-198.616,1254.892,30.988
-211.792,1202.188,9.028
-214.232,1194.624,-57.828
-233.508,1189.988,-10.98
-230.824,1158.024,-60.024
-283.284,1068.964,-55.632
-286.212,964.532,-49.044
-467.504,815.692,-66.368
-466.04,771.528,-162.016
-320.616,726.876,-164.456
18.544,658.8,-159.576
467.016,594.872,-130.784
781.532,488.244,-145.668
1034.316,306.952,-164.456
742.736,-243.512,10.736
588.528,-382.836,322.812
640.988,333.304,277.916
949.404,709.796,508.008
1281.488,465.308,309.392
1124.84,220.576,194.468
828.868,133.224,96.624
676.856,241.56,216.184
643.428,387.472,272.304
675.636,440.42,245.952
763.476,439.444,214.476
820.572,437.736,196.42
836.92,418.216,200.08
824.232,367.22,204.472
774.456,310.124,202.52
697.84,286.944,196.42
620.98,271.816,188.612
512.888,224.724,182.024
408.212,149.816,187.392
336.964,56.12,196.42
312.564,-56.852,217.404
293.532,-189.344,249.856
306.464,-319.396,208.62
439.2,-390.156,69.296
702.72,-395.768,-82.472
1064.328,-348.676,-208.62
1390.556,-302.316,-226.432
1568.676,-331.352,-209.84
1662.372,-414.312,-232.776
1691.164,-430.66,-250.1
1616.988,-422.364,-61.488
1447.896,-424.56,107.848
1445.7,-370.88,137.372
1579.9,-346.968,208.376
1597.956,-368.928,265.228
1551.84,-372.832,269.376
1462.292,-343.308,272.304
1557.696,-247.416,319.64
1724.104,-209.108,437.492
1808.04,-240.828,551.44
1829.756,-338.916,605.608
1741.916,-456.768,636.84
1704.584,-514.108,651.968
1696.776,-532.164,664.656
1631.872,-504.348,635.62
1566.968,-479.216,558.76
1535.736,-429.44,427.732
1396.168,-377.224,280.356
1164.612,-354.044,166.896
922.808,-301.584,50.264
652.212,-255.956,-55.876
401.136,-180.072,-152.256
176.168,-61.488,-231.8
46.116,107.848,-234.484
62.464,264.984,-165.92
177.144,346.724,-158.112
289.14,399.428,-107.116
414.068,424.316,-23.668
538.996,431.88,66.612
679.54,447.252,158.6
717.36,421.876,234.972
769.088,422.608,273.524
868.152,465.064,297.436
935.74,510.448,337.696
968.436,563.64,357.948
969.656,584.38,357.704
961.116,581.452,351.848
945.256,564.128,352.092
935.74,549.732,343.552
916.708,535.58,324.52
897.92,525.82,310.612
905.24,546.804,299.144
867.42,547.536,320.372
844.972,538.996,340.136
874.74,511.18,348.92
1048.956,506.3,273.036
927.444,525.82,397.232
756.644,478.728,352.58
714.432,463.844,283.528
792.756,583.16,274.5
672.708,574.62,300.364
409.188,508.252,239.852
243.756,558.272,188.612
175.192,603.656,129.076
178.608,676.368,108.824
212.768,707.6,81.984
180.072,738.344,109.068
212.524,751.52,91.988
123.952,727.364,82.472
121.024,783.24,7.32
175.924,898.408,-24.4
179.828,982.832,-39.528
208.132,1071.892,-22.936
168.116,1094.584,5.856
158.356,1153.144,10.98
141.032,1215.608,-5.124
80.032,1235.128,16.836
105.164,1276.12,30.012
113.216,1284.904,51.24
102.48,1268.312,69.052
62.952,1232.688,69.784
40.26,1183.644,65.148
17.812,1122.4,65.636
10.736,1059.204,74.176
7.076,1013.82,69.54
-5.856,990.884,33.672
-38.552,997.716,-10.492
-83.204,1003.084,-36.112
-77.104,1014.552,-60.512
-62.708,1023.824,-77.592
-28.548,1053.348,-90.28
-26.108,1054.812,-75.884
-33.428,1047.248,-65.636
-19.032,1034.804,-47.58
29.28,1021.384,-33.428
40.016,998.692,-14.152
46.116,981.124,4.148
66.368,977.464,6.344
73.2,973.56,22.204
105.896,983.808,37.088
118.34,992.104,62.708
130.784,1000.888,77.348
146.644,1007.72,80.764
142.496,1006.256,86.62
140.3,999.668,84.668
140.3,991.86,72.224
112.24,968.436,74.664
113.948,969.412,76.616
112.484,974.292,79.056
104.92,978.684,82.96
96.868,970.876,81.74
80.52,956.968,82.96
84.18,957.7,87.84
93.696,960.872,90.768
91.5,962.824,91.988
86.62,960.628,86.376
76.616,957.944,84.424
80.764,964.288,79.544
84.424,977.952,85.4
94.428,996.984,89.792
91.744,999.424,93.696
113.948,1000.644,85.644
110.288,992.836,93.94
111.508,984.784,98.332
105.652,974.292,100.284
100.528,975.024,100.528
89.548,977.464,99.064
89.06,986.736,87.84
83.936,990.64,81.496
84.912,1004.304,77.348
85.888,1021.628,69.54
87.84,1028.948,63.684
91.744,1021.872,64.904
103.7,1009.916,65.636
103.7,995.032,73.688
107.116,981.612,75.152
110.288,980.392,71.248
115.168,989.176,70.272
106.384,992.592,71.248
91.5,982.344,70.272
79.3,971.364,70.516
70.516,965.508,69.784
73.2,978.44,65.88
71.492,994.056,69.052
59.536,999.18,78.812
60.268,994.544,84.424
60.024,985.76,82.96
68.32,974.292,85.156
85.156,977.952,85.644
93.452,983.076,91.5
102.236,982.588,92.964
102.968,971.364,95.16
101.992,961.848,93.94
95.16,955.26,94.428
86.376,959.652,92.476
87.596,968.924,85.644
88.328,980.148,79.3
82.96,993.324,77.348
68.32,1004.548,76.86
67.344,1023.58,81.252
62.708,1048.468,91.5
50.02,1069.208,97.356
31.232,1096.048,95.404
13.664,1108.248,101.016
1.952,1108.248,103.456
-4.392,1100.196,101.748
14.64,1098.244,88.328
15.86,1081.896,87.84
28.548,1060.424,77.836
18.544,1024.312,71.492
7.564,988.688,66.368
-4.148,972.828,60.024
-15.86,965.752,54.412
-22.936,972.828,45.628
-42.944,984.54,40.992
-52.948,992.104,40.016
-48.556,1001.864,53.68
-30.5,1001.864,124.684
21.716,1040.172,67.832
-89.304,1031.388,33.184
-71.736,1036.512,85.644
-79.788,1078.968,75.396
-114.924,1130.208,90.28
-84.668,1167.296,65.148
-131.272,1167.784,67.344
-164.944,1161.196,48.8
-179.828,1176.568,61.488
-143.228,1199.748,63.44
-143.472,1196.088,36.356
-157.624,1177.056,2.196
-167.628,1140.456,-12.932
-194.956,1086.532,-21.716
-210.328,1008.208,-36.356
-222.772,899.14,-57.34
-311.588,745.176,-42.212
-366.488,618.296,-40.016
-448.472,467.748,-51.728
-301.584,430.66,-59.048
-185.684,468.724,60.024
14.396,456.28,-60.024
582.184,441.884,-194.956
1323.212,489.708,-305.244
1731.18,934.032,-377.712
1177.056,229.848,-45.14
458.232,-58.316,82.472
429.928,249.124,392.108
841.556,574.132,550.22
1264.408,504.592,410.896
1235.372,296.46,300.12
953.796,122.488,275.232
801.54,211.304,309.392
713.7,332.572,347.456
705.16,326.228,302.804
704.672,332.084,271.816
665.876,306.464,239.364
642.94,297.68,199.592
637.572,211.792,188.124
626.592,138.592,213.988
541.68,102.48,236.68
417.972,9.76,231.312
363.804,-61.488,183.0
413.092,-97.844,124.928
491.66,-94.184,94.184
585.6,-60.024,88.816
598.532,-78.812,101.016
525.088,-158.6,118.584
542.656,-220.82,141.032
697.596,-233.996,205.204
799.344,-300.852,299.388
1006.256,-400.648,296.704
1205.36,-478.728,255.712
1453.264,-491.172,189.588
1696.288,-463.844,145.18
1955.66,-457.988,151.036
1995.676,-474.092,176.168
1931.26,-473.604,130.296
1941.508,-444.568,107.848
2104.5,-375.516,111.752
2194.292,-352.824,202.52
2009.096,-425.536,326.472
1728.74,-494.1,412.604
1586.488,-497.76,468.236
1496.94,-498.004,551.684
1403.0,-466.528,645.136
1357.128,-428.22,716.384
1337.364,-433.344,740.54
1281.732,-470.432,725.168
1264.408,-528.748,708.576
1284.172,-557.784,703.452
1263.676,-573.4,702.72
1158.756,-524.844,644.404
965.508,-419.192,514.84
715.164,-304.756,325.496
449.936,-168.604,108.58
157.136,37.576,-140.544
31.72,239.364,-246.928
29.524,326.472,-271.816
-4.88,363.804,-302.316
15.86,415.044,-340.136
70.272,457.744,-304.512
191.052,516.304,-241.316
386.252,575.84,-144.204
546.316,595.848,-25.132
731.024,605.12,44.408
928.908,608.78,104.188
1040.904,662.948,141.276
972.828,650.992,154.696
763.72,662.704,170.556
683.2,724.68,157.38
502.884,576.572,110.044
287.92,606.34,174.46
201.3,683.444,194.468
-2.684,649.528,254.736
-156.16,659.288,281.088
-137.86,809.348,235.46
-177.388,1012.356,257.176
-89.06,1084.824,171.532
-38.552,1099.708,103.7
-108.336,1127.768,96.624
-55.876,1200.724,64.904
9.028,1235.372,19.52
-28.548,1236.836,17.568
-0.732,1247.816,34.16
49.776,1251.232,37.332
34.648,1213.412,49.532
29.28,1177.544,28.304
-28.548,1103.612,19.52
-17.08,1087.508,7.808
2.196,1070.428,-22.936
-66.612,1022.848,8.296
-33.428,999.912,1.22
-14.64,1012.356,-7.076
-46.36,998.692,7.564
-35.38,998.692,-0.732
-54.656,968.192,3.172
-14.64,967.46,-9.76
-10.004,971.608,-5.124
8.54,980.392,6.1
35.136,996.74,5.856
-3.416,971.608,36.6
26.596,971.608,45.872
24.156,975.024,63.928
11.956,960.628,89.548
86.132,996.74,63.928
57.096,1009.428,76.616
51.484,1005.28,87.84
69.54,1006.988,82.716
29.768,985.028,92.476
47.336,992.348,74.908
12.2,974.536,82.472
44.164,982.344,58.072
12.444,983.076,63.928
8.296,987.468,64.904
26.84,1006.5,55.388
13.176,1014.064,52.948
17.812,1020.164,46.848
20.252,1016.992,41.968
24.156,1019.676,29.768
22.448,1018.7,24.644
16.104,1012.6,24.888
15.128,1003.572,28.548
2.684,987.956,36.6
-9.272,971.12,44.652
-3.416,964.288,40.992
-6.344,955.748,33.428
-18.544,954.04,31.72
-3.416,968.68,33.672
-9.028,978.928,43.432
-11.712,984.052,44.896
-20.252,983.32,46.604
-36.112,979.904,54.9
-30.5,977.22,55.632
-25.864,977.464,61.732
-20.496,983.076,65.392
-13.42,990.64,72.468
-8.296,992.836,83.204
-5.856,994.056,81.984
-5.368,999.668,84.18
-5.368,1002.596,85.156
-7.808,1004.548,83.936
-6.1,1009.916,78.568
-6.344,1014.796,70.028
-17.324,1020.896,69.052
-31.72,1028.948,86.864
-53.436,1052.616,103.212
-71.736,1071.404,109.8
-91.256,1096.536,108.336
-88.816,1108.98,91.744
-96.624,1108.736,77.104
-89.792,1101.66,65.392
-80.276,1093.608,55.632
-68.32,1061.888,49.044
-49.532,1027.972,32.208
-63.196,987.224,27.328
-85.156,945.744,28.304
-100.528,906.216,28.06
-99.308,889.136,23.424
-99.552,896.7,15.86
-113.948,902.312,16.348
-119.56,901.092,17.812
-136.396,890.844,36.112
-142.008,896.944,50.752
-140.544,917.196,58.804
-153.476,939.4,69.296
-129.076,967.948,63.928
-128.1,995.032,59.292
-125.904,1024.312,50.996
-113.46,1060.668,50.508
-130.052,1069.94,61.488
-157.624,1068.964,64.416
-162.992,1076.04,48.068
-176.168,1104.344,28.792
-227.164,1119.472,20.008
-203.008,1131.916,9.516
-167.14,1134.112,7.564
-155.184,1120.448,-20.984
-221.552,1071.404,-35.868
-263.276,1025.532,-47.092
-303.78,990.396,-47.824
-389.668,942.572,-39.04
-479.704,890.6,-74.664
-420.412,840.336,-153.232
-724.68,1009.184,159.332
-395.28,1092.388,69.784
105.896,893.772,-42.212
770.308,649.528,-329.156
1125.816,535.092,-511.912
1206.092,429.684,-420.412
461.892,-10.98,-194.468
257.176,153.232,-76.86
463.6,955.26,283.284
615.124,658.312,315.004
857.416,427.976,227.652
1148.752,118.828,0.976
1146.068,53.924,118.584
1074.332,212.28,282.308
963.8,405.772,284.748
753.96,465.552,220.332
650.992,503.86,188.368
691.496,541.192,210.084
756.888,511.424,220.576
731.756,443.348,201.544
674.66,363.316,196.908
591.944,305.0,186.172
447.252,264.008,183.976
283.772,203.496,177.144
192.028,96.868,207.156
242.048,-43.188,231.312
304.268,-186.416,225.456
396.988,-316.224,95.892
564.128,-377.956,-66.612
746.396,-405.528,-249.124
1019.432,-417.484,-404.796
1216.584,-451.4,-422.12
1296.128,-508.984,-417.24
1310.036,-481.168,-453.108
1359.324,-504.836,-421.876
1428.864,-529.724,-282.308
1447.896,-579.5,-182.512
1389.58,-631.228,-138.592
1451.068,-626.104,-69.296
1567.7,-590.236,73.688
1743.136,-542.412,167.384
1845.616,-510.936,227.896
1928.576,-482.876,285.236
2011.048,-475.556,326.716
1963.224,-459.452,303.536
1834.392,-433.832,259.616
1731.424,-393.572,221.308
1677.012,-364.536,201.3
1651.148,-366.976,208.132
1576.972,-376.492,199.836
1490.84,-419.68,193.736
1522.316,-449.692,208.376
1424.228,-453.84,212.524
1243.18,-449.448,215.452
1032.364,-418.704,126.636
777.14,-364.048,47.824
478.484,-219.356,-57.828
127.124,24.644,-146.644
-40.992,193.004,-163.48
-101.26,336.72,-202.52
-68.32,394.792,-256.2
39.284,450.668,-262.788
233.02,487.268,-243.512
447.74,513.376,-186.904
609.512,543.388,-128.832
700.524,558.028,-72.956
731.024,566.324,-29.28
778.604,575.108,20.252
846.192,592.92,84.912
915.976,617.076,142.008
957.7,620.004,181.536
1006.256,621.224,198.372
1034.072,639.768,209.108
1016.016,642.452,242.048
1019.92,661.728,243.512
937.204,594.14,258.396
798.856,518.5,243.756
746.64,562.42,191.784
553.88,604.144,188.124
442.616,592.92,154.696
400.648,571.204,60.024
325.984,609.268,27.328
130.784,644.16,4.636
12.688,725.9,-12.932
-18.788,779.58,81.008
58.316,828.38,44.652
200.324,782.996,-2.196
265.228,851.804,-0.976
354.288,891.088,-45.14
229.604,884.744,-39.04
164.456,878.4,-3.66
269.376,975.024,-19.032
299.876,1065.792,-40.992
215.452,1130.94,19.032
186.172,1239.52,57.34
186.172,1277.096,66.612
138.836,1296.128,67.588
105.408,1289.052,10.736
28.548,1232.444,-33.672
53.68,1205.116,-70.028
22.692,1158.756,-73.688
-2.928,1089.948,-49.776
-34.892,1071.648,-46.604
-65.88,1051.884,-50.02
-78.324,1017.236,-23.668
-8.296,1046.028,-61.976
-55.876,1034.56,-77.104
-2.928,1052.372,-92.964
45.384,1090.192,-99.552
34.16,1087.996,-68.076
75.396,1084.092,-57.096
64.172,1053.348,-36.356
75.152,1026.996,-21.716
123.464,1024.312,-22.448
127.368,1015.528,-6.588
134.932,1010.648,11.712
127.856,990.884,32.208
120.536,972.828,49.776
125.416,960.384,65.636
144.692,962.092,71.248
132.004,956.236,91.5
141.52,956.48,99.552
138.836,945.256,110.776
130.052,935.008,110.776
108.092,938.18,103.944
101.504,956.968,93.208
108.58,976.488,86.132
110.044,987.712,79.544
115.656,991.86,69.052
116.144,996.496,55.144
113.46,987.224,51.24
106.628,981.124,51.728
91.988,970.388,58.072
92.476,973.316,61.732
78.324,977.22,63.684
71.736,987.712,59.78
80.52,1006.5,52.216
78.324,1018.456,46.848
74.908,1013.332,38.552
71.004,1002.596,29.768
74.664,1001.864,21.716
71.98,995.276,23.912
81.252,988.932,20.008
67.832,972.828,21.96
78.08,971.12,13.42
60.756,973.072,7.564
44.408,972.828,13.908
48.312,981.368,12.444
26.596,978.196,19.764
40.504,983.076,16.836
45.628,995.52,15.372
51.972,992.104,18.544
88.084,1008.452,11.956
67.588,1001.376,29.036
81.008,995.032,44.652
82.228,990.152,52.46
56.364,965.996,60.024
58.56,960.628,60.756
58.56,965.02,52.216
50.996,969.168,49.288
79.3,1001.376,28.304
65.636,1009.916,26.596
82.96,1021.872,17.324
78.08,1023.092,11.468
69.54,1004.548,10.248
82.716,993.08,4.148
74.664,982.344,-3.66
76.86,980.392,-10.004
73.932,978.928,-12.444
65.636,978.928,-13.176
60.512,979.416,-12.688
57.584,975.268,-6.588
54.412,977.464,-3.904
50.508,977.464,3.416
62.952,987.224,3.416
66.368,997.228,10.004
65.636,1001.132,17.812
59.048,1001.132,24.156
64.66,1004.548,23.912
68.076,1013.576,21.716
75.64,1021.872,15.372
75.884,1025.532,15.128
72.956,1022.848,11.712
64.66,1010.892,8.296
60.268,995.276,4.392
56.364,989.42,0.0
53.436,994.056,-1.708
52.216,1011.868,0.488
22.692,1045.296,5.612
10.736,1125.084,18.3
-23.18,1297.104,64.416
-105.896,1415.932,123.464
-166.408,1461.316,98.332
-171.044,1472.052,59.536
-100.528,1417.396,48.312
-27.328,1351.516,70.272
34.892,1270.752,89.06
66.124,1176.324,106.628
133.712,1107.76,60.268
149.816,1023.092,44.164
196.176,932.08,8.052
238.876,867.908,-14.152
212.524,807.884,3.904
165.92,753.96,17.08
151.524,744.2,31.232
116.144,737.856,25.864
69.54,727.608,32.696
36.6,722.728,30.988
-11.712,739.808,47.824
-17.568,777.384,33.184
-80.52,814.716,49.532
-108.58,842.044,42.212
-146.156,807.64,30.012
-353.312,779.336,-3.416
-334.28,973.316,-46.116
152.256,985.028,92.964
421.876,715.164,56.608
763.476,479.216,-73.932
969.168,88.084,-86.62
723.46,116.632,-41.724
516.06,271.084,-130.784
909.388,1015.284,-36.6
1049.932,969.168,310.612
1103.856,411.628,206.912
1283.684,83.692,0.976
1227.808,-65.392,-117.364
947.452,126.148,105.652
749.08,404.064,203.008
642.208,471.408,136.64
553.148,419.192,67.588
550.22,361.608,33.672
526.308,309.392,-1.22
434.076,272.06,-27.328
398.696,213.012,-12.2
340.868,119.072,55.876
308.66,-9.272,62.22
258.152,-176.168,-45.628
246.928,-289.872,-231.556
417.24,-332.816,-350.14
685.64,-387.716,-365.756
862.54,-422.852,-354.532
1065.304,-474.58,-331.84
1406.416,-534.604,-264.984
1701.9,-559.736,-245.708
1865.624,-575.352,-264.008
2049.6,-562.42,-266.692
2105.476,-590.236,-266.204
1947.852,-571.692,-190.808
1846.348,-538.508,-124.44
1782.908,-475.556,-63.684
1810.724,-411.14,-3.66
1726.544,-386.74,40.26
1647.0,-388.936,73.2
1573.312,-395.524,135.42
1523.536,-365.756,187.636
1545.984,-354.044,227.164
1566.968,-383.812,259.128
1601.616,-390.156,273.524
1598.2,-364.78,287.188
1584.048,-353.8,295.24
1488.156,-344.772,288.896
1257.332,-307.684,249.124
973.316,-307.684,186.416
702.232,-236.924,121.512
388.204,-146.156,18.544
28.06,8.54,-146.156
-131.272,228.872,-229.36
-82.472,320.86,-273.036
109.8,434.32,-271.084
267.18,484.584,-256.688
358.924,522.892,-227.408
438.468,527.04,-198.372
556.564,527.284,-141.52
614.148,510.936,-52.948
686.128,506.788,13.908
804.468,523.136,74.42
906.704,544.852,140.788
997.228,571.936,193.004
1034.804,577.548,230.824
1030.656,581.208,257.176
1025.044,594.384,271.328
1029.924,563.64,275.232
1066.524,605.364,286.212
1018.456,584.624,278.404
826.916,501.908,310.368
749.08,503.128,286.944
711.016,553.88,240.096
506.788,506.056,224.48
361.608,473.116,174.948
347.944,572.18,85.4
322.324,669.536,68.564
158.112,696.132,75.884
-80.764,709.064,94.672
-166.408,823.012,47.58
-168.116,934.032,78.08
-26.352,858.636,98.82
119.316,792.268,121.024
36.112,819.596,49.044
-157.136,898.896,10.004
-159.332,956.724,-57.584
-76.616,1008.208,-55.144
-1.22,1114.592,-104.432
-7.076,1221.952,-164.212
-36.6,1265.384,-185.684
17.568,1296.616,-196.42
40.504,1306.864,-195.2
16.836,1306.376,-199.836
-3.904,1281.488,-198.616
-20.252,1220.488,-191.54
-27.816,1160.952,-176.412
-3.416,1120.204,-170.312
14.396,1098.732,-175.192
4.636,1072.136,-164.944
56.852,1067.744,-157.38
67.344,1049.2,-124.684
119.804,1049.688,-114.192
105.164,1026.264,-87.596
96.868,994.056,-74.908
135.908,991.128,-79.3
116.144,978.684,-66.856
113.704,956.724,-55.388
178.608,985.516,-73.932
150.06,996.984,-70.272
146.156,996.984,-65.88
150.548,1005.036,-63.928
115.656,980.148,-52.948
120.292,961.604,-58.072
115.9,950.136,-61.488
106.872,940.376,-67.1
104.432,942.084,-73.932
120.536,950.38,-82.96
134.444,974.292,-83.936
121.268,991.372,-79.056
118.584,997.96,-69.54
147.132,1022.604,-69.296
119.072,1008.452,-49.776
103.456,986.736,-41.724
134.444,981.368,-40.26
154.452,995.52,-46.116
122.0,986.492,-27.084
151.768,1004.06,-49.776
126.392,1001.132,-51.972
95.648,984.296,-38.308
95.16,964.532,-36.6
106.628,956.968,-54.168
92.232,953.796,-64.904
100.772,953.308,-77.592
113.948,960.628,-97.6
94.916,964.044,-94.916
109.312,976.976,-89.304
114.436,983.808,-85.156
117.12,988.444,-82.228
122.0,986.492,-71.98
135.908,991.372,-69.54
142.496,1000.644,-64.904
134.2,998.204,-49.776
142.252,999.18,-46.36
121.756,991.372,-42.212
116.632,994.3,-42.212
110.532,996.252,-45.628
115.168,1006.256,-57.584
115.656,1013.088,-62.952
119.316,1021.14,-60.512
118.34,1022.116,-56.364
117.608,1020.164,-53.192
115.412,1006.988,-50.752
118.096,994.788,-48.556
124.44,985.028,-46.116
127.856,971.12,-43.188
120.536,954.772,-34.892
123.464,937.204,-32.208
122.732,927.688,-28.548
125.904,925.98,-36.6
117.12,935.008,-42.7
121.268,951.112,-54.412
111.996,966.728,-50.996
118.584,985.272,-49.288
116.632,997.716,-46.848
115.656,1010.404,-54.656
110.776,1010.404,-53.68
108.092,1007.964,-48.068
101.504,1006.5,-40.26
114.68,997.228,-38.308
115.656,1005.524,-29.524
115.168,1015.528,-26.352
136.64,1034.804,-41.724
127.124,1046.272,-37.82
107.848,1065.06,-31.232
91.5,1091.168,-19.764
81.496,1107.76,-13.664
65.392,1109.224,-16.104
55.388,1118.008,-29.524
70.272,1138.748,-36.844
97.112,1166.808,-44.408
89.548,1158.756,-46.848
76.86,1152.9,-38.308
70.272,1147.532,-24.4
75.152,1145.824,-14.152
65.636,1133.38,-9.76
77.592,1133.868,-13.664
82.472,1125.816,-12.932
70.76,1131.916,5.124
51.728,1110.2,31.72
17.812,1097.024,49.044
78.812,1073.356,66.856
101.016,1032.852,73.932
107.116,1061.156,85.644
186.416,989.908,23.424
328.424,979.904,-46.36
243.756,973.316,13.908
241.56,894.504,14.396
227.652,851.804,31.964
148.596,857.416,96.868
144.692,783.24,124.44
78.812,740.784,142.74
19.52,720.044,165.676
-35.38,688.568,127.368
9.516,652.456,70.516
-48.556,845.948,132.492
45.14,877.912,162.26
21.472,875.228,104.92
-35.624,916.952,109.8
-15.86,899.384,118.584
-137.372,855.464,82.472
-293.532,857.416,44.652
-317.2,835.944,61.488
-433.1,784.948,122.488
-374.784,795.928,56.364
-340.868,775.676,34.16
-30.744,625.128,-30.988
516.792,565.836,-109.556
895.968,686.616,-309.88
822.28,428.464,-142.252
734.44,166.896,-18.3
494.344,65.636,-25.376
1033.584,478.728,118.828
1513.532,585.356,420.9
1607.716,344.04,280.112
1520.364,97.112,70.272
1357.128,36.6,-28.548
1107.76,165.188,50.996
917.928,350.872,108.824
730.292,402.844,71.98
568.276,366.976,10.004
475.8,295.728,-37.576
406.26,223.016,-36.356
332.084,173.484,1.464
324.276,105.896,88.572
235.216,9.272,144.448
87.108,-125.172,144.692
94.916,-261.568,120.536
286.212,-408.212,115.168
601.948,-543.632,-15.86
972.828,-607.56,-269.376
1333.216,-509.716,-546.56
1480.348,-363.072,-554.612
1477.176,-332.084,-477.508
1593.076,-407.724,-473.116
1769.244,-512.4,-445.3
1705.804,-626.348,-378.2
1674.328,-638.792,-306.464
1639.68,-696.864,-271.816
1488.156,-689.544,-200.324
1436.184,-566.812,-142.496
1510.604,-422.852,-56.852
1626.26,-376.248,6.1
1634.312,-371.612,38.308
1590.88,-393.328,68.32
1685.796,-396.012,122.976
1784.128,-430.66,208.132
1816.824,-470.92,248.636
1785.592,-497.272,212.524
1653.1,-467.748,174.46
1497.916,-433.1,158.112
1385.432,-384.3,122.244
1308.328,-327.936,100.284
1205.604,-293.044,72.712
1127.768,-267.668,58.56
993.568,-246.928,30.988
818.62,-213.744,-11.468
642.452,-147.864,-62.708
374.784,-100.528,-160.064
72.712,39.284,-308.416
-34.404,260.348,-313.784
10.98,293.532,-319.64
112.728,378.688,-265.472
298.168,449.204,-246.44
468.48,447.74,-225.212
575.108,456.768,-184.952
712.236,484.584,-92.964
806.42,504.104,-16.592
948.672,543.388,7.564
1033.828,574.864,64.66
1036.512,592.92,131.76
1033.828,579.012,142.008
952.332,563.64,182.268
882.304,559.98,227.896
845.46,515.328,190.32
744.932,485.316,176.168
707.356,553.636,148.352
579.988,619.028,124.928
386.496,643.184,114.924
205.692,769.088,63.44
106.384,957.456,54.168
126.88,1076.04,41.48
189.1,1083.604,5.124
168.604,1080.432,-21.228
162.504,1120.692,-28.304
136.884,1110.2,-69.784
60.268,1096.048,-82.716
35.136,1095.316,-98.82
6.832,1078.48,-88.084
52.46,1075.064,-86.132
29.524,1062.376,-67.588
26.108,1049.444,-60.756
-1.22,1031.144,-63.928
-60.756,995.032,-47.824
-61.732,983.564,-44.652
-46.116,980.88,-34.892
-64.66,963.8,-18.788
-57.096,931.836,-18.544
-64.904,902.8,-5.612
-66.368,864.736,8.296
-42.944,853.268,19.52
-26.352,866.688,29.036
-20.496,911.584,33.428
-27.572,955.504,30.256
-21.716,1026.508,13.908
-14.884,1092.388,-6.832
-28.548,1137.04,-31.476
-69.052,1155.828,-51.24
-60.512,1164.612,-72.712
-52.216,1160.22,-80.276
-45.14,1142.652,-85.888
-31.476,1122.156,-93.94
-40.016,1073.356,-87.84
-18.3,1041.636,-103.944
-7.808,1025.288,-117.12
-45.872,975.512,-89.548
-33.672,957.212,-77.592
5.124,960.14,-75.396
-6.832,952.576,-61.0
-19.52,942.328,-50.752
-5.124,952.82,-47.824
-21.472,944.036,-32.208
-17.812,936.96,-26.84
-12.2,949.16,-26.596
-35.38,957.456,-24.4
-41.968,962.824,-30.744
-31.964,973.072,-35.136
-24.4,983.32,-28.548
-10.004,1013.576,-47.824
-25.62,1012.356,-39.772
0.732,1028.216,-52.704
3.904,1034.804,-56.12
-23.424,1010.648,-42.944
-13.908,1000.644,-46.848
-10.004,1001.376,-49.044
-35.38,981.124,-38.308
-35.868,963.8,-38.064
-28.06,961.604,-45.872
-42.7,953.308,-45.384
-19.764,965.508,-62.464
-23.912,978.684,-69.54
-43.188,975.268,-65.148
-27.572,983.808,-69.784
-39.772,982.588,-68.32
-49.288,976.244,-61.244
-39.04,978.928,-65.88
-38.796,978.196,-67.344
-35.38,977.708,-65.148
-13.908,995.764,-75.64
-36.112,999.18,-67.344
-41.236,999.424,-64.904
-38.064,996.496,-67.832
-51.24,985.76,-63.196
-39.528,990.64,-73.932
-44.164,989.176,-76.616
-40.504,985.028,-74.908
-34.16,986.736,-76.128
-42.456,986.248,-73.688
-44.652,984.54,-73.932
-48.312,978.684,-73.688
-41.968,978.196,-71.98
-36.112,975.024,-70.028
-28.548,977.22,-69.54
-30.012,976.488,-67.344
-32.208,980.636,-65.636
-35.624,985.76,-64.416
-51.972,990.884,-63.684
-81.984,1006.988,-62.708
-100.528,1058.228,-51.484
-107.848,1112.64,-46.848
-121.268,1150.948,-56.608
-120.292,1169.492,-43.92
-98.82,1171.2,-30.012
-68.32,1158.024,-48.068
-84.668,1135.82,-32.94
-60.268,1087.02,-51.24
-26.108,1078.236,-49.776
-37.82,1052.86,-35.624
-32.452,1047.736,-32.696
-52.46,1022.848,-17.568
-63.684,1005.036,-9.028
-76.128,983.808,-16.836
-102.724,964.776,-21.716
-125.904,957.456,-26.352
-153.232,957.456,-25.132
-150.304,967.704,-10.492
-167.384,967.704,-0.732
-181.292,965.264,5.612
-176.9,955.992,-6.832
-212.036,938.424,-12.688
-240.096,924.516,-4.636
-255.468,920.856,-2.684
-265.716,913.78,18.056
-262.056,893.04,18.544
-302.804,852.536,31.476
-302.072,827.404,37.088
-263.52,828.136,33.916
-227.164,842.532,9.76
-154.94,891.332,-27.328
-58.56,936.716,-66.124
-87.596,964.776,-68.808
-99.064,996.74,-50.264
-75.396,987.956,-44.408
-62.708,954.04,-35.136
-124.196,912.072,-11.712
-196.664,877.912,2.44
-240.096,850.828,13.908
-250.1,827.404,18.788
-282.796,814.228,20.496
-293.776,815.936,-1.952
-383.812,794.22,-33.672
-540.46,781.532,-102.236
-406.016,830.576,-151.036
100.772,904.752,-35.38
497.028,1049.688,84.18
717.604,904.996,-27.816
978.196,898.896,74.42
1481.812,504.104,-18.788
1141.676,136.884,-511.912
258.396,41.968,320.616
596.336,448.716,53.192
879.376,1112.884,167.872
1163.636,703.696,185.684
1281.244,515.572,31.476
1138.26,406.016,89.304
930.128,261.324,-76.372
636.84,296.46,44.896
478.24,377.956,173.24
577.548,458.72,183.244
708.82,445.788,197.884
762.5,367.22,147.376
735.172,295.728,126.636
684.42,244.732,116.388
621.224,222.528,144.692
561.444,192.028,129.808
573.644,154.208,84.912
629.764,90.036,25.376
694.18,12.2,-12.688
675.392,-50.02,-9.272
630.252,-117.364,-47.824
686.616,-165.676,-112.972
824.964,-198.86,-164.456
959.164,-219.6,-177.388
1074.332,-235.46,-243.512
1205.116,-218.136,-367.952
1289.052,-162.26,-420.168
1282.952,-117.852,-356.24
1326.384,-130.052,-276.696
1435.452,-211.06,-235.46
1566.968,-276.452,-200.812
1553.304,-316.712,-111.752
1603.812,-359.412,8.052
1760.704,-438.712,151.768
1845.372,-517.28,263.276
1867.576,-588.528,356.972
1889.536,-658.312,437.98
1975.18,-690.764,499.712
1905.152,-698.328,514.352
1686.284,-647.576,487.024
1457.412,-566.812,448.228
1333.46,-484.34,411.628
1320.284,-458.964,414.312
1326.628,-431.88,380.396
1303.448,-421.388,304.268
1258.308,-415.044,260.836
1169.492,-354.532,238.876
1115.08,-316.956,222.04
1085.556,-291.58,204.96
994.788,-221.308,139.812
818.62,-152.5,28.548
543.388,-58.804,-57.096
157.38,69.052,-198.616
-90.28,290.36,-236.68
-106.628,457.988,-222.04
30.256,495.32,-246.684
206.18,567.544,-206.912
374.052,575.108,-154.208
422.364,570.472,-106.628
452.132,561.2,-82.228
547.78,580.72,-23.424
631.472,598.044,20.008
705.892,615.368,30.012
794.22,641.232,58.56
849.608,646.112,87.108
876.936,640.012,112.728
867.664,615.368,122.976
841.312,603.9,147.376
839.116,590.968,175.924
882.06,592.676,203.496
949.404,620.492,230.092
999.912,633.668,271.084
985.028,618.296,330.62
1010.648,586.82,307.928
1011.38,572.912,291.092
957.7,584.624,251.564
752.496,527.528,206.424
564.372,531.676,132.98
490.44,642.696,18.788
432.124,759.328,-69.296
330.132,752.496,-133.712
291.824,813.74,-140.3
230.336,898.896,-88.328
157.868,919.148,-70.76
19.764,830.332,-143.96
173.728,842.532,-32.452
55.388,726.876,-40.016
20.984,704.428,44.408
60.268,691.252,78.324
15.128,692.96,71.004
-66.368,723.704,145.668
-125.416,783.484,183.244
-171.044,862.784,217.16
-130.54,966.972,227.164
-85.888,1082.628,233.508
-49.776,1205.604,189.588
-87.108,1272.948,170.068
-63.928,1319.064,143.472
-60.512,1340.048,127.124
-61.732,1340.048,131.516
-41.968,1318.088,107.36
-66.124,1251.476,116.388
-67.344,1183.156,100.772
-115.9,1111.908,92.476
-114.924,1062.62,89.06
-78.568,1056.276,80.276
-69.784,1052.616,108.092
-26.108,1066.524,114.436
-12.444,1062.132,128.588
-1.464,1044.076,137.372
20.74,1017.724,126.88
24.156,987.956,134.688
41.48,969.656,146.156
60.024,956.48,161.528
64.66,942.572,173.728
60.268,932.08,176.168
50.996,930.616,176.412
50.752,935.74,181.048
70.028,953.796,175.68
55.388,958.676,191.54
63.684,958.676,199.104
74.176,966.972,192.516
39.772,954.772,210.084
63.684,962.336,203.74
45.628,951.844,204.96
36.112,945.744,204.716
47.092,949.892,200.568
48.8,955.992,204.228
63.44,969.656,187.148
39.772,971.12,185.44
51.24,975.756,184.22
45.14,978.44,183.732
36.844,973.072,185.928
50.264,980.392,170.8
32.208,974.78,172.02
55.876,984.784,154.696
34.16,982.344,159.576
31.72,978.44,160.552
50.508,987.712,151.036
28.304,981.612,163.968
40.748,984.54,157.868
45.384,988.2,149.816
25.376,977.952,158.844
53.924,984.052,147.864
35.868,982.832,158.112
38.064,980.88,165.188
62.22,991.616,153.232
36.6,987.956,161.772
47.092,989.908,154.696
38.796,983.564,158.112
39.04,975.512,159.82
44.652,974.292,152.988
33.916,976.0,156.16
36.844,986.98,152.5
33.184,999.424,152.256
38.308,1010.16,155.428
39.04,1015.284,159.332
31.232,1012.844,158.356
31.964,1003.328,160.552
39.528,997.96,159.088
38.796,990.884,161.528
36.112,978.928,160.064
33.184,965.996,153.964
31.72,962.336,151.524
31.232,962.336,148.352
30.988,969.9,142.74
24.4,984.052,136.64
12.444,1000.888,143.716
-1.952,1022.604,151.768
-29.28,1062.864,163.236
-31.476,1130.208,167.872
-50.508,1199.504,179.828
-76.86,1248.792,191.784
-58.804,1271.24,189.1
-49.044,1265.14,190.32
-77.104,1238.3,188.124
-63.928,1217.072,161.04
-52.46,1212.192,159.088
-11.224,1169.98,114.192
8.296,1123.864,90.036
49.288,1098.0,61.244
11.224,1044.808,53.68
-43.432,1011.136,76.128
-36.844,992.592,50.508
-15.616,965.508,20.008
-20.252,948.672,30.256
-43.676,903.532,48.556
-65.88,846.924,51.972
-117.12,771.772,17.568
-155.184,728.096,-38.064
-131.76,676.368,-93.452
-169.58,636.84,-121.756
-288.164,604.876,-249.612
-374.052,742.004,-311.832
27.816,783.24,-118.34
505.812,589.504,-161.772
871.08,499.956,-200.812
842.532,369.904,-135.176
377.956,90.768,-119.56
522.892,11.468,-380.64
1757.044,991.372,-230.824
1668.472,771.772,117.12
934.764,327.204,6.344
770.796,108.336,-276.452
846.924,-8.54,-243.756
1099.22,167.872,-61.0
1085.556,367.22,-47.58
810.08,451.4,-120.78
721.264,517.524,-153.72
780.556,561.688,-149.572
847.412,566.324,-166.408
873.032,536.8,-203.984
879.864,521.672,-224.48
870.836,497.76,-215.94
824.476,478.972,-210.572
727.608,454.328,-201.544
622.688,427.976,-178.12
500.444,393.572,-135.176
370.392,325.74,-35.38
319.396,183.244,88.328
261.324,-8.784,187.392
218.38,-234.972,228.14
274.744,-422.608,210.572
507.276,-544.608,45.14
793.732,-582.672,-195.932
1060.668,-535.824,-444.08
1202.92,-447.252,-604.144
1304.424,-365.512,-710.284
1347.368,-346.968,-802.272
1331.508,-350.384,-870.104
1280.512,-374.052,-882.548
1228.296,-405.528,-853.512
1192.672,-423.34,-827.404
1163.88,-444.812,-794.22
1125.328,-402.6,-739.808
1120.204,-309.636,-657.336
1105.564,-229.604,-577.548
1092.388,-183.0,-551.928
1178.032,-162.016,-510.936
1300.032,-196.42,-453.108
1444.724,-254.004,-411.628
1709.952,-315.492,-423.828
1988.356,-306.22,-433.832
2115.724,-303.048,-405.04
2123.044,-322.324,-419.924
2073.024,-331.352,-455.304
1954.44,-344.772,-457.5
1782.176,-343.064,-437.004
1586.244,-401.136,-396.012
1369.816,-409.188,-373.32
1176.812,-371.856,-358.192
942.084,-305.488,-338.184
701.988,-229.116,-345.26
498.492,-137.372,-348.676
296.46,-31.72,-307.928
187.88,45.384,-305.976
203.74,97.844,-304.512
272.792,170.312,-315.98
366.732,263.764,-294.02
434.564,335.012,-248.392
508.252,414.8,-218.624
560.468,457.012,-192.516
616.1,500.688,-173.972
651.236,526.064,-134.932
714.676,542.9,-102.236
772.26,560.712,-80.032
829.112,570.472,-61.732
838.872,589.016,-26.108
841.312,595.116,-11.224
863.028,606.828,-1.708
864.004,601.948,13.664
874.984,581.208,10.492
894.504,568.52,2.196
880.108,567.056,1.952
871.08,564.86,-7.808
861.32,569.984,-14.884
834.968,565.836,-7.32
827.892,567.056,-11.712
812.032,551.928,-13.908
823.744,538.508,-22.448
841.068,536.8,-27.328
849.12,541.924,-19.52
871.08,544.12,-26.84
873.52,549.0,-34.404
857.416,548.024,-34.404
850.34,554.612,-41.724
845.46,559.736,-31.476
854.488,563.884,-27.084
861.564,573.4,-14.152
868.884,584.38,-0.488
859.368,587.552,13.664
856.928,587.796,13.664
855.708,580.72,20.496
857.66,568.764,24.644
867.42,561.444,22.204
887.184,560.224,19.52
902.312,563.64,20.252
922.32,568.032,20.74
968.924,581.696,20.74
1067.5,607.804,34.648
1091.412,635.132,47.092
928.42,569.74,142.252
936.472,544.364,123.708
861.808,544.12,163.236
627.812,487.512,216.672
472.14,448.228,237.656
469.944,474.336,287.676
352.336,417.484,240.096
153.72,396.256,178.12
44.164,512.4,86.864
40.748,632.448,74.42
-28.06,895.968,97.6
-27.816,987.712,109.068
41.236,1011.868,80.764
171.044,1138.26,77.592
95.16,1201.456,77.104
-89.06,1182.424,50.752
-111.264,1193.404,74.176
-46.36,1203.164,80.764
-13.908,1219.024,98.576
-59.292,1216.584,96.38
-114.924,1188.524,91.988
-99.064,1147.288,78.812
-68.564,1114.592,70.028
-59.536,1092.388,61.732
-38.552,1086.776,43.188
-39.284,1073.6,37.088
-26.352,1060.668,36.356
-5.856,1054.324,46.36
3.416,1047.736,60.024
35.868,1054.568,64.416
34.16,1038.22,75.152
46.604,1016.016,74.42
56.608,1003.084,77.836
36.112,981.124,85.156
9.516,972.096,85.644
1.708,979.904,73.2
-18.788,981.612,75.64
-54.9,971.608,78.08
-104.676,975.268,76.128
-125.416,972.34,65.636
-155.916,973.804,58.56
-142.252,983.32,52.704
-120.536,990.152,38.064
-132.492,978.928,28.304
-142.74,962.092,25.62
-134.444,960.628,22.692
-138.348,966.972,27.084
-129.32,978.44,21.96
-122.732,990.152,15.372
-134.932,988.688,18.544
-126.392,993.08,12.688
-139.324,986.98,12.688
-132.98,987.468,-1.464
-146.888,974.78,-3.172
-142.74,966.972,-5.856
-141.276,963.068,-5.612
-142.984,963.312,-2.196
-143.716,968.192,-1.952
-152.012,961.848,1.22
-151.524,950.868,1.708
-152.5,949.404,0.488
-160.552,950.136,9.028
-142.496,962.336,10.248
-149.816,966.728,18.544
-158.356,958.432,20.74
-164.7,954.284,20.496
-167.384,953.552,11.956
-162.016,967.46,5.612
-168.116,979.416,9.272
-166.652,989.664,5.856
-183.0,999.912,7.808
-189.1,1013.576,7.076
-182.024,1017.968,8.296
-161.284,1026.02,7.076
-163.968,1021.628,5.124
-159.332,1009.672,5.612
-157.624,992.348,12.444
-156.648,975.024,21.716
-148.352,968.436,20.008
-147.62,963.312,15.128
-148.596,976.244,9.516
-152.012,996.496,6.344
-155.916,1025.776,4.392
-156.892,1058.96,9.272
-151.28,1124.84,21.96
-151.28,1246.108,39.284
-175.436,1352.492,55.388
-224.48,1372.5,75.152
-253.028,1326.872,87.108
-209.352,1262.456,49.776
-265.716,1188.036,96.136
-247.416,1171.2,94.428
-289.384,1162.416,125.66
-284.504,1153.388,178.364
-189.588,1137.528,111.508
-255.956,1077.504,173.728
-194.224,1018.944,150.304
-240.584,921.832,157.868
-280.6,842.044,175.192
-257.908,784.948,159.576
-437.004,661.484,93.208
-528.26,517.28,-48.556
-242.536,506.056,-3.66
423.584,563.884,182.756
857.904,469.944,151.768
915.732,143.472,24.888
558.028,23.912,-210.328
377.468,341.356,-123.464
737.368,1077.016,-84.912
720.776,1113.86,178.12
848.144,726.632,47.336
817.644,418.46,-23.424
816.668,166.652,-192.516
729.804,215.452,5.368
629.276,440.176,139.324
413.824,519.232,134.688
248.88,496.54,68.808
249.124,451.888,106.14
283.284,391.132,155.428
282.064,298.168,133.712
258.152,174.216,80.764
313.296,72.956,18.056
489.22,-44.164,-26.352
652.456,-193.736,-103.456
634.888,-336.476,-250.832
548.268,-463.844,-477.02
791.048,-515.816,-614.88
1214.632,-484.34,-588.528
1379.332,-366.0,-578.524
1426.912,-311.588,-573.888
1542.568,-408.212,-468.48
1658.712,-491.416,-345.748
1709.464,-523.38,-292.556
1767.536,-524.356,-260.348
1982.744,-491.172,-131.272
2114.748,-462.868,18.544
2033.008,-435.54,84.424
1974.936,-439.688,161.284
2019.588,-448.228,222.772
2122.556,-444.324,280.112
2063.508,-433.344,382.104
1787.544,-431.636,492.88
1472.052,-399.916,522.16
1278.316,-349.896,520.452
1179.984,-293.532,523.868
1197.796,-230.824,518.012
1184.376,-192.028,523.136
1187.548,-164.456,494.344
1210.972,-145.912,445.788
1219.024,-151.28,441.152
1247.572,-114.436,416.264
1199.504,-89.06,322.568
875.96,-118.096,152.012
344.772,-55.144,-71.004
-34.404,131.272,-142.252
-108.824,198.128,-131.76
0.732,267.424,-248.88
109.312,359.168,-307.684
208.864,480.192,-293.288
309.88,540.948,-229.604
402.112,562.664,-174.46
515.572,578.036,-101.748
599.996,606.34,-45.14
628.3,643.428,29.036
599.264,677.1,113.216
601.216,689.056,201.544
732.732,707.356,157.136
756.888,789.584,331.596
774.944,818.62,355.508
842.532,792.512,258.396
679.54,735.904,342.332
588.772,721.508,362.584
544.852,734.44,341.356
491.904,777.14,326.472
363.804,744.688,349.408
291.58,740.54,319.64
173.24,770.552,268.888
184.464,817.888,199.592
121.268,821.792,179.584
-7.808,783.972,177.632
43.92,796.66,112.728
135.664,800.32,48.556
85.4,789.828,27.328
-10.736,767.136,18.3
-124.196,822.768,25.62
-112.484,952.576,45.628
-73.932,1035.292,95.404
-29.036,1056.032,147.864
-5.368,1130.94,151.28
-123.22,1182.18,122.0
-163.48,1219.512,111.02
-96.624,1270.02,144.204
-10.98,1298.324,149.084
10.004,1311.5,127.612
-56.852,1256.844,117.608
-74.176,1209.264,84.668
-115.412,1159.976,91.012
-121.512,1131.428,93.696
-94.428,1131.428,56.608
-146.4,1084.58,55.388
-99.064,1081.408,9.516
-113.704,1064.572,-16.348
-132.492,1030.9,-18.788
-98.088,1027.24,-30.744
-104.188,1003.572,-15.86
-59.292,1007.964,-26.84
-55.876,1010.892,-24.644
-57.34,987.956,-7.076
-32.696,973.072,1.464
-39.528,940.132,17.812
-33.428,915.732,22.936
-26.352,904.752,30.012
-31.72,875.472,41.724
3.904,892.308,19.764
-26.84,925.248,7.564
-82.716,928.176,21.96
-82.228,939.644,26.108
-69.296,987.468,3.904
-91.744,1027.972,-13.176
-110.776,1055.056,-19.276
-100.772,1079.456,-18.3
-103.7,1082.14,0.976
-107.36,1074.088,14.64
-93.208,1059.936,13.42
-76.86,1044.564,7.808
-71.736,1034.316,0.488
-70.028,1020.652,-9.272
-77.592,1001.132,-14.884
-72.956,986.492,-21.716
-77.104,979.172,-26.84
-88.816,973.804,-41.236
-104.432,964.776,-57.34
-112.972,953.308,-69.54
-121.756,948.184,-69.54
-117.364,953.308,-66.124
-112.24,973.316,-60.024
-104.676,996.74,-58.56
-99.796,1025.288,-52.704
-94.428,1027.24,-53.924
-105.652,1014.552,-56.364
-130.296,991.86,-57.34
-152.744,965.996,-54.412
-171.288,942.328,-47.58
-179.828,934.032,-41.48
-183.976,927.932,-31.72
-180.56,925.248,-27.328
-181.048,927.932,-19.764
-185.44,923.784,-6.344
-171.288,929.152,0.0
-158.844,931.836,5.368
-146.888,944.036,7.32
-149.328,950.38,17.08
-139.568,967.46,14.152
-137.86,991.616,15.128
-122.976,1014.064,10.492
-118.828,1026.996,8.54
-120.292,1020.896,11.712
-108.336,1032.364,8.296
-128.588,1024.556,18.544
-126.392,1016.016,21.472
-136.396,1001.132,30.744
-142.252,992.836,37.576
-128.1,1001.132,40.992
-123.464,1011.38,45.872
-108.824,1012.356,40.26
-110.776,993.812,42.212
-108.092,970.388,46.116
-100.528,964.044,41.968
-102.236,963.556,40.992
-84.912,974.292,30.988
-81.252,979.904,20.74
-100.284,969.656,19.276
-125.416,960.628,23.668
-154.94,975.512,38.796
-185.928,1047.98,72.712
-228.14,1130.208,167.628
-196.908,1294.908,118.34
-327.204,1346.392,274.988
-257.908,1435.94,210.572
-331.84,1341.512,233.02
-369.904,1285.392,267.18
-254.736,1241.716,197.884
-257.664,1220.976,177.388
-213.988,1152.656,122.488
-188.124,1109.712,94.428
-152.5,1053.836,62.952
-125.66,993.324,21.96
-131.76,932.568,-39.528
-306.952,837.408,-142.252
-394.06,788.852,-248.392
-132.98,714.188,-272.06
-15.616,723.216,-149.816
-112.484,682.956,-175.924
-154.208,615.612,-262.544
-207.4,454.328,-281.088
-148.108,453.84,-239.364
36.6,263.032,-139.08
693.204,-76.86,-52.216
824.232,-172.996,-179.096
667.34,33.184,-682.956
1035.536,871.568,-723.216
1549.156,1242.204,-415.288
1325.164,715.896,-405.284
736.148,245.22,-471.652
769.332,-4.148,-595.36
955.504,97.112,-335.256
970.144,349.652,-146.888
745.42,496.784,-187.392
468.968,551.928,-244.488
427.488,578.036,-225.7
553.88,530.212,-190.564
575.596,367.952,-189.1
499.712,247.416,-227.408
340.38,158.844,-149.816
220.332,84.18,-48.8
216.428,35.624,23.424
263.52,-42.7,91.5
372.588,-150.304,104.432
512.4,-297.924,-62.22
683.688,-419.436,-391.864
827.404,-378.2,-739.808
966.484,-293.532,-976.0
1103.368,-231.312,-1103.856
1091.412,-219.356,-1070.184
1083.848,-247.66,-982.588
1174.372,-327.692,-930.372
1226.832,-430.172,-853.512
1220.732,-507.52,-783.728
1180.716,-497.516,-690.52
1233.42,-395.524,-615.124
1294.908,-313.54,-535.336
1391.044,-300.852,-508.74
1422.032,-254.736,-511.912
1520.12,-259.128,-538.02
1698.24,-266.448,-535.336
1850.496,-283.04,-533.384
1946.388,-282.552,-502.64
2011.292,-295.728,-458.72
1952.0,-321.348,-399.184
1804.868,-344.772,-353.068
1636.508,-355.508,-310.124
1498.404,-334.28,-272.548
1381.772,-309.88,-241.072
1347.124,-305.244,-230.58
1362.496,-287.188,-235.46
1312.476,-231.8,-238.632
1255.868,-180.072,-240.096
1211.216,-140.056,-254.492
1026.752,-95.892,-248.392
844.728,-62.952,-265.716
567.544,-58.316,-292.8
284.992,21.228,-325.74
-19.276,137.128,-417.972
-203.252,325.252,-459.696
-309.392,468.968,-386.984
-267.912,546.316,-369.66
-161.528,615.124,-291.824
64.66,651.48,-249.124
229.36,674.66,-184.464
348.188,721.508,-142.74
389.912,769.332,-95.16
447.984,803.492,-49.532
513.132,844.484,-7.32
585.844,885.72,24.4
669.78,915.0,62.464
820.084,947.452,83.448
888.648,940.376,116.144
848.876,954.772,256.688
841.8,903.776,226.188
682.468,832.772,236.924
448.472,775.432,268.888
350.628,763.476,266.692
233.02,737.856,254.004
86.62,691.252,203.496
-17.812,676.368,141.52
-93.696,648.552,114.436
-138.836,681.492,31.476
-87.352,695.4,-3.904
-101.504,698.328,-37.82
-127.124,768.6,-27.816
-94.428,875.228,-14.152
-61.244,987.956,-37.332
-30.988,1089.216,-56.608
-21.716,1134.356,-42.212
-58.56,1099.464,-5.124
-66.856,1122.156,20.008
-90.524,1131.916,63.196
-128.588,1091.168,114.924
-136.64,1038.708,145.18
-148.596,983.32,183.732
-153.964,991.86,194.468
-157.624,996.008,184.464
-152.988,1007.964,189.344
-205.692,1003.572,197.152
-186.66,994.788,194.956
-190.564,1031.144,202.764
-197.152,1068.964,199.348
-183.0,1076.772,186.904
-180.804,1074.576,168.604
-168.36,1028.216,156.16
-119.804,1019.92,126.392
-157.38,989.42,157.38
-170.556,962.824,176.412
-165.676,951.356,172.508
-200.324,937.448,199.104
-167.14,966.972,195.444
-171.776,991.616,211.06
-149.084,1004.06,214.964
-139.812,1012.6,214.232
-142.984,1011.136,216.428
-124.44,1050.42,185.196
-163.236,1042.124,189.344
-157.136,1038.708,190.076
-147.132,1036.756,187.392
-163.724,988.444,197.884
-111.508,995.276,177.876
-108.824,993.08,191.052
-90.524,983.32,191.052
-84.912,981.612,190.808
-105.652,967.948,200.812
-111.264,965.752,198.372
-112.728,979.172,184.708
-122.732,986.98,172.752
-126.392,987.956,161.528
-132.248,967.948,161.284
-129.32,945.5,172.264
-129.32,936.716,185.44
-123.22,939.888,187.636
-121.756,936.716,183.244
-116.388,934.032,167.872
-127.124,929.64,160.552
-124.44,943.548,159.82
-108.092,971.608,155.672
-102.968,988.444,152.256
-97.844,996.496,152.988
-90.524,992.348,148.108
-106.384,971.12,148.352
-104.188,962.336,136.64
-107.604,960.14,132.736
-103.944,973.072,127.612
-105.164,973.072,121.024
-110.776,971.852,115.656
-110.532,973.072,110.532
-118.34,964.776,113.216
-120.048,957.212,111.752
-118.584,958.188,110.288
-113.948,958.92,112.728
-102.724,970.144,106.628
-100.284,986.736,99.308
-94.184,1000.888,95.404
-91.5,1016.504,96.38
-104.676,1017.236,108.092
-122.488,1010.648,122.732
-127.368,1025.044,123.464
-134.688,1039.928,115.9
-139.568,1052.616,111.02
-150.792,1056.276,115.9
-153.964,1059.936,119.072
-156.648,1061.888,122.244
-162.26,1043.1,122.732
-170.556,1022.36,125.66
-171.044,1010.892,130.296
-157.624,1024.068,139.568
-151.036,1044.076,149.572
-146.644,1046.272,154.94
-145.424,1020.408,147.62
-135.42,993.568,120.292
-117.608,987.224,131.516
-102.48,983.808,136.64
-105.408,996.74,140.056
-123.22,1008.94,138.836
-120.048,1038.708,116.632
-149.084,1053.348,108.824
-164.456,1040.66,93.208
-140.056,1016.26,70.516
-157.868,972.584,30.744
-171.044,946.232,2.928
-120.292,957.456,-30.012
-151.768,946.232,-34.892
-137.128,958.432,-74.42
-133.956,977.22,-77.836
-114.924,1006.256,-76.616
-183.488,1020.164,-55.144
-151.28,1061.644,-40.748
-155.428,1105.32,-64.416
-243.268,1132.404,-38.796
-365.268,1121.18,-60.512
-254.492,1205.604,-65.636
35.624,1192.184,-31.72
352.58,995.52,-100.04
680.76,701.5,-270.108
1012.356,676.124,-70.272
878.644,417.728,214.232
340.624,-189.588,-168.604
331.84,292.068,-46.604
887.428,920.124,-121.512
596.58,1085.556,365.268
798.856,604.632,152.5
774.7,393.084,236.68
859.124,62.22,-105.896
922.32,48.312,15.372
987.224,253.028,204.228
870.836,427.488,230.824
636.352,452.376,140.3
531.676,437.004,95.648
551.684,433.1,129.564
485.804,392.84,112.972
386.74,346.968,54.9
367.952,300.364,62.22
376.98,258.396,127.124
341.844,167.872,190.564
287.676,27.816,231.068
250.344,-139.812,219.112
244.976,-309.636,152.256
511.18,-401.38,8.052
818.62,-444.568,-127.124
1058.716,-445.3,-248.636
1239.52,-446.764,-329.156
1382.504,-473.116,-364.048
1369.084,-514.108,-337.452
1376.16,-531.432,-258.152
1451.556,-592.676,-160.064
1437.892,-694.912,-142.984
1362.496,-753.228,-134.2
1405.928,-751.276,-92.72
1518.9,-715.896,-22.692
1632.116,-711.26,13.176
1612.596,-698.328,4.148
1618.696,-649.284,-9.272
1667.74,-579.012,44.164
1723.86,-548.512,125.66
1704.828,-569.74,175.436
1644.316,-593.652,208.864
1588.928,-592.188,252.296
1538.664,-581.452,300.12
1494.256,-565.348,320.616
1446.432,-549.976,341.6
1419.836,-527.528,359.168
1429.352,-466.528,355.996
1366.644,-421.632,352.092
1273.68,-386.984,359.168
1252.452,-401.624,358.436
1287.588,-343.796,308.416
1171.2,-322.812,220.576
906.948,-313.54,113.948
525.576,-307.44,-27.084
75.396,-93.94,-137.86
-478.728,130.54,-258.396
-505.812,435.784,-287.676
-148.84,507.276,-178.852
88.572,488.488,-203.252
380.152,554.612,-240.096
498.004,660.508,-275.964
442.616,688.324,-193.98
502.884,705.404,-115.412
577.792,705.404,-66.856
712.236,724.436,-30.5
856.928,764.452,29.768
992.592,807.396,54.9
893.04,772.016,176.412
791.78,686.372,176.168
722.728,675.88,109.312
480.436,641.964,168.36
408.7,648.308,149.816
224.236,564.616,89.06
61.488,627.324,155.672
-39.04,731.268,211.792
-65.148,714.676,227.652
-65.392,571.936,326.228
-66.124,855.464,186.416
-71.004,793.732,162.992
-148.352,848.144,25.376
-157.38,915.732,3.66
-117.12,904.508,-24.4
-53.924,963.312,-33.672
30.988,1051.884,-62.464
-58.072,1209.02,-87.108
-119.072,1268.312,-103.212
-201.544,1266.116,-95.404
-204.228,1356.396,-103.944
-203.74,1448.628,-127.124
-243.756,1436.916,-158.356
-280.356,1348.344,-186.66
-257.664,1243.912,-176.168
-241.072,1128.744,-140.3
-250.344,1021.384,-117.852
-260.348,948.672,-113.704
-259.128,908.656,-83.692
-171.288,956.724,-105.896
-185.928,970.876,-88.816
-177.388,962.824,-59.536
-145.668,980.88,-61.732
-135.42,988.444,-68.808
-142.496,966.24,-43.676
-69.296,1004.548,-59.292
-81.496,1013.82,-47.336
-74.42,999.668,-29.28
-58.316,1007.72,-34.892
-95.404,967.216,-24.4
-70.028,970.388,-37.088
-88.328,965.02,-30.744
-80.52,968.924,-29.524
-80.52,968.436,-27.084
-90.524,956.48,-15.372
-64.416,977.464,-22.204
-79.544,984.296,-16.348
-74.42,989.664,-16.836
-81.984,980.88,-15.128
-86.376,971.12,-13.908
-87.108,973.804,-15.616
-85.888,976.0,-19.032
-82.472,983.076,-24.4
-85.4,989.176,-28.304
-80.52,1001.376,-31.72
-79.056,1008.208,-32.208
-84.668,1009.428,-34.648
-88.816,1002.596,-36.356
-89.792,994.056,-36.356
-90.28,986.248,-34.892
-85.888,982.588,-35.38
-89.548,977.708,-36.844
-84.912,977.952,-40.748
-88.328,975.268,-38.552
-85.644,976.488,-41.236
-92.964,969.9,-40.748
-81.496,979.172,-52.46
-94.428,981.612,-47.824
-90.524,992.592,-45.628
-92.232,997.228,-46.604
-100.772,987.224,-39.04
-95.404,978.684,-40.748
-99.796,972.34,-44.652
-88.816,988.688,-52.948
-90.28,1004.792,-55.388
-91.5,1012.6,-54.168
-90.524,1011.38,-50.508
-100.284,1000.888,-47.336
-107.848,1003.328,-49.044
-118.828,1017.48,-42.944
-120.536,1025.288,-35.38
-121.268,1036.024,-30.5
-122.732,1048.224,-29.768
-131.028,1057.984,-30.744
-138.104,1058.716,-33.428
-144.936,1056.52,-36.112
-151.036,1062.62,-33.916
-139.08,1068.72,-34.404
-142.008,1056.032,-30.012
-130.54,1037.732,-39.284
-134.444,1006.744,-44.164
-143.96,976.488,-52.704
-152.744,937.448,-57.584
-137.86,930.128,-68.808
-105.896,937.692,-92.232
-103.944,937.448,-108.58
-104.92,932.324,-109.8
-97.112,926.956,-109.556
-114.924,915.244,-105.408
-131.76,899.14,-102.968
-145.18,906.216,-98.576
-140.544,951.112,-88.084
-127.612,1000.644,-77.348
-128.832,1017.48,-71.248
-156.648,1040.172,-68.076
-201.544,1046.272,-46.604
-201.3,1111.42,-62.464
-190.32,1101.66,-32.452
-225.212,1126.06,-64.66
-230.58,1139.236,-45.14
14.152,1247.572,-121.024
31.964,1240.252,-142.252
54.656,1169.98,-142.74
121.268,1125.816,-143.96
139.08,1146.312,-185.196
33.184,1134.844,-155.428
120.048,1128.744,-86.132
160.552,1064.816,-155.916
86.376,977.952,-103.944
53.68,952.82,-76.86
12.932,895.236,-82.716
-11.468,884.988,-78.324
-1.22,896.7,-74.176
13.42,863.76,-56.852
-17.324,819.352,-46.36
-41.724,810.08,-41.724
-59.78,772.992,-23.668
-104.188,738.588,-12.932
-123.22,733.22,0.244
-145.912,676.124,-11.224
-346.48,619.028,1.22
-413.092,542.412,-5.612
-75.152,436.028,-16.104
151.768,374.296,86.62
518.5,226.676,1.22
861.808,-8.54,-121.024
1095.072,-254.98,-114.436
1101.904,57.34,-456.524
971.364,621.468,-365.268
1302.96,1144.36,-292.8
1325.652,810.08,-175.436
1053.836,502.64,-245.708
987.712,199.836,-383.324
1222.196,-2.928,-467.26
1342.488,105.408,-230.824
1240.496,239.12,-139.812
955.992,294.996,-178.608
786.9,321.836,-202.52
818.62,330.62,-193.248
861.076,292.312,-201.056
824.232,234.972,-218.38
732.488,189.1,-183.244
681.004,142.008,-128.344
617.32,78.324,-104.432
552.66,13.42,-133.224
583.16,-17.568,-162.504
695.888,-35.38,-158.6
736.88,-47.58,-161.04
677.1,-84.424,-151.036
817.4,-111.02,-100.772
1082.384,-123.708,-17.08
1243.668,-149.816,31.232
1302.716,-183.976,69.052
1297.104,-263.276,174.46
1221.708,-320.128,360.144
1205.848,-379.664,562.664
1342.732,-417.728,712.724
1472.296,-523.136,859.124
1413.492,-621.468,941.108
1354.2,-683.688,977.464
1362.74,-682.712,1054.568
1327.604,-615.368,1085.312
1214.876,-527.284,1014.552
1090.924,-437.492,943.792
1037.732,-376.248,893.04
1036.268,-329.4,837.408
1033.34,-318.176,795.684
998.204,-326.228,773.724
1023.336,-333.548,743.468
1096.292,-324.764,708.332
1148.508,-289.14,655.872
1134.6,-305.244,632.204
1084.58,-278.648,610.732
1066.036,-258.884,594.628
973.072,-230.336,592.432
937.936,-180.072,539.972
840.824,-77.592,466.04
728.096,31.72,358.924
619.516,128.1,261.568
374.296,260.104,166.408
169.58,340.136,8.784
-37.82,483.364,-135.176
-143.716,622.688,-230.824
-56.364,700.28,-163.968
168.116,719.556,-130.296
352.336,749.324,-90.524
407.724,699.06,-11.956
445.544,662.216,71.004
514.352,641.964,151.28
609.268,630.984,252.784
756.888,633.424,335.5
861.32,624.884,420.9
940.132,600.972,468.236
942.328,572.668,499.224
863.272,551.44,505.08
820.572,577.548,499.712
745.42,601.704,498.004
715.896,601.704,474.336
716.628,588.528,425.536
609.512,620.736,351.848
499.468,636.352,366.0
473.848,694.668,211.792
346.724,616.588,222.04
311.588,632.692,183.976
295.484,619.028,144.448
265.716,543.144,120.048
69.54,626.836,105.896
29.768,639.768,193.248
58.072,650.504,154.94
56.12,628.788,95.404
-36.844,624.64,158.112
20.252,732.488,138.592
93.452,903.288,118.096
24.4,1028.216,95.892
-155.672,1153.388,57.828
-101.504,1228.052,-29.28
-197.396,1360.3,-53.192
-212.768,1491.816,-96.624
-235.948,1507.676,-145.668
-313.54,1425.692,-190.564
-292.312,1383.236,-250.832
-327.204,1307.596,-242.048
-325.252,1222.928,-216.184
-320.128,1139.968,-182.024
-312.564,1082.384,-150.792
-287.188,1043.344,-121.268
-218.38,1027.972,-114.436
-196.176,1015.528,-117.608
-177.144,1018.456,-136.884
-181.292,1005.768,-130.54
-157.868,993.812,-124.928
-144.936,981.612,-111.508
-122.976,981.368,-108.824
-103.944,983.808,-108.092
-84.18,988.2,-109.312
-64.66,1005.524,-116.876
-98.82,988.444,-92.232
-65.148,991.372,-88.084
-83.692,982.832,-75.396
-109.312,949.16,-55.632
-87.84,946.232,-58.316
-108.58,934.764,-49.532
-110.288,923.296,-48.068
-97.356,933.3,-67.588
-125.416,928.176,-57.828
-106.872,938.912,-62.952
-115.412,942.816,-59.78
-112.484,955.016,-64.172
-119.804,956.236,-56.608
-104.676,963.8,-58.804
-100.772,974.536,-59.292
-98.576,979.416,-60.024
-103.7,975.512,-60.268
-102.724,971.364,-59.048
-103.7,973.072,-57.096
-109.068,976.0,-61.0
-124.196,976.488,-60.756
-119.072,983.32,-68.564
-126.392,987.224,-70.516
-132.248,996.008,-69.784
-128.832,1002.352,-74.42
-137.372,996.008,-71.98
-130.784,994.544,-72.712
-128.1,993.324,-70.516
-132.004,981.612,-69.296
-134.2,963.8,-67.1
-132.248,959.896,-69.784
-124.684,968.68,-72.956
-103.944,983.32,-74.908
-85.888,994.3,-68.808
-70.028,1006.988,-68.076
-63.928,1007.964,-58.072
-47.824,1008.208,-50.264
-58.56,995.276,-37.332
-50.508,1004.06,-45.872
-69.052,998.448,-41.724
-61.732,1007.476,-42.944
-77.104,1002.352,-31.72
-71.736,1006.012,-23.18
-69.54,1006.744,-15.128
-77.104,1004.304,-7.32
-68.564,1008.452,-4.88
-69.052,1020.896,2.196
-64.904,1025.532,4.148
-64.416,1015.528,10.98
-67.1,988.932,20.984
-66.124,959.896,19.276
-82.472,927.932,22.936
-69.54,920.124,15.86
-58.072,925.004,15.616
-42.456,945.988,12.444
-30.5,973.56,8.784
-37.576,989.176,15.128
-36.112,1004.548,24.644
-41.236,1032.608,36.6
-57.34,1066.768,51.972
-69.296,1108.98,67.344
-75.64,1155.34,73.932
-111.752,1191.452,67.588
-69.54,1244.644,54.168
-64.172,1312.476,111.264
-117.12,1308.084,108.58
-107.848,1301.496,3.904
-16.592,1330.532,-69.784
102.724,1299.544,-71.004
275.476,1277.34,-120.048
269.864,1217.072,-163.48
237.412,1154.852,-147.62
165.92,1130.94,-74.42
174.704,1060.912,-46.848
90.768,923.784,-16.104
18.788,820.084,8.296
23.18,754.204,-36.112
18.544,686.86,-43.432
47.824,713.212,-30.988
43.188,736.148,-12.2
-22.692,746.396,14.884
-80.276,719.312,21.96
-191.296,701.256,-0.976
-259.616,724.924,-16.104
-229.848,693.936,-25.864
-106.384,639.036,18.056
172.02,575.352,-1.708
468.724,475.312,6.832
570.96,264.496,-10.248
863.76,-1.952,-102.236
1050.908,309.148,-212.036
878.888,697.108,-101.26
1324.676,960.384,-208.62
1287.588,860.344,-6.1
945.256,515.572,-57.34
846.192,239.852,-188.612
973.804,108.58,-192.76
1064.572,163.48,-38.796
1010.892,269.132,30.988
862.052,356.24,-3.172
673.196,388.692,-49.776
571.692,404.064,-71.004
555.344,387.96,-81.008
509.96,343.064,-76.616
381.616,304.756,-85.4
282.064,262.056,-54.9
289.872,150.548,-76.86
339.16,60.268,-155.916
370.148,4.148,-184.708
450.18,-68.076,-208.376
720.044,-152.012,-285.236
1002.596,-256.444,-366.488
1022.116,-347.7,-447.252
1056.276,-395.28,-556.32
1288.32,-340.868,-707.112
1325.652,-236.924,-727.12
1281.488,-219.6,-686.128
1333.46,-278.16,-691.252
1369.328,-348.188,-696.376
1262.212,-475.312,-668.804
1188.768,-577.06,-647.332
1337.852,-602.68,-651.48
1550.376,-560.956,-653.432
1608.448,-511.424,-599.264
1555.5,-484.34,-538.02
1574.776,-444.324,-545.096
1569.896,-377.712,-540.948
1572.58,-305.244,-465.552
1576.972,-282.064,-375.516
1605.276,-281.82,-342.576
1541.348,-277.428,-282.308
1483.52,-298.412,-260.348
1486.204,-246.684,-264.252
1416.664,-159.088,-220.088
1358.348,-79.056,-184.952
1311.744,-37.576,-161.04
1145.824,-37.576,-125.66
938.424,-43.676,-111.752
759.816,-68.808,-175.924
546.072,10.492,-238.876
266.936,112.484,-301.828
-134.2,248.636,-306.22
-272.06,429.196,-253.272
-188.124,520.208,-241.56
7.076,567.056,-255.712
236.924,625.128,-243.756
477.508,644.892,-196.664
639.036,702.232,-147.62
783.24,742.492,-129.076
859.124,789.34,-97.844
906.216,828.624,-61.244
845.704,845.948,16.104
876.936,819.84,58.316
891.088,823.988,66.368
727.12,811.056,121.756
494.588,770.552,217.648
454.572,718.824,148.596
457.988,695.644,170.8
411.384,637.328,192.516
245.464,550.22,150.548
113.46,539.728,101.016
-36.112,604.876,96.38
-69.296,651.724,108.824
22.692,685.884,126.88
40.992,664.656,140.544
-76.616,572.668,111.02
-113.216,568.764,61.732
-10.492,731.268,31.964
28.304,943.304,69.052
39.528,1067.256,45.872
-10.248,1164.612,-13.176
-5.124,1281.488,-70.76
-48.312,1358.592,-114.192
-86.376,1331.752,-115.656
-129.564,1355.664,-132.004
-215.94,1347.368,-172.508
-266.692,1331.508,-206.912
-313.784,1274.412,-212.28
-299.632,1239.764,-206.424
-280.844,1190.232,-169.58
-224.968,1153.876,-163.48
-212.768,1095.072,-142.496
-169.336,1051.64,-134.444
-150.792,1023.092,-130.052
-149.572,983.808,-101.748
-123.708,960.384,-89.548
-97.112,937.204,-82.472
-76.616,947.452,-73.932
-62.464,938.912,-61.244
-55.388,954.772,-46.848
-43.188,953.552,-31.964
-35.38,958.676,-23.668
-40.748,964.288,-15.372
-40.016,970.388,-11.712
-53.68,965.264,-5.856
-65.636,968.192,-6.344
-69.784,975.268,-3.416
-57.828,995.52,-8.052
-63.684,1006.744,-8.052
-64.66,1004.304,-2.44
-79.3,991.372,3.416
-97.112,962.092,14.64
-79.056,965.752,1.952
-86.376,956.236,0.976
-57.828,975.024,-17.324
-70.272,976.732,-12.932
-70.516,970.632,-9.516
-62.464,991.616,-17.568
-89.548,978.44,-13.664
-83.448,965.752,-9.272
-45.384,995.276,-29.524
-68.076,989.42,-18.788
-61.732,983.32,-15.372
-46.848,997.716,-25.132
-78.812,972.584,-12.2
-73.932,972.828,-20.008
-68.32,998.936,-34.892
-86.132,985.272,-28.06
-66.124,992.348,-36.844
-54.168,1020.408,-54.412
-79.788,1004.548,-38.308
-64.416,1013.088,-38.796
-79.788,997.96,-34.404
-80.764,991.616,-37.088
-70.516,999.424,-45.384
-74.664,1000.644,-45.384
-67.1,1011.136,-56.852
-74.176,1013.332,-51.484
-66.612,1000.156,-47.58
-70.516,986.004,-41.236
-65.88,976.488,-47.824
-71.004,966.728,-44.652
-65.636,958.432,-39.284
-59.536,956.48,-37.82
-48.8,960.384,-46.604
-53.436,959.164,-37.82
-44.652,967.704,-35.868
-46.36,985.028,-37.332
-58.072,996.74,-39.284
-66.124,1012.356,-44.164
-96.624,1047.736,-45.384
-116.388,1091.656,-69.784
-127.856,1142.164,-52.948
-116.632,1213.412,-42.7
-167.384,1241.96,-6.588
-185.928,1222.928,-17.812
-195.444,1177.544,-29.768
-142.008,1148.508,-35.38
-76.616,1182.912,-44.896
-61.732,1223.172,-47.58
-13.42,1224.392,-70.272
-0.732,1152.656,-66.856
32.696,1111.908,-40.26
7.076,1072.624,-57.34
-14.152,1034.072,-32.696
-23.912,1001.864,-23.912
-59.292,964.044,-24.644
-97.356,938.668,-16.348
-124.684,919.148,2.44
-152.012,895.724,10.736
-192.272,871.812,13.664
-220.088,837.896,-2.44
-228.14,827.16,-8.784
-294.996,802.028,4.636
-416.508,799.832,12.444
-311.344,795.196,21.96
-264.008,730.292,22.448
-197.64,714.92,-22.692
-82.96,599.752,-111.264
147.62,480.436,-128.344
301.828,306.464,-117.364
553.636,66.368,-201.056
925.736,-13.176,-405.284
839.848,216.184,-303.536
865.712,420.168,-313.052
984.784,693.936,-433.832
1249.036,811.788,-468.48
1216.096,656.604,-454.572
1095.316,429.44,-465.796
1055.544,251.564,-491.904
1004.548,128.588,-461.892
928.176,124.928,-411.14
800.32,179.34,-383.324
662.216,235.704,-373.32
557.54,267.912,-352.58
483.608,250.1,-321.104
464.576,197.64,-321.836
482.876,179.584,-299.388
436.272,136.152,-271.328
445.544,90.768,-304.268
504.592,41.968,-338.916
499.956,-23.912,-411.872
487.512,-67.588,-462.38
575.108,-124.928,-500.932
461.404,-196.908,-448.472
523.624,-226.188,-403.576
897.676,-211.304,-332.816
1317.6,-306.464,-283.772
1431.548,-380.396,-273.036
1367.864,-484.34,-356.484
1219.024,-527.04,-382.836
1232.688,-504.592,-348.676
1393.484,-480.924,-202.032
1353.712,-458.476,-173.484
1204.384,-464.332,-229.36
1084.58,-555.1,-256.444
1308.816,-544.852,-203.984
1551.596,-595.604,-207.4
1565.504,-621.712,-166.896
1539.884,-668.56,-149.816
1476.932,-638.792,-132.492
1460.096,-555.344,-92.232
1482.056,-521.672,-17.812
1487.668,-511.912,15.86
1447.408,-537.532,34.892
1373.232,-522.404,44.896
1301.74,-469.212,69.052
1247.816,-393.816,108.58
1233.664,-353.8,136.396
1229.76,-298.656,131.028
1217.072,-258.884,110.044
1220.0,-228.14,89.548
1234.396,-230.824,82.472
1322.968,-182.756,52.46
1308.572,-127.124,37.576
1181.448,-97.356,35.38
1036.756,-57.828,17.812
814.228,19.276,-44.652
566.324,64.172,-78.568
380.884,153.232,-135.664
183.488,262.056,-248.392
118.096,409.188,-289.872
107.36,529.236,-283.772
161.04,549.0,-279.38
333.792,568.032,-276.94
513.864,614.392,-282.796
583.892,611.22,-225.944
650.992,639.036,-155.672
715.896,661.484,-99.552
780.312,670.512,-60.268
827.648,665.144,-14.64
868.884,658.312,-40.26
846.68,685.64,28.304
809.348,747.616,3.66
696.62,725.656,5.124
592.676,712.236,2.44
441.64,815.936,44.408
206.912,832.284,106.628
-18.788,793.244,88.328
-146.156,704.184,53.924
-180.804,655.872,121.512
-113.948,568.764,126.148
-111.752,495.564,155.916
-15.372,571.448,128.1
49.288,697.108,113.216
-42.456,835.456,180.316
-1.464,1007.964,192.76
-27.816,1144.36,160.796
-129.076,1311.012,142.496
-187.636,1385.432,133.468
-208.376,1372.744,85.888
-252.784,1298.568,16.592
-268.156,1249.28,-40.016
-288.652,1178.032,-68.076
-233.02,1148.508,-97.356
-255.468,1111.908,-93.696
-274.744,1045.052,-77.104
-258.152,986.004,-67.832
-205.936,983.32,-73.2
-214.964,984.052,-63.44
-178.852,1021.628,-85.156
-204.228,1017.968,-80.032
-196.664,1007.476,-64.416
-180.072,996.74,-47.824
-162.504,983.808,-43.92
-156.404,970.876,-48.312
-128.832,967.948,-64.904
-139.568,960.628,-72.712
-153.476,942.816,-61.488
-154.452,943.06,-40.504
-158.6,940.376,-15.372
-150.792,953.552,0.488
-133.468,965.752,2.44
-121.756,976.488,-2.196
-121.268,981.368,-1.952
-117.852,986.492,-2.196
-123.708,985.028,6.588
-126.392,984.052,15.372
-116.144,993.568,19.276
-108.58,996.74,18.056
-115.9,992.348,16.836
-121.756,979.66,17.568
-123.464,967.704,15.128
-140.544,954.284,18.788
-142.252,953.308,21.228
-126.88,960.628,12.688
-138.348,958.676,10.492
-130.296,967.46,1.464
-128.1,976.244,-2.196
-123.464,975.756,-6.588
-124.928,978.684,-8.784
-132.736,981.856,-5.612
-123.708,981.124,-8.296
-128.344,976.732,-7.076
-131.272,967.704,-4.148
-128.344,968.192,-4.392
-130.296,970.144,-6.344
-145.668,970.632,-5.856
-143.96,975.024,-9.516
-139.08,986.736,-14.884
-145.424,1001.864,-15.86
-150.792,1027.484,-12.688
-159.332,1053.348,-6.588
-168.604,1087.752,0.488
-204.716,1132.16,13.664
-239.12,1189.744,20.008
-236.68,1226.344,34.648
-230.336,1190.476,46.116
-247.66,1159.732,41.236
-254.248,1169.98,61.0
-202.032,1174.128,25.376
-167.872,1178.52,24.4
-75.64,1186.816,-22.936
-37.088,1184.132,-54.656
-12.932,1131.916,-78.812
46.36,1109.712,-16.348
166.896,1118.984,-31.232
102.968,1033.34,-16.348
21.228,966.972,-0.244
11.224,924.272,-13.176
34.892,882.548,-14.884
30.988,856.928,3.172
47.824,867.42,38.552
50.264,830.088,57.828
20.008,755.18,25.376
-153.232,600.972,-40.016
-366.732,452.132,-103.944
-329.4,328.18,-37.576
-30.256,349.652,-11.712
563.64,-99.064,-171.532
1050.176,-488.488,-403.576
1330.532,-246.196,-460.184
717.116,597.556,-475.312
1648.22,1299.056,-773.236
1685.796,1037.732,-267.668
895.48,367.952,-336.232
644.648,5.368,-515.816
831.308,-236.436,-428.952
1163.88,5.856,-122.0
1122.156,267.18,-54.9
703.452,290.604,-145.912
444.324,287.676,-196.908
442.372,270.84,-175.436
542.168,228.14,-183.976
557.052,170.312,-176.168
528.992,129.32,-153.232
483.608,68.32,-131.028
546.56,-21.716,-179.828
712.236,-142.008,-250.1
765.916,-205.692,-305.732
672.464,-219.356,-382.836
688.08,-249.612,-489.22
802.028,-259.616,-526.796
1026.508,-283.284,-544.852
1171.444,-306.464,-573.644
1312.964,-414.068,-583.404
1406.904,-515.816,-556.564
1377.38,-585.844,-535.092
1327.116,-590.724,-573.888
1359.812,-534.36,-540.704
1508.652,-499.468,-476.776
1661.396,-527.04,-468.48
1698.484,-545.828,-475.556
1682.136,-532.652,-446.032
1669.204,-488.0,-389.668
1736.792,-437.004,-344.772
1745.82,-423.34,-314.76
1671.888,-406.504,-311.588
1507.92,-386.74,-321.592
1377.868,-349.896,-315.004
1345.66,-304.024,-313.052
1300.032,-269.864,-301.828
1300.764,-207.156,-321.836
1240.252,-161.772,-329.888
1212.192,-137.372,-327.204
1161.684,-73.688,-322.324
1156.56,-2.44,-322.324
917.196,10.248,-290.36
617.32,-34.16,-244.244
320.616,46.116,-288.652
-141.032,290.848,-339.404
-307.196,392.352,-255.468
-171.288,413.336,-219.844
52.46,495.076,-247.172
192.028,557.54,-231.8
260.104,619.028,-192.76
284.26,680.516,-156.892
345.992,728.096,-138.592
401.624,747.372,-126.392
470.188,769.82,-104.676
554.856,777.628,-88.084
616.344,795.928,-77.348
659.044,811.3,-61.488
740.784,844.484,-58.316
867.664,890.356,-72.224
993.324,893.04,-31.476
1048.468,872.544,-38.064
914.024,869.616,123.708
856.44,857.904,87.84
675.392,750.788,128.588
510.448,673.44,150.548
342.088,629.52,134.932
65.148,591.944,152.5
-137.86,574.132,110.776
-323.056,553.636,105.408
-330.62,516.792,115.9
-294.752,589.26,144.204
-160.064,689.544,124.684
-48.068,761.036,98.088
-5.856,837.896,49.776
-107.116,857.416,15.86
-136.884,897.92,-50.508
-96.136,995.764,-111.996
-101.504,1090.192,-138.592
-142.496,1142.896,-171.288
-216.184,1146.312,-202.032
-219.356,1170.956,-194.712
-168.116,1236.104,-219.112
-203.496,1238.544,-239.12
-276.208,1198.04,-243.756
-292.8,1184.62,-259.372
-295.484,1159.488,-233.996
-264.252,1140.456,-189.588
-223.748,1124.596,-153.72
-203.74,1098.732,-117.364
-179.096,1069.452,-98.088
-161.284,1041.392,-93.94
-168.116,1002.596,-74.176
-125.416,1000.156,-75.884
-141.032,977.464,-62.708
-133.712,967.216,-72.468
-94.916,997.228,-99.308
-119.072,979.66,-81.74
-107.604,957.944,-78.568
-55.144,982.588,-110.776
-76.616,998.936,-102.48
-74.908,1001.62,-93.94
-62.22,1002.596,-97.844
-79.544,977.708,-85.156
-66.368,968.68,-86.864
-51.972,967.216,-79.544
-31.476,980.392,-81.008
-52.216,967.704,-62.708
-35.38,975.268,-66.124
-71.004,952.82,-43.676
-91.988,925.492,-25.376
-61.976,948.916,-49.288
-74.176,968.436,-71.004
-106.872,955.504,-58.56
-44.896,1005.28,-92.476
-67.344,1026.264,-98.576
-92.476,1021.384,-86.376
-81.252,1015.04,-97.112
-98.332,985.76,-95.648
-91.988,984.296,-113.704
-100.772,985.028,-104.432
-75.152,996.74,-109.068
-85.4,997.228,-106.14
-94.672,977.952,-97.112
-89.792,966.972,-93.208
-82.96,971.852,-101.016
-85.644,978.44,-108.336
-82.472,977.952,-108.092
-80.276,978.196,-107.848
-90.524,970.388,-100.528
-90.036,961.36,-93.94
-79.3,961.848,-99.308
-70.76,972.34,-110.532
-79.056,984.296,-110.288
-83.204,991.86,-110.288
-91.256,990.396,-104.92
-96.136,986.004,-93.452
-101.504,987.956,-87.596
-113.704,1010.648,-79.788
-119.316,1053.104,-65.392
-126.392,1113.128,-47.58
-143.228,1176.568,-27.572
-210.084,1230.004,-17.812
-217.16,1340.292,-18.788
-161.772,1365.18,-43.92
-150.548,1351.272,-74.664
-149.084,1275.388,-69.296
-98.088,1198.772,-41.724
-106.628,1120.204,-33.672
-165.676,1056.764,-26.596
-120.78,1039.44,-29.28
-22.204,1032.852,-48.312
20.008,983.32,-79.3
20.496,941.108,-98.332
58.072,873.276,-118.34
45.628,871.08,-129.564
40.992,863.76,-85.4
40.748,851.316,-37.82
-16.104,832.284,-25.864
-108.092,804.224,-34.648
-201.056,655.872,-74.176
-329.156,552.904,-103.212
-337.696,599.02,-66.856
76.616,302.56,-104.676
696.132,-105.652,-187.636
1243.424,-119.56,-358.68
1275.876,499.712,-382.836
874.252,818.864,-338.184
1504.748,1183.888,-488.976
1036.512,607.072,-75.64
665.876,166.164,-187.88
1004.06,-65.88,-389.424
1306.62,-28.304,-52.216
1376.16,278.648,43.432
959.164,384.056,-19.52
632.936,426.512,-85.644
588.284,461.892,-68.32
697.352,483.852,-55.632
785.68,437.492,-51.484
783.728,362.828,-80.52
741.516,326.472,-78.08
657.58,316.712,-61.0
547.78,302.804,-46.604
396.988,262.3,-44.652
271.572,176.412,-1.708
293.044,21.228,45.384
293.288,-138.104,36.112
237.168,-286.456,-20.496
402.112,-344.284,-118.096
706.38,-359.9,-176.9
1004.304,-347.944,-200.568
1071.404,-393.572,-183.976
1105.076,-504.836,-251.32
1234.884,-599.264,-264.496
1367.864,-681.248,-257.908
1450.824,-708.088,-316.468
1502.552,-696.132,-304.512
1526.464,-686.616,-264.74
1447.164,-683.932,-250.1
1427.888,-703.94,-260.592
1463.268,-721.996,-220.088
1487.18,-750.544,-172.508
1429.352,-743.468,-193.248
1438.868,-695.4,-185.196
1471.564,-644.892,-98.332
1436.428,-644.404,-47.336
1324.188,-640.988,-28.06
1279.78,-608.536,20.008
1340.78,-605.12,60.268
1399.096,-620.492,104.188
1405.44,-604.388,136.396
1363.472,-583.404,169.824
1321.26,-564.128,199.104
1291.248,-560.224,205.204
1337.852,-585.844,188.612
1411.052,-518.5,165.188
1387.628,-452.132,158.6
1326.384,-400.404,128.832
1197.796,-333.06,89.792
990.64,-286.7,42.7
819.596,-207.888,-14.884
662.216,-103.456,-98.088
480.68,-2.196,-179.096
278.648,113.46,-293.532
104.676,224.236,-368.928
16.104,324.032,-394.06
25.62,385.764,-378.688
106.628,429.44,-347.456
279.136,455.304,-310.612
470.188,476.532,-267.18
594.872,473.604,-222.528
707.112,475.556,-186.904
849.364,469.7,-143.96
979.904,474.58,-97.112
1100.928,505.324,-57.584
1192.184,543.632,-28.06
1236.348,577.548,15.128
1285.148,610.732,-20.984
1308.328,687.836,10.98
1274.9,763.232,24.4
1096.536,730.048,62.464
1059.692,672.708,23.18
887.916,663.68,-18.056
624.152,581.696,-17.08
421.388,590.724,27.328
264.008,703.94,56.12
18.056,644.16,119.072
-127.124,727.608,192.76
-117.364,699.548,227.164
-219.356,665.388,242.048
-208.376,686.128,159.576
-225.212,678.32,150.792
-194.712,691.74,143.228
-233.02,704.184,158.844
-222.772,729.316,176.168
-207.4,761.524,169.58
-243.512,795.928,189.344
-246.44,834.968,194.468
-202.276,920.368,173.972
-207.888,1049.2,149.328
-209.352,1181.692,99.552
-219.6,1260.016,101.26
-175.436,1313.696,82.716
-182.512,1325.652,80.764
-182.024,1295.396,104.92
-158.356,1247.816,83.936
-222.04,1167.54,101.504
-190.808,1112.152,79.3
-197.64,1056.52,94.428
-170.312,1008.94,104.188
-137.616,987.224,86.62
-162.016,952.82,111.752
-99.796,953.796,98.82
-120.536,933.056,124.196
-109.312,922.32,139.812
-75.152,941.596,131.516
-94.916,944.768,150.792
-89.304,946.964,153.476
-85.888,941.352,155.916
-96.38,937.936,166.652
-94.184,947.696,167.14
-100.772,961.848,165.432
-110.532,966.728,161.772
-106.628,968.924,156.404
-102.48,969.168,153.964
-102.236,964.532,152.5
-110.532,960.872,156.16
-118.828,955.748,155.184
-131.516,963.8,148.596
-144.936,977.708,158.112
-143.716,1013.576,164.212
-143.96,1059.204,177.632
-157.38,1092.388,189.344
-169.092,1115.324,197.396
-178.364,1123.62,212.28
-182.756,1131.672,221.308
-183.976,1115.08,228.872
-185.44,1097.024,226.188
-181.78,1073.844,219.112
-165.92,1071.892,207.4
-180.072,1066.28,211.304
-179.096,1072.136,204.228
-206.668,1078.236,204.716
-255.468,1075.064,186.904
-305.732,1068.232,144.936
-340.624,1063.596,101.26
-382.836,1062.864,86.376
-437.98,1074.088,63.928
-417.24,1088.24,27.816
-234.972,1096.536,-43.92
-128.832,1099.22,-126.392
-145.424,1103.612,-92.964
-125.66,996.74,-93.452
-98.088,904.996,-140.3
127.368,826.672,-76.616
485.316,716.872,-37.82
616.344,620.004,15.616
829.112,482.388,85.156
810.568,228.384,-59.048
323.3,266.692,32.696
403.576,620.736,219.112
424.072,810.324,353.8
337.452,605.608,345.992
578.768,458.476,276.208
835.212,285.724,206.18
913.536,260.592,239.12
850.34,343.796,270.596
712.968,475.312,263.032
596.336,537.532,223.26
470.188,501.664,225.7
375.272,433.588,238.632
345.992,334.036,258.152
336.72,230.58,278.648
206.668,125.416,343.064
103.7,40.504,352.824
101.992,-47.336,335.256
166.896,-145.912,312.808
350.628,-214.72,268.4
574.864,-260.348,193.004
702.72,-298.168,122.0
836.188,-332.816,37.576
1057.252,-315.98,-42.7
1268.312,-300.608,-116.144
1414.956,-301.34,-156.16
1508.408,-318.664,-230.824
1602.836,-320.86,-229.604
1656.028,-340.868,-152.5
1560.38,-363.56,-152.988
1501.332,-370.88,-183.488
1555.988,-386.008,-128.588
1624.308,-404.552,-41.724
1612.596,-422.852,13.664
1557.208,-441.884,27.816
1574.044,-458.72,48.068
1681.16,-445.788,113.948
1755.092,-427.732,162.992
1698.24,-431.88,179.34
1652.856,-403.82,160.796
1618.452,-374.296,182.512
1572.336,-360.388,232.776
1535.004,-338.672,234.728
1541.348,-339.648,219.112
1521.34,-368.928,237.412
1432.036,-393.084,261.08
1458.632,-394.548,272.06
1537.932,-344.04,297.192
1487.18,-321.592,299.876
1379.088,-284.26,238.388
1174.616,-237.412,170.068
936.472,-139.812,100.04
705.892,-54.656,35.624
536.8,38.552,-10.004
305.0,151.28,-74.664
43.188,266.692,-139.812
-66.124,373.076,-179.34
-0.976,429.196,-183.488
93.208,473.116,-172.752
166.652,523.624,-145.668
279.868,567.788,-112.972
364.292,598.044,-74.908
428.708,622.2,-50.02
510.204,705.648,-30.744
584.868,808.86,-8.052
644.16,828.624,58.316
878.156,905.972,16.348
914.756,885.476,2.196
767.868,831.796,58.316
621.956,822.28,79.056
472.384,712.724,70.272
357.704,693.204,73.688
173.728,675.392,133.712
-110.044,618.54,240.096
-303.048,594.872,318.42
-386.496,606.584,324.52
-370.88,681.736,344.04
-441.884,753.96,299.144
-496.784,841.068,179.096
-519.232,921.1,125.66
-430.66,976.732,80.764
-329.888,1037.0,46.848
-308.416,1080.432,70.76
-281.332,1115.568,99.308
-247.904,1123.864,113.948
-254.248,1124.84,129.564
-245.464,1111.176,141.276
-238.632,1101.904,130.296
-253.76,1076.528,125.66
-207.644,1077.016,77.592
-250.344,1050.176,72.712
-256.444,1016.748,71.248
-177.144,1035.292,46.36
-199.592,1019.432,50.508
-209.596,1004.792,61.0
-181.292,990.884,54.9
-197.152,961.604,74.908
-185.684,956.236,63.928
-200.812,945.988,82.716
-175.192,945.256,87.596
-154.452,949.892,95.404
-156.16,951.356,103.944
-147.864,953.064,104.676
-136.64,960.14,104.92
-118.096,965.752,98.82
-132.98,962.58,96.624
-149.084,949.404,102.48
-147.62,944.768,100.04
-153.72,948.672,103.944
-149.084,957.7,98.576
-145.912,966.728,95.16
-148.84,968.68,93.208
-151.768,967.704,87.108
-157.868,977.708,78.08
-155.916,986.004,73.688
-143.96,1000.4,69.052
-136.884,1013.332,63.928
-140.3,1015.04,65.636
-132.004,1013.576,59.048
-140.056,1003.328,54.168
-146.4,988.932,55.876
-139.812,990.396,53.924
-152.012,979.416,66.856
-134.688,982.588,69.54
-119.804,992.836,66.612
-141.52,986.98,79.788
-122.0,984.784,76.86
-132.98,974.048,82.228
-141.52,962.58,92.476
-126.636,966.972,86.864
