acc_x[mg],acc_y[mg],acc_z[mg]
415.776,1029.192,-195.932
406.26,1034.316,-216.428
390.888,1048.712,-196.42
387.716,1054.568,-170.312
369.416,1041.148,-117.12
363.316,1038.464,-85.156
333.792,1038.464,-51.24
292.068,1048.712,-16.104
293.776,1063.84,-39.528
316.224,1094.584,-98.088
283.528,1101.66,-121.024
214.476,1073.356,-81.496
194.956,1053.348,-35.38
174.704,1036.268,-17.812
163.968,1032.608,-21.228
131.028,1024.556,-36.6
74.908,1028.948,-51.972
32.208,1014.064,-64.416
-4.148,1033.584,-72.956
-19.276,1044.076,-104.92
-99.064,1046.028,-83.692
-124.928,1029.436,-72.468
-109.068,1019.92,-59.292
-66.612,1006.744,-64.66
-71.248,979.172,-68.32
-86.864,931.592,-82.716
-93.94,883.768,-83.448
-154.452,830.576,-53.436
-206.18,814.96,-52.704
-234.484,821.792,-50.996
-234.484,802.516,-44.408
-192.272,786.656,-31.964
-212.524,755.912,-51.24
-253.272,780.8,-86.864
-200.568,796.416,-76.128
-196.908,780.068,-19.276
-253.028,770.796,32.208
-271.816,781.044,42.944
-177.632,817.4,-3.66
-130.296,858.148,-27.572
-109.068,894.992,-9.028
-150.304,924.516,32.208
-220.088,929.152,4.636
-260.592,959.896,-38.308
-199.104,971.608,-56.364
-183.244,967.948,-37.332
-188.612,955.992,-27.572
-182.024,954.284,-31.232
-211.548,934.032,-24.644
-270.108,902.556,10.98
-251.564,914.024,19.276
-192.028,938.668,-10.248
-178.12,946.476,-18.788
-214.964,934.032,-11.468
-284.26,928.176,-29.28
-274.256,946.232,-70.028
-212.036,968.192,-84.424
-241.072,970.388,-72.956
-274.744,963.8,-53.68
-244.488,979.66,-73.444
-243.756,958.188,-76.128
-326.472,959.652,10.492
-209.108,967.704,-36.356
-15.372,1044.32,-122.0
-130.54,1047.492,-138.836
-342.576,1015.772,-131.76
-352.58,1014.064,-121.756
-294.752,998.448,-96.38
-355.508,962.58,-85.4
-381.128,936.228,-83.448
-381.372,942.328,-97.844
-398.94,943.304,-122.0
-431.88,931.104,-135.664
-425.536,925.004,-149.328
-492.148,883.036,-145.912
-511.912,833.992,-199.348
-676.368,902.8,-186.66
-833.504,1106.052,-167.872
-1194.624,804.712,-288.896
-1146.556,736.392,-472.628
-1073.6,684.908,-1089.704
-119.072,-107.36,-232.776
1138.016,-474.824,773.968
2482.7,365.756,71.98
2190.632,1227.564,-1039.684
1475.956,811.3,-806.908
856.196,122.976,12.932
763.476,-11.956,319.64
971.852,149.816,41.236
1069.452,220.82,-56.852
1173.396,229.848,-114.68
1031.144,170.8,-1.22
911.096,262.3,19.032
847.656,376.492,-35.38
806.176,456.036,-63.928
770.552,490.928,-80.276
712.968,441.884,26.352
791.78,437.004,87.352
881.084,426.756,101.748
959.164,422.12,149.572
920.856,407.968,184.464
852.048,402.356,121.756
887.672,379.664,61.0
1025.776,366.976,120.292
1154.12,348.92,193.248
1033.34,295.972,294.752
1001.132,298.656,374.052
1084.824,304.024,427.244
1117.764,182.024,522.404
1183.888,121.024,470.188
1192.184,109.556,340.624
1128.012,84.18,281.088
984.54,47.58,289.872
880.84,0.732,226.432
754.692,-36.844,103.944
604.876,-52.704,-14.884
420.9,3.172,-183.488
376.248,77.836,-392.108
395.036,83.692,-582.672
317.932,57.096,-705.892
249.368,91.256,-891.82
311.832,123.22,-1101.416
557.052,148.352,-1216.828
560.956,92.232,-1117.52
461.648,4.636,-991.128
412.116,32.208,-1135.576
513.864,123.464,-1353.468
635.62,132.98,-1447.408
711.26,116.632,-1477.664
669.536,60.268,-1497.428
617.808,15.86,-1439.112
621.712,-56.12,-1263.432
616.344,-145.18,-1017.48
608.292,-183.0,-794.22
649.772,-210.572,-660.752
765.428,-252.052,-559.98
888.404,-256.2,-452.62
1014.796,-303.536,-305.0
1096.536,-371.612,-176.168
1170.712,-403.332,-104.676
1185.108,-333.06,-119.072
1062.132,-178.852,-112.484
1041.392,-188.856,19.276
1111.176,-282.064,125.904
1151.436,-324.032,184.708
1203.164,-293.532,270.84
1153.144,-261.324,306.952
1190.964,-265.228,307.196
1230.492,-261.812,266.204
1281.244,-234.484,259.128
1364.692,-257.176,301.584
1425.204,-282.308,290.36
1477.908,-266.692,225.456
1498.16,-256.2,208.864
1517.192,-232.776,175.436
1639.68,-245.464,143.228
1689.7,-360.144,154.696
1530.856,-484.096,141.764
1505.236,-471.652,12.2
1489.62,-461.892,-137.128
1434.72,-439.2,-253.272
1345.66,-462.136,-294.264
1177.544,-479.948,-334.036
1130.94,-428.952,-424.072
1089.46,-334.036,-570.96
1098.488,-265.472,-633.912
1167.54,-256.932,-650.26
1202.676,-238.632,-617.808
1176.568,-233.02,-582.672
1307.596,-122.976,-651.968
1136.796,-57.34,-781.776
800.808,-229.36,-644.404
858.88,-34.404,-439.688
1050.42,111.264,-531.188
1280.024,209.84,-394.792
1382.748,226.676,-227.652
1032.364,168.36,-198.128
555.588,4.392,-164.944
836.188,296.46,-97.112
1491.328,502.884,-157.624
1570.872,223.504,110.532
1184.864,361.852,285.968
887.916,491.66,203.74
-54.168,381.616,229.116
-566.08,452.132,187.148
-655.628,683.444,-3.172
-649.528,893.284,-166.164
-688.812,815.204,-85.644
-583.16,693.936,-57.096
-543.144,754.448,-169.824
-696.132,803.736,-224.236
-738.1,808.128,-170.312
-528.26,817.888,-164.944
-402.112,794.708,-72.712
-373.808,786.9,56.608
-368.684,790.804,79.056
-479.216,817.4,19.276
-467.26,866.688,-88.084
-466.284,866.2,-130.784
-356.24,878.888,-93.452
-342.82,872.056,-21.228
-392.352,869.128,-1.464
-460.672,879.62,-32.696
-506.544,885.964,-63.196
-416.508,884.5,-55.876
-338.672,868.64,18.3
-284.748,874.74,53.436
-302.316,874.252,62.708
-350.14,888.16,32.94
-405.528,931.592,-37.82
-354.044,980.88,-97.844
-305.244,980.88,-73.688
-286.7,939.156,5.124
-268.888,898.652,64.66
-264.984,900.604,62.22
-320.616,916.22,23.424
-353.068,944.524,-39.528
-355.264,970.144,-85.644
-343.552,957.212,-77.348
-372.1,926.956,-35.624
-408.456,951.112,-58.56
-414.068,999.912,-132.004
-383.812,1053.592,-193.736
-393.572,1055.788,-156.404
-407.236,1054.568,-98.332
-391.132,1074.82,-111.996
-355.264,1104.1,-122.244
-326.716,1111.664,-133.468
-315.736,1122.4,-159.576
-328.424,1143.628,-183.732
-343.796,1129.476,-171.776
-371.612,1071.648,-114.68
-343.308,1029.68,-81.252
-325.008,1030.656,-119.56
-328.668,1070.916,-188.612
-376.004,1062.62,-178.608
-320.372,1034.316,-126.148
-210.084,1023.092,-116.144
-209.84,1036.512,-150.792
-237.9,1022.848,-198.128
-279.868,971.364,-185.44
-254.492,915.488,-128.832
-304.756,865.956,-79.788
-321.836,843.508,-62.952
-269.132,863.76,-66.124
-247.66,848.632,-29.768
-215.452,839.36,53.68
-184.464,877.912,35.868
-278.648,885.964,6.588
-329.4,848.632,53.68
-299.632,806.42,134.2
-275.476,814.472,128.344
-247.66,897.432,9.516
-265.472,895.724,-22.692
-303.048,823.012,78.812
-350.384,766.404,167.14
-316.224,816.18,126.392
-269.132,887.184,10.736
-246.684,887.428,-0.732
-265.716,862.052,31.72
-276.94,881.572,17.324
-286.212,917.684,-22.692
-301.584,937.936,-48.068
-294.264,956.724,-112.972
-247.172,983.808,-159.088
-285.724,971.364,-132.98
-305.976,942.816,-82.96
-277.916,957.456,-105.408
-293.044,957.944,-122.0
-325.008,935.984,-100.772
-300.852,945.012,-70.272
-271.084,967.704,-73.688
-189.588,976.488,-57.34
-200.812,946.964,17.08
-271.328,900.604,96.868
-281.332,892.552,114.68
-296.46,883.28,129.32
-283.04,881.572,142.008
-259.128,880.108,147.864
-261.324,872.788,159.088
-297.436,859.612,189.1
-343.796,852.78,196.42
-360.632,852.292,157.624
-348.188,870.592,99.308
-334.768,887.184,68.32
-320.86,913.78,23.18
-341.844,936.228,-41.968
-373.564,928.664,-46.116
-431.88,907.924,-35.868
-376.492,936.472,-74.908
-364.536,953.308,-107.36
-402.6,935.74,-92.232
-433.1,910.852,-91.988
-470.92,917.684,-139.08
-418.46,964.776,-167.628
-368.928,980.636,-179.584
-380.396,944.28,-116.144
-393.572,936.716,-66.856
-398.208,964.776,-71.248
-498.98,950.38,-77.592
-741.028,933.788,-52.46
-864.004,928.908,-33.428
-599.264,845.216,8.296
-529.236,636.108,42.212
-452.864,589.504,23.18
-170.068,355.996,-178.364
-87.108,241.56,-514.84
182.756,2.196,-317.688
1387.628,-202.764,308.904
2272.86,448.228,-189.344
1774.368,571.204,-702.476
1059.204,213.5,-213.256
1118.496,187.88,-218.624
1214.876,222.772,-223.748
1130.452,263.276,-261.812
1143.872,216.184,-170.556
1007.476,186.904,-126.392
941.108,278.404,-151.524
953.552,327.692,-180.804
962.824,362.828,-167.384
992.836,355.264,-163.968
992.836,367.708,-108.092
1038.464,391.864,-80.276
1055.3,362.34,-3.416
1070.672,325.74,115.656
1125.572,255.468,221.064
1084.58,205.692,350.384
1100.196,256.932,290.848
1098.732,271.816,241.316
1076.528,225.7,290.604
990.396,151.524,385.52
904.264,115.656,437.492
833.016,125.66,345.748
787.632,143.228,266.936
650.26,104.432,229.604
560.712,52.46,125.416
621.224,56.364,-80.52
636.84,114.192,-291.824
583.892,108.58,-435.296
490.684,-2.928,-575.596
630.74,51.484,-788.364
613.416,103.456,-893.04
488.244,54.656,-916.952
558.516,-26.352,-1019.676
836.676,7.808,-1179.984
845.216,34.648,-1226.344
768.844,1.464,-1324.432
854.488,34.404,-1450.58
886.696,65.636,-1407.636
707.844,57.584,-1230.736
695.4,-5.612,-1191.452
822.524,-79.544,-1155.584
898.652,-211.06,-982.588
972.34,-300.608,-730.292
902.8,-349.896,-472.14
912.316,-416.02,-309.88
964.288,-409.92,-247.172
954.772,-347.7,-212.036
950.38,-305.976,-143.96
1008.208,-336.964,-30.744
1174.616,-412.848,116.144
1221.464,-432.124,268.4
1134.356,-368.44,360.876
1225.856,-318.908,360.144
1356.64,-365.512,402.356
1378.844,-383.812,450.912
1387.14,-328.668,462.624
1378.356,-285.48,408.944
1411.784,-294.996,345.016
1374.208,-312.32,298.656
1322.724,-313.54,256.688
1213.412,-326.472,213.988
1236.348,-284.016,75.64
1331.508,-264.496,-35.38
1334.192,-322.568,-34.892
1233.664,-355.996,13.42
1170.712,-358.436,24.156
1219.024,-363.316,-41.968
1339.804,-371.368,-114.68
1339.316,-377.224,-209.108
1247.572,-396.012,-166.408
1242.936,-364.536,-221.064
1375.916,-305.244,-259.86
1250.012,-325.496,-265.228
1148.996,-356.24,-220.332
1055.544,-384.3,-280.844
1134.6,-269.864,-332.816
1243.668,-203.984,-387.716
1314.428,-161.284,-369.416
1329.8,-118.096,-324.764
1156.072,-136.64,-387.472
1077.504,-106.872,-419.192
943.792,-91.988,-427.488
922.808,29.28,-383.324
1065.06,107.116,-437.004
1086.532,154.208,-412.116
1138.992,171.288,-254.248
1210.484,218.868,-190.076
1069.696,181.048,-177.632
1061.644,182.268,-154.94
1472.784,326.472,-198.128
1585.756,379.176,-180.072
1508.652,226.432,88.328
1185.352,341.112,140.056
625.86,465.308,206.912
80.276,596.824,247.66
-212.28,769.576,130.052
-229.604,936.716,23.18
-253.76,1022.848,1.952
-256.444,972.34,63.196
-199.836,916.952,27.084
-221.796,878.644,28.06
-221.308,859.612,26.596
-323.544,785.924,65.392
-298.168,763.964,115.9
-235.704,741.272,155.428
-131.76,749.568,94.184
-141.032,767.868,64.172
-278.892,760.548,65.148
-290.36,792.024,46.848
-234.484,793.0,48.556
-216.672,805.444,56.12
-163.236,859.612,26.352
-157.868,868.152,22.448
-238.388,856.196,39.528
-240.34,907.192,26.352
-250.344,923.052,20.74
-232.288,944.768,2.684
-113.46,980.636,-4.636
-60.024,1004.792,2.928
-96.624,995.276,41.968
-154.94,1000.888,77.104
-215.452,989.664,81.984
-158.112,1021.14,30.988
-110.532,1042.368,-22.692
-122.244,1017.236,-1.952
-100.772,1011.136,32.452
-109.068,983.808,57.584
-128.1,989.908,37.576
-155.672,1010.16,-10.248
-191.54,1018.456,-36.356
-135.176,1030.168,-58.316
-109.8,1036.756,-62.952
-124.44,1036.512,-64.416
-127.124,1049.444,-73.932
-128.344,1046.516,-73.444
-76.128,1064.084,-74.176
-91.012,1069.696,-80.276
-122.488,1056.764,-78.08
-157.868,1038.952,-56.12
-196.42,1025.532,-33.184
-133.712,1032.852,-62.464
-59.78,1050.176,-78.324
-26.596,1066.768,-74.176
-48.8,1058.472,-38.796
-48.068,1039.196,4.392
-9.76,1022.116,25.62
-28.792,984.052,52.948
-42.7,982.1,35.624
-23.668,986.248,-12.2
-24.156,979.66,-17.812
-20.496,954.528,14.396
-32.696,936.228,50.02
-52.46,940.62,51.484
-58.56,947.696,30.5
-78.812,960.384,-8.54
-51.484,1000.888,-61.0
-54.656,991.86,-37.088
-90.28,952.576,28.548
-95.16,928.664,47.824
-77.592,941.352,5.612
-85.4,992.592,-81.984
-67.1,1056.032,-180.316
-81.008,1061.156,-180.804
-121.756,1029.68,-134.444
-156.16,1030.168,-108.58
-159.82,1047.004,-99.308
-142.496,1065.792,-93.94
-93.696,1083.604,-111.02
-76.372,1086.044,-104.432
-94.916,1073.844,-94.672
-122.0,1055.3,-98.576
-101.26,1041.392,-90.28
-118.096,1012.6,-52.46
-134.2,987.468,-26.352
-124.684,976.244,-28.548
-130.296,956.968,-8.784
-114.192,950.868,-6.588
-110.532,963.068,-20.008
-133.956,969.9,-36.6
-131.272,965.752,-25.132
-118.828,957.456,-21.472
-81.496,969.168,-21.228
-73.444,977.22,-15.616
-88.084,972.34,-1.22
-73.444,989.176,-28.06
-60.268,1011.868,-60.268
-85.644,1008.94,-75.884
-95.16,1029.924,-85.888
-51.484,1063.596,-107.848
-43.92,1051.64,-72.224
-56.608,1033.096,-32.208
-48.8,1017.968,-8.784
-44.408,1002.84,7.076
-17.568,1007.232,-10.248
-30.5,1012.844,-29.28
-83.204,997.716,-35.136
-116.876,979.416,-43.92
-115.656,955.748,-25.376
-157.624,933.3,-3.904
-163.968,937.936,-36.844
-133.468,944.036,-75.396
-161.772,953.064,-98.088
-158.112,952.088,-108.58
-140.788,941.596,-102.724
-131.028,935.252,-97.112
-120.536,935.74,-81.496
-128.1,929.396,-71.98
-147.376,929.64,-74.42
-136.64,946.232,-98.332
-107.848,959.896,-110.288
-130.296,946.964,-70.76
-123.464,946.476,-41.968
-110.044,955.992,-26.352
-99.552,955.992,-22.936
-79.544,965.264,-26.352
-62.708,966.728,-18.788
-86.132,954.04,3.172
-112.728,955.016,-3.172
-123.708,958.676,-10.004
-114.68,964.288,-18.056
-112.728,966.728,-31.476
-118.584,973.072,-47.092
-122.0,955.992,-27.572
-133.468,944.524,-14.884
-139.324,935.496,-10.492
-172.752,913.048,10.736
-176.412,906.948,18.3
-142.008,941.84,-26.84
-138.348,954.528,-43.92
-186.66,954.284,-41.48
-190.32,952.82,-33.428
-193.248,953.552,-37.576
-184.708,960.872,-51.484
-189.832,963.068,-42.212
-182.756,969.168,-38.308
-161.284,989.664,-71.736
-143.228,1006.012,-97.844
-160.064,996.496,-86.864
-169.336,978.44,-66.124
-161.772,982.588,-88.084
-94.184,1006.744,-127.368
-70.516,1021.384,-145.912
-147.864,992.592,-132.492
-166.164,987.956,-128.588
-185.928,975.024,-113.216
-195.688,970.144,-111.996
-196.42,975.756,-139.08
-209.108,971.364,-142.008
-220.82,958.188,-128.344
-245.952,951.844,-116.876
-246.928,946.232,-122.0
-242.048,954.04,-152.988
-217.404,976.0,-183.488
-210.572,986.248,-204.472
-245.464,960.14,-158.6
-299.388,944.524,-146.4
-240.34,979.172,-180.804
-213.012,989.42,-183.732
-290.604,894.016,-161.772
-619.028,846.436,-147.864
-973.804,762.744,-134.2
-744.932,711.016,-156.404
-558.028,585.6,-444.812
-399.184,530.944,-180.072
1600.152,87.596,232.776
2156.472,668.316,-222.284
787.632,795.44,-380.396
601.948,705.648,-208.62
772.504,634.888,-209.352
1194.136,476.288,53.68
1241.96,516.06,-98.82
982.832,539.484,-122.976
941.108,525.088,-101.992
928.664,495.076,-25.132
941.596,502.152,12.932
892.064,489.952,14.152
865.956,502.64,-14.64
824.232,510.204,-2.684
917.196,547.292,59.048
1003.816,513.864,152.012
997.472,531.92,227.652
965.02,542.412,294.02
960.384,462.868,382.592
1113.128,434.808,414.556
1181.204,382.592,521.672
1041.88,381.128,505.324
905.972,363.072,491.66
874.74,280.356,443.836
994.3,253.272,402.112
817.888,196.664,422.608
476.776,137.128,344.284
404.552,73.444,260.104
535.336,7.32,161.284
460.428,-80.032,218.38
319.396,-163.968,23.18
622.444,-58.072,-457.012
850.34,92.476,-776.652
751.52,100.772,-743.224
594.628,-13.664,-797.636
688.324,-13.664,-946.476
812.52,80.52,-1110.932
812.52,66.368,-1184.132
1018.456,115.412,-1423.008
1019.188,67.588,-1448.872
866.444,-1.952,-1291.004
886.696,-15.128,-1218.78
893.284,-6.588,-1295.152
936.716,-36.112,-1297.348
904.02,-135.42,-1127.28
846.436,-252.54,-917.928
796.904,-364.048,-634.156
724.436,-361.852,-473.116
741.028,-331.84,-441.64
779.58,-327.936,-345.504
851.072,-356.972,-207.644
925.248,-499.956,74.42
935.008,-469.7,164.212
1052.372,-395.28,243.268
1118.984,-379.42,411.14
1315.892,-393.816,526.552
1451.8,-468.968,595.848
1412.516,-387.716,471.164
1341.756,-232.776,353.068
1320.284,-188.612,325.252
1382.26,-237.656,341.6
1436.916,-312.564,398.208
1349.564,-299.388,333.548
1294.664,-253.76,230.58
1234.64,-267.424,204.472
1321.504,-303.292,229.848
1366.888,-371.856,256.688
1298.08,-386.496,272.548
1324.432,-379.664,224.968
1356.884,-339.648,124.684
1419.836,-355.752,73.688
1338.34,-448.472,93.452
1265.628,-496.784,100.772
1302.716,-448.96,26.84
1336.144,-448.716,9.516
1207.068,-531.92,81.496
1194.38,-510.936,13.664
1284.904,-421.876,-177.632
1270.996,-361.364,-310.856
1156.316,-393.816,-381.86
1162.66,-369.66,-266.204
1296.128,-355.02,-231.8
1448.384,-285.236,-196.664
1442.284,-187.392,-388.692
1021.872,-145.668,-628.788
1114.104,-94.428,-439.932
1420.08,-20.984,-436.76
1525.244,51.24,-418.46
1609.668,28.06,-362.096
1302.228,-87.596,-242.048
1078.236,-92.72,15.86
1088.24,181.292,-60.024
672.708,338.672,-90.768
563.64,414.556,137.372
845.948,544.12,72.468
376.248,497.516,34.404
-496.784,602.436,57.584
-1003.084,692.96,-106.872
-742.492,784.704,-268.156
-512.888,722.972,-257.42
-403.332,728.34,-155.428
-348.92,706.136,18.056
-301.096,732.0,128.344
-53.924,820.328,108.336
-60.024,874.008,110.776
-78.812,900.36,118.34
-91.988,891.576,160.796
-144.692,899.872,142.496
-100.528,954.772,32.452
-68.32,980.148,-36.356
-75.64,971.364,-30.744
-140.056,939.644,9.272
-252.54,907.192,35.624
-242.78,908.656,-7.076
-258.396,908.412,-45.628
-176.656,937.692,-79.544
-157.624,945.988,-80.764
-152.012,936.472,-29.768
-158.844,926.712,30.256
-69.052,990.396,-37.088
-76.128,1039.44,-72.712
-119.316,1026.508,-28.792
-106.872,1011.136,0.732
-105.652,1004.06,6.832
-99.308,1001.376,-24.888
-79.3,1022.604,-56.852
-94.672,1019.432,-83.448
-143.716,1017.724,-96.624
-157.38,996.496,-83.204
-161.04,973.316,-42.212
-120.78,972.828,-39.04
-114.192,969.656,-38.552
-109.068,972.096,-49.288
-68.32,976.488,-51.728
-81.984,985.028,-42.944
-101.016,991.86,-40.992
-113.948,991.128,-58.316
-142.008,982.832,-56.12
-111.02,993.08,-78.324
-83.692,999.912,-96.136
-72.224,1007.476,-98.088
-82.472,1011.624,-103.7
-98.332,1011.136,-93.452
-121.512,1010.404,-74.42
-112.24,999.18,-52.216
-84.668,994.788,-41.968
-79.3,1000.156,-62.464
-81.74,1017.968,-88.084
-90.524,1009.916,-64.416
-86.864,994.3,-25.62
-108.824,987.956,-18.056
-131.516,985.516,-22.448
-89.548,996.74,-45.14
8.052,1019.188,-90.768
3.416,997.472,-60.268
-59.536,978.196,-24.888
-128.1,981.368,3.904
-187.636,954.04,45.628
-116.388,934.52,10.98
39.772,996.252,-69.54
18.3,1017.724,-83.692
-26.352,1000.4,-50.996
-55.144,988.932,-37.82
-89.304,990.152,-62.708
-95.404,1039.928,-147.132
-23.424,1071.892,-176.412
-46.604,1044.808,-118.584
-41.968,1026.752,-68.32
-48.068,1037.732,-55.632
-74.908,1050.42,-73.444
-102.236,1079.944,-121.756
-96.38,1107.028,-171.776
-119.072,1127.28,-190.808
-122.488,1145.336,-209.84
-159.576,1145.58,-193.98
-156.16,1112.396,-128.588
-81.252,1104.588,-106.14
-30.012,1118.008,-135.664
-89.304,1119.228,-139.324
-212.768,1050.42,-57.34
-203.496,1003.084,-49.044
-104.92,1012.356,-123.464
-17.812,1026.508,-147.864
-63.684,971.852,-55.876
-80.764,949.892,-42.944
-108.58,1009.428,-129.808
-123.464,1030.656,-196.42
-142.984,1008.94,-189.344
-113.216,964.288,-112.728
-59.048,936.716,-45.628
-77.836,946.964,-44.652
-114.436,969.168,-118.096
-148.596,991.86,-181.78
-146.888,1024.312,-228.14
-144.936,1004.548,-217.404
-132.736,952.088,-131.272
-69.54,936.472,-70.76
-69.784,929.64,-55.388
-97.844,924.516,-70.272
-117.852,938.912,-127.368
-144.204,969.9,-181.536
-126.636,963.312,-176.412
-131.272,945.5,-160.552
-119.072,928.908,-154.208
-111.508,923.784,-130.54
-138.104,913.292,-98.82
-148.84,910.852,-88.084
-124.928,923.54,-97.844
-123.22,930.616,-96.38
-134.932,933.788,-73.932
-143.96,922.808,-52.46
-132.736,943.06,-87.84
-137.616,964.044,-111.02
-158.356,970.144,-103.7
-176.9,962.092,-87.84
-195.932,953.796,-79.544
-161.04,974.78,-95.892
-157.624,973.804,-93.208
-172.508,970.144,-82.228
-185.44,964.288,-65.88
-221.796,951.356,-47.336
-203.496,968.68,-72.712
-174.216,989.664,-104.92
-211.06,982.1,-97.6
-197.396,989.176,-121.756
-190.564,992.836,-140.056
-204.716,982.588,-122.976
-205.204,968.68,-104.676
-191.052,972.096,-113.46
-173.728,987.956,-147.864
-193.004,984.052,-148.84
-219.844,973.56,-145.912
-228.384,963.068,-145.668
-238.144,970.876,-162.26
-240.584,974.78,-171.776
-239.364,971.608,-169.092
-268.4,949.404,-138.592
-275.232,942.572,-129.076
-251.808,955.504,-142.984
-233.508,953.308,-162.504
-244.488,961.848,-187.88
-252.784,953.064,-181.292
-298.656,941.596,-172.752
-286.944,928.42,-154.452
-262.3,928.908,-165.92
-251.076,932.08,-168.604
-242.536,923.052,-146.156
-253.76,910.364,-113.46
-238.388,904.264,-102.48
-222.528,904.996,-98.576
-223.504,906.46,-108.824
-233.508,904.02,-104.676
-235.948,908.412,-101.26
-248.88,906.216,-105.408
-249.368,910.12,-119.072
-273.524,912.072,-128.832
-257.908,921.1,-145.668
-248.392,929.884,-156.648
-275.232,926.224,-142.252
-285.968,911.828,-118.34
-283.772,917.684,-103.456
-289.872,920.856,-86.62
-288.164,933.3,-92.72
-256.932,952.82,-110.288
-253.516,946.232,-88.816
-265.716,940.376,-66.368
-269.376,935.496,-47.336
-262.3,936.228,-46.36
-256.688,935.74,-51.728
-253.76,941.108,-65.148
-264.74,944.524,-95.16
-270.84,949.16,-133.712
-274.5,944.524,-125.172
-306.464,923.052,-112.484
-316.468,927.444,-139.812
-294.264,951.112,-187.148
-284.992,957.944,-207.644
-301.096,948.184,-196.908
-263.764,961.848,-206.424
-229.36,975.756,-188.612
-229.36,983.32,-170.8
-219.356,990.884,-161.04
-234.24,978.928,-142.984
-279.136,951.6,-120.292
-353.068,914.756,-99.308
-395.524,889.136,-82.228
-417.24,885.476,-99.796
-403.82,889.868,-125.172
-397.964,888.16,-132.98
-419.192,878.4,-136.396
-417.728,885.72,-159.088
-425.048,891.332,-157.868
-420.412,897.676,-164.7
-430.416,885.232,-143.228
-488.488,846.924,-97.844
-503.616,871.568,-91.012
-514.84,904.264,-140.056
-561.688,890.112,-293.288
-996.74,783.484,-292.8
-999.424,946.232,-44.408
-721.752,583.648,-77.104
69.052,513.376,-277.916
991.128,207.156,-167.14
972.584,522.404,-61.976
669.536,429.928,21.96
1373.72,856.44,-576.084
1586.732,695.644,-335.744
922.808,502.884,-70.516
799.832,468.968,-87.108
907.436,433.832,-12.2
1027.484,441.396,-0.488
1080.676,498.492,-83.936
894.992,442.86,-27.084
784.948,394.06,72.224
762.012,420.9,127.856
814.472,535.336,20.496
886.94,615.856,8.54
953.064,632.204,40.26
971.852,605.608,225.944
868.64,544.12,406.26
862.296,526.308,544.608
976.488,512.888,650.992
1154.852,571.692,734.196
985.516,559.248,644.16
764.94,357.216,628.788
878.156,77.836,673.196
962.824,-235.216,806.176
979.904,-308.416,674.66
970.876,-293.288,320.372
1138.016,-305.488,55.388
1108.736,-400.404,-48.8
917.44,-435.54,-126.636
864.248,-311.588,-512.4
856.928,-56.12,-918.172
716.872,75.396,-1048.712
470.92,17.08,-874.008
394.792,-116.876,-789.828
390.644,-30.988,-951.356
412.36,114.924,-1302.472
549.976,224.724,-1656.272
650.26,188.124,-1649.196
564.616,16.104,-1359.08
289.384,-49.288,-1356.152
337.94,111.996,-1461.072
404.064,57.096,-1341.512
465.064,-23.424,-1103.612
383.568,17.08,-1021.872
329.888,-21.716,-964.532
474.58,-71.98,-944.524
704.672,-156.404,-871.08
846.192,-238.388,-673.44
885.232,-279.868,-493.368
1013.576,-406.992,-276.94
1136.552,-513.376,-16.836
1100.44,-503.616,164.7
991.128,-426.024,234.484
983.076,-361.852,305.244
1087.752,-367.22,419.192
1201.7,-358.436,463.844
1220.488,-342.576,535.092
1238.3,-394.06,573.156
1357.616,-402.6,637.816
1472.784,-407.48,711.26
1474.004,-416.752,667.34
1457.412,-449.936,587.308
1458.388,-452.864,465.796
1572.092,-380.64,307.684
1613.328,-366.244,211.304
1575.508,-466.284,194.468
1606.496,-581.208,240.584
1754.36,-587.064,63.684
1609.18,-548.024,-26.352
1533.052,-517.524,-162.992
1606.496,-511.668,-378.688
1583.072,-554.856,-462.868
1452.532,-456.768,-446.764
1460.828,-436.272,-436.76
1377.136,-436.76,-505.324
1157.292,-339.404,-628.788
1197.308,-261.08,-528.016
1258.552,-169.58,-579.744
1293.2,-186.416,-442.616
1118.252,-246.928,-403.576
833.992,-74.908,-621.224
712.724,88.572,-688.08
989.664,199.348,-566.324
885.72,262.544,-514.596
1000.4,316.224,-347.212
990.64,339.16,-300.852
936.472,300.12,-241.072
625.128,289.384,-114.924
180.072,363.072,-56.608
-26.352,523.624,-8.54
350.384,626.348,12.932
989.176,732.732,-90.036
1331.02,786.168,-83.448
1049.688,731.512,88.084
653.432,803.492,10.248
605.608,954.284,-121.268
820.084,1064.084,-167.384
651.48,867.664,-2.196
-17.812,809.592,217.892
-761.036,737.856,218.38
-1159.244,587.796,166.896
-798.856,692.228,-12.688
-489.708,811.3,-146.888
-595.604,722.484,-50.508
-552.172,544.852,131.76
-507.764,547.536,164.456
-483.852,657.824,23.424
-638.304,725.168,-29.524
-619.028,720.044,-55.632
-555.832,719.068,-28.792
-482.632,716.384,-5.612
-420.9,758.108,6.832
-406.748,795.196,7.564
-393.572,846.68,-15.128
-356.24,908.656,-53.436
-322.568,925.248,-50.02
-327.204,893.528,47.336
-282.064,925.736,65.88
-245.952,976.732,18.788
-291.824,994.056,-18.3
-351.36,996.008,-22.448
-330.864,998.936,-44.896
-313.052,991.128,-54.168
-283.04,978.928,-57.828
-293.532,983.076,-75.64
-322.568,952.332,-72.224
-334.036,934.032,-76.128
-285.724,945.988,-105.652
-249.368,947.696,-111.996
-273.036,931.104,-88.816
-287.188,930.372,-74.42
-263.52,947.452,-97.356
-256.688,959.408,-109.8
-259.128,951.6,-105.164
-255.468,942.816,-88.572
-215.696,950.624,-95.16
-223.504,955.504,-104.432
-218.624,969.412,-113.704
-247.904,963.068,-111.264
-259.616,954.528,-97.844
-239.852,955.992,-98.088
-244.0,941.352,-72.468
-199.592,958.188,-60.024
-192.272,978.684,-69.052
-214.232,990.152,-89.548
-229.116,1009.184,-124.44
-248.392,1021.628,-133.956
-225.944,1023.824,-137.86
-190.076,1031.144,-124.44
-182.756,1005.036,-76.372
-198.616,980.392,-44.652
-206.424,974.292,-49.288
-219.844,985.028,-64.416
-193.248,996.74,-74.908
-168.36,1003.572,-62.952
-170.556,977.952,-28.304
-162.992,956.968,3.416
-140.544,946.964,6.832
-159.576,939.156,-13.42
-172.508,947.696,-66.368
-191.052,966.728,-120.536
-181.048,987.224,-161.284
-182.024,974.78,-161.528
-200.812,966.972,-147.376
-204.96,971.12,-155.672
-196.42,1003.084,-188.368
-208.376,1025.044,-194.468
-214.232,1033.828,-175.436
-171.288,1037.488,-145.912
-122.0,1024.068,-90.28
-101.748,1021.14,-51.24
-128.344,1007.964,-41.724
-136.64,1014.064,-59.78
-145.424,1009.672,-95.16
-150.792,998.692,-103.212
-160.552,983.076,-97.844
-155.428,976.244,-99.064
-128.1,986.492,-121.512
-93.208,992.348,-143.96
-138.348,996.252,-147.62
-182.268,1001.864,-160.064
-188.612,1001.376,-162.992
-169.824,1012.844,-180.316
-163.968,1023.336,-190.076
-144.936,1031.388,-205.936
-131.272,1034.804,-197.152
-163.236,1020.652,-164.7
-170.068,1008.94,-137.372
-176.412,1005.28,-120.78
-169.336,1017.724,-154.452
-181.048,1040.66,-216.916
-201.788,1074.088,-267.424
-203.008,1084.824,-292.068
-217.892,1040.172,-268.156
-218.38,977.708,-203.008
-199.104,933.788,-134.2
-194.712,927.2,-82.96
-201.3,946.476,-78.812
-160.064,989.42,-108.336
-150.792,1023.824,-129.564
-137.372,1050.664,-139.324
-140.788,1073.112,-167.384
-161.528,1060.912,-164.212
-148.596,1041.88,-144.936
-130.296,1031.632,-138.348
-111.996,1030.168,-133.712
-123.22,1026.752,-122.0
-126.148,1019.92,-115.168
-117.852,998.692,-117.364
-118.584,975.024,-100.528
-143.228,943.304,-71.98
-170.556,922.808,-45.14
-173.484,918.172,-48.068
-193.492,926.956,-76.128
-216.916,927.688,-111.508
-179.584,920.612,-115.168
-193.492,902.556,-71.248
-212.28,894.748,-53.68
-217.648,925.004,-75.64
-181.536,935.984,-120.536
-155.916,952.088,-141.276
-191.784,965.508,-179.828
-183.244,975.756,-190.32
-213.988,952.82,-176.168
-228.384,941.108,-164.456
-204.716,946.72,-170.312
-196.176,938.424,-159.332
-204.472,949.648,-173.24
-237.656,960.384,-203.984
-240.34,969.9,-224.236
-197.152,969.412,-230.58
-204.716,956.48,-192.76
-225.7,961.848,-172.996
-217.892,988.688,-200.324
-209.84,1004.06,-214.476
-230.092,977.952,-180.804
-269.376,968.68,-178.852
-215.452,995.032,-205.936
-177.388,1012.356,-205.936
-210.328,982.832,-172.996
-216.916,966.24,-154.452
-238.388,951.356,-132.98
-259.372,917.44,-109.556
-248.88,896.212,-77.836
-241.072,881.328,-60.024
-254.492,879.132,-60.024
-272.548,889.868,-78.812
-298.168,880.108,-84.18
-331.596,868.396,-94.916
-313.54,863.76,-81.984
-338.916,852.536,-61.976
-363.56,849.608,-68.808
-323.544,877.668,-107.36
-337.696,850.584,-71.98
-353.8,820.816,-34.648
-369.172,821.792,-5.612
-356.24,841.8,-27.328
-323.544,878.4,-77.836
-327.448,885.232,-76.372
-339.16,872.788,-54.412
-333.06,873.52,-48.312
-330.376,894.26,-76.372
-352.092,890.356,-78.568
-355.752,881.816,-71.492
-347.944,897.432,-93.696
-324.276,927.2,-137.128
-351.604,930.372,-147.376
-370.88,945.744,-171.044
-363.316,953.064,-173.972
-381.616,931.592,-149.328
-382.592,916.464,-131.516
-364.292,939.156,-152.988
-366.976,956.968,-176.656
-347.7,965.996,-179.584
-354.776,944.28,-141.276
-349.164,934.52,-126.392
-328.912,936.228,-122.488
-322.08,920.124,-103.7
-377.956,891.088,-127.368
-519.232,871.08,-188.124
-696.376,805.688,-270.352
-1119.96,654.652,-453.84
-1809.504,812.764,-308.66
-1384.944,425.292,-194.712
30.988,-673.684,-123.22
977.708,-633.424,-18.056
2326.54,121.512,-3.66
2693.76,785.924,-514.352
1026.752,394.304,-325.496
671.732,283.284,-262.788
1152.9,277.672,-208.864
1302.472,198.372,-84.424
1310.28,203.984,-42.212
1164.612,248.148,-88.572
957.944,206.912,-31.72
979.66,224.968,23.912
994.788,293.776,17.324
919.636,373.808,-32.94
838.14,420.656,-72.468
832.284,420.168,16.592
899.384,386.984,113.704
865.712,345.992,201.056
761.768,343.064,269.376
859.856,313.54,379.908
1003.816,208.62,617.564
1094.096,141.276,744.444
1112.152,80.276,765.184
1125.328,-19.032,761.036
1066.28,-104.432,715.408
915.488,-164.212,649.04
774.7,-130.784,318.42
765.672,-66.368,-10.736
642.94,-92.232,-182.268
506.3,-184.22,-321.348
484.096,-131.76,-631.228
371.368,-82.96,-834.724
355.996,-133.224,-978.928
427.732,-152.988,-1122.4
442.372,-119.072,-1233.908
402.6,-157.38,-1220.244
491.172,-197.396,-1326.384
706.38,-126.636,-1558.428
780.556,-37.088,-1669.936
729.072,-43.92,-1716.784
848.876,-106.384,-1707.756
905.728,-261.324,-1443.992
815.448,-400.648,-1193.404
771.04,-431.392,-1011.136
782.996,-440.176,-846.436
790.804,-451.888,-665.632
884.5,-473.848,-462.624
913.536,-553.636,-219.112
970.144,-584.136,25.864
955.016,-557.784,282.064
1002.596,-500.2,464.82
1136.308,-488.244,617.076
1220.488,-473.604,674.416
1308.572,-427.976,697.352
1348.1,-401.624,715.896
1436.428,-393.328,686.128
1451.068,-394.548,549.488
1416.176,-384.056,406.992
1363.96,-357.704,309.636
1335.656,-367.952,261.812
1358.592,-406.26,193.004
1238.3,-426.756,142.74
1125.084,-388.204,74.664
1186.328,-376.492,-0.244
1339.804,-382.836,-51.24
1400.804,-390.156,-54.656
1325.408,-442.86,-90.28
1299.544,-446.276,-154.94
1379.576,-429.684,-261.324
1429.108,-410.896,-290.116
1515.972,-346.236,-334.28
1457.168,-415.532,-414.068
1265.14,-400.404,-410.164
1510.848,-322.812,-381.616
1557.208,-241.316,-395.768
1582.096,-185.928,-376.736
1415.688,-230.824,-449.936
1260.504,-146.644,-516.548
1274.168,26.352,-495.808
1244.888,103.456,-416.264
1277.584,185.196,-466.284
1121.912,174.948,-409.432
947.696,190.32,-306.464
984.54,270.352,-210.572
800.076,346.724,-170.068
426.024,371.124,-56.364
208.132,478.24,14.396
-141.52,564.616,177.632
-286.944,669.536,193.736
-388.692,683.2,128.832
-381.616,700.28,13.176
-275.964,806.42,-113.948
-296.216,841.556,-144.936
-336.232,866.444,-156.648
-318.908,858.392,-115.9
-365.512,852.292,-103.7
-264.496,903.532,-147.376
-259.86,884.744,-80.032
-264.496,880.84,-54.168
-229.848,911.584,-86.376
-241.56,909.388,-68.32
-221.064,898.408,-24.888
-227.896,895.48,8.54
-291.092,892.308,16.104
-243.512,934.52,-25.62
-156.16,973.316,-49.532
-154.94,990.64,-38.064
-247.172,988.444,-40.26
-322.812,971.12,-27.084
-271.084,979.172,-32.696
-153.476,994.544,-54.168
-114.68,990.396,-27.572
-119.316,962.58,42.944
-154.208,944.036,50.996
-192.516,948.184,12.2
-239.364,934.276,-12.688
-166.164,951.356,-35.136
-124.196,959.896,-62.22
-134.688,972.096,-76.86
-127.368,975.756,-77.348
-125.66,984.784,-90.524
-142.008,1000.644,-113.216
-150.304,1007.232,-126.148
-120.048,1005.768,-121.268
-121.268,983.32,-75.152
-101.748,985.028,-62.952
-104.676,987.956,-62.708
-127.612,994.3,-71.492
-139.568,984.052,-61.244
-143.472,972.34,-41.48
-104.676,989.176,-71.98
-78.812,1010.16,-101.016
-97.844,1014.552,-113.216
-98.576,1014.308,-108.824
-111.752,997.472,-86.376
-103.456,1009.184,-113.216
-94.916,1030.9,-150.792
-94.428,1021.628,-137.86
-97.844,999.912,-102.724
-93.94,994.788,-84.668
-79.3,1003.328,-69.784
-73.932,1004.06,-67.344
-63.928,1018.7,-94.184
-68.564,1036.024,-118.096
-72.468,1044.076,-122.732
-53.68,1034.316,-102.968
-60.024,1018.7,-78.324
-96.624,996.008,-53.924
-104.676,995.52,-77.836
-81.496,1006.988,-107.36
-83.448,1000.644,-92.964
-79.544,1000.156,-77.348
-95.892,1010.892,-86.864
-121.024,1018.7,-101.26
-122.244,1020.164,-123.22
-107.116,1025.044,-143.228
-115.412,1022.604,-149.816
-126.392,1021.872,-146.4
-108.336,1013.332,-139.812
-87.596,1003.816,-132.248
-74.908,986.98,-120.048
-57.828,971.12,-111.02
-73.688,957.456,-100.528
-105.164,945.744,-88.328
-138.592,949.892,-91.988
-130.784,960.872,-110.776
-119.316,996.008,-133.712
-72.712,1043.832,-176.656
-60.268,1053.104,-174.46
-97.6,1048.712,-144.692
-121.756,1054.812,-122.732
-95.648,1074.576,-117.12
-59.536,1082.14,-86.62
-45.872,1066.524,-55.144
-62.708,1043.1,-34.892
-80.764,1023.092,-42.456
-87.352,1013.82,-66.368
-114.924,1007.72,-85.4
-118.34,1013.576,-101.26
-128.832,1016.26,-112.484
-145.668,1024.556,-139.08
-103.456,1058.472,-201.056
-101.26,1089.704,-247.904
-102.48,1094.828,-251.808
-130.784,1073.356,-215.94
-145.18,1047.736,-178.608
-129.32,1026.264,-152.256
-108.092,1011.38,-156.892
-88.572,1005.768,-170.312
-87.108,1004.548,-184.952
-151.768,976.732,-172.508
-208.62,946.72,-168.604
-229.604,935.252,-178.364
-211.304,934.276,-195.932
-176.656,943.792,-237.412
-159.088,967.216,-272.548
-208.864,958.432,-243.268
-229.604,940.132,-211.548
-216.916,925.492,-198.128
-200.08,921.1,-190.808
-193.248,925.492,-216.916
-178.364,943.06,-227.896
-206.18,956.968,-220.332
-210.084,946.232,-178.608
-219.6,925.98,-131.028
-228.384,908.412,-90.768
-192.028,905.728,-94.916
-144.692,918.416,-106.628
-161.04,924.272,-110.776
-192.272,898.896,-85.4
-244.0,888.404,-46.116
-259.86,893.528,-42.944
-235.948,916.22,-67.344
-223.504,928.664,-90.524
-217.16,930.128,-112.728
-214.72,921.344,-99.796
-232.776,911.828,-77.592
-249.612,921.344,-91.5
-230.336,925.248,-110.532
-210.572,930.372,-154.696
-233.508,930.86,-184.952
-283.04,916.708,-204.716
-286.944,899.384,-231.8
-285.724,883.768,-264.252
-333.792,853.024,-263.52
-354.288,856.44,-305.488
-373.32,886.452,-364.048
-397.476,900.116,-403.82
-388.936,878.4,-363.072
-415.288,840.336,-245.708
-363.072,846.68,-199.836
-288.896,886.696,-189.832
-309.88,897.676,-159.82
-339.404,897.188,-120.292
-355.02,897.676,-98.088
-305.244,928.42,-130.296
-241.56,962.58,-144.204
-244.488,944.768,-91.988
-275.476,917.196,-15.616
-276.94,895.968,41.968
-272.792,895.48,47.58
-244.244,927.688,-23.912
-270.352,941.352,-66.124
-282.064,935.74,-68.808
-318.664,923.052,-64.904
-334.524,927.932,-95.892
-353.068,928.908,-130.784
-363.316,931.348,-145.668
-352.58,922.32,-134.932
-420.9,898.164,-111.02
-469.212,901.336,-123.464
-685.396,913.78,-156.16
-1028.704,854.732,-145.668
-1046.76,780.556,-89.792
-824.72,783.972,-150.304
-624.64,768.112,-246.684
-527.04,580.476,-243.268
-352.336,438.224,-115.412
-384.544,275.72,-212.28
-346.724,-43.188,-312.076
741.028,13.42,75.396
2171.356,247.172,164.212
1745.088,507.764,-438.712
1253.428,398.208,-824.72
1211.46,124.928,-492.88
1401.78,-203.74,-210.084
1421.056,-342.088,120.048
1262.944,-231.312,214.476
1133.868,-195.2,201.788
1048.712,-132.492,94.916
893.284,-35.136,31.72
992.592,22.692,78.08
968.192,78.568,43.432
918.904,60.024,106.14
934.276,39.04,217.16
979.904,51.484,252.052
1130.452,113.948,271.084
1286.124,35.38,430.904
1243.18,-109.8,605.608
1277.096,-110.776,690.032
1301.252,-111.752,694.668
1260.26,-170.8,836.188
1090.192,-295.728,916.952
812.276,-304.756,775.432
560.224,-203.984,485.316
511.668,-111.02,126.148
559.736,-44.652,-134.2
468.236,-49.532,-314.028
356.484,-98.576,-459.208
496.052,-74.176,-707.112
632.936,6.1,-943.792
610.488,-19.276,-1076.04
740.052,-22.692,-1189.744
766.648,-22.204,-1225.368
691.984,-17.08,-1160.952
570.472,-110.044,-1101.172
778.116,-77.592,-1312.964
961.116,-20.74,-1508.652
895.236,-38.796,-1433.744
736.88,-159.332,-1151.192
648.552,-305.244,-876.936
621.712,-392.84,-703.94
674.172,-371.856,-660.508
706.136,-340.868,-633.912
816.424,-378.2,-521.184
873.276,-509.472,-289.384
913.292,-568.276,-91.5
898.164,-558.76,72.712
903.288,-532.408,136.884
1063.352,-538.996,230.58
1176.568,-549.244,325.008
1155.34,-552.172,406.992
989.908,-527.04,476.532
909.632,-484.584,527.04
923.296,-463.6,582.184
1001.62,-492.636,602.924
1002.84,-534.604,607.316
993.324,-534.604,570.716
1021.628,-552.172,562.176
1103.612,-577.06,557.296
1208.532,-600.728,538.996
1452.776,-573.156,431.392
1471.076,-619.272,377.224
1405.44,-633.912,363.072
1397.144,-680.028,397.232
1534.272,-732.488,305.976
1755.336,-739.32,193.98
1702.632,-746.152,90.036
1568.188,-744.688,-23.18
1335.9,-713.212,-143.228
1471.32,-672.708,-114.924
1617.476,-631.228,-172.508
1467.66,-602.68,-306.952
1178.764,-536.312,-406.992
1289.54,-437.248,-341.112
1379.82,-372.588,-363.56
1215.852,-355.264,-370.636
1090.924,-234.972,-454.084
1087.264,-143.472,-459.94
1116.788,-94.428,-375.516
1100.684,-53.192,-341.6
1124.84,-37.088,-259.128
1027.728,-23.912,-226.92
1030.9,47.336,-230.824
1099.464,124.928,-165.432
1070.428,155.672,-83.692
1123.864,187.148,-20.252
1388.848,235.704,-57.584
1592.832,116.388,102.724
1668.228,21.472,147.376
1084.336,32.94,370.148
547.048,299.144,360.388
-76.128,527.04,333.548
-595.116,660.508,290.848
-615.124,795.44,111.752
-303.536,916.952,-24.888
-206.912,855.952,36.356
-243.024,786.412,59.048
-300.608,799.344,12.688
-327.448,836.92,-49.776
-340.868,865.468,-85.4
-346.48,868.884,-69.052
-255.956,856.684,-23.424
-189.832,879.132,-13.664
-224.968,886.696,-15.86
-226.432,939.4,-58.804
-244.976,954.772,-73.932
-230.092,949.404,-61.244
-239.12,911.828,5.612
-214.476,906.46,31.232
-197.64,925.98,7.32
-229.116,935.984,-8.54
-261.08,926.712,-9.76
-198.372,946.232,-20.496
-167.14,956.724,-31.232
-227.164,928.176,-5.856
-255.224,900.116,30.256
-247.172,879.132,39.772
-180.804,912.804,-4.636
-124.684,962.336,-56.608
-141.52,986.248,-63.44
-150.06,981.856,-46.604
-186.66,967.216,-31.476
-214.72,963.8,-32.452
-173.484,983.808,-66.856
-141.52,991.372,-98.332
-148.596,972.096,-71.98
-171.044,946.964,-20.252
-189.588,952.332,-20.496
-179.096,982.344,-74.176
-113.948,1032.852,-121.268
-134.932,1011.38,-75.884
-120.536,1012.6,-43.432
-106.628,1017.968,-46.36
-144.936,992.592,-17.568
-169.336,963.556,16.104
-140.3,978.196,-17.812
-121.024,991.128,-56.364
-151.28,984.296,-64.66
-177.144,976.976,-57.096
-199.592,954.284,-12.2
-135.176,970.388,-21.228
-117.608,996.496,-35.38
-150.304,995.52,-23.424
-141.52,998.204,-31.232
-140.056,1013.82,-38.796
-111.264,1051.64,-85.644
-132.492,1063.84,-93.208
-150.06,1043.832,-54.168
-140.544,1010.892,-2.928
-131.516,981.368,20.008
-122.488,993.324,-15.86
-133.468,1006.012,-63.684
-150.304,1010.404,-77.836
-155.672,1001.864,-75.64
-166.164,987.712,-79.788
-171.532,976.732,-70.028
-200.812,986.736,-68.564
-226.92,1009.184,-64.904
-193.736,1018.944,-61.488
-140.3,1039.928,-81.496
-41.968,1078.724,-142.252
-33.428,1105.076,-183.732
-87.352,1098.244,-192.516
-125.416,1087.264,-166.164
-179.584,1060.18,-123.708
-175.192,1062.376,-129.808
-139.08,1078.968,-168.116
-130.54,1067.988,-181.536
-127.124,1043.344,-148.596
-136.396,1014.308,-117.852
-166.652,1003.328,-108.336
-183.732,996.252,-110.044
-228.14,986.248,-81.74
-250.588,965.508,-59.048
-210.084,971.608,-58.804
-173.484,974.536,-53.192
-206.668,949.404,-11.712
-208.864,928.908,-15.616
-160.064,973.804,-94.672
-191.54,987.468,-136.396
-193.004,970.876,-124.44
-180.072,955.504,-107.116
-132.736,965.508,-145.18
-152.988,989.664,-164.7
-193.98,997.716,-162.016
-214.964,1015.772,-176.412
-225.944,1016.504,-168.36
-230.824,1001.62,-154.208
-172.02,1005.524,-144.936
-147.864,1004.548,-130.54
-187.148,986.736,-80.764
-239.608,965.752,-64.416
-221.064,977.708,-101.748
-194.956,998.204,-137.128
-209.596,970.876,-114.924
-229.36,939.888,-84.912
-217.404,939.644,-100.284
-233.02,921.588,-95.648
-286.212,902.8,-96.136
-302.804,914.024,-146.156
-272.304,921.1,-171.532
-269.376,920.368,-156.648
-295.972,908.168,-119.072
-309.148,902.068,-107.36
-303.292,899.384,-98.576
-282.308,901.824,-108.092
-288.896,896.7,-92.964
-289.628,903.776,-114.192
-304.756,906.704,-138.592
-310.856,884.988,-121.512
-284.748,888.892,-121.512
-266.448,882.792,-111.02
-246.44,872.788,-99.552
-238.876,892.308,-111.264
-254.98,903.044,-122.488
-278.648,888.404,-100.772
-281.82,879.132,-89.548
-278.892,889.624,-106.384
-267.668,915.488,-136.64
-302.316,899.14,-116.632
-335.256,867.908,-84.912
-341.6,863.516,-86.864
-390.888,874.496,-108.58
-391.864,864.004,-118.584
-361.364,869.86,-133.956
-344.528,871.324,-134.688
-388.692,852.78,-96.38
-439.688,858.636,-79.056
-439.444,881.328,-95.16
-418.46,899.384,-114.68
-395.524,906.46,-121.024
-392.84,925.98,-120.292
-428.952,905.728,-84.18
-419.924,902.068,-75.884
-410.652,920.368,-92.964
-456.036,931.348,-88.328
-495.564,937.692,-111.508
-505.568,945.988,-153.72
-607.804,920.368,-104.188
-599.996,885.476,-61.976
-527.284,881.328,-85.156
-460.672,894.992,-180.804
-544.12,908.656,-244.976
-635.132,890.844,-298.168
-740.784,833.992,-271.816
-902.312,749.568,-174.948
-1261.724,503.128,-248.148
-1922.964,424.56,-389.668
-1965.176,315.248,-408.7
-333.792,-1030.412,-70.028
1709.22,-1923.696,295.728
2189.9,-583.404,131.028
2265.54,361.852,-764.696
2351.916,129.076,-465.796
1461.804,-32.94,234.484
952.332,91.256,-160.064
1039.684,19.52,-58.56
1205.116,9.76,3.66
1229.028,18.056,-40.748
999.912,90.28,-61.488
1046.028,164.944,-157.624
1184.132,203.008,-135.176
1143.384,212.036,9.272
991.86,185.928,31.964
956.236,157.38,45.384
1172.664,205.448,106.872
1294.908,191.296,213.5
1291.98,48.068,420.168
1147.776,-87.352,589.748
1111.664,-82.716,640.988
1097.756,-18.788,538.752
919.636,-11.956,509.228
744.688,-30.988,404.552
664.656,-73.2,284.504
621.224,-87.108,107.116
674.172,-13.664,-168.36
611.22,53.192,-341.112
356.24,70.516,-461.648
147.376,-24.4,-391.62
293.288,-103.212,-591.944
677.1,46.36,-994.056
736.636,138.348,-1259.284
526.796,143.96,-1327.36
637.572,57.096,-1364.448
848.144,5.368,-1443.504
869.372,-70.516,-1412.028
811.544,-108.824,-1401.78
827.892,-161.528,-1352.492
747.128,-212.524,-1244.644
672.22,-279.624,-1034.804
621.956,-367.952,-849.12
623.908,-411.628,-766.892
634.644,-451.644,-650.748
643.916,-464.088,-505.568
761.28,-467.504,-386.984
932.324,-487.024,-275.232
978.928,-565.104,-77.836
1016.992,-610.0,171.288
1071.16,-625.86,392.108
1191.208,-577.548,466.284
1316.868,-564.616,538.996
1300.032,-532.408,553.88
1190.476,-517.524,569.984
1101.66,-479.948,590.724
1052.616,-423.828,593.408
999.18,-389.912,530.7
1076.04,-416.02,466.04
1178.032,-492.148,458.476
1309.792,-538.02,457.5
1343.952,-528.016,392.84
1365.18,-528.992,313.784
1406.416,-588.528,335.256
1459.852,-656.848,334.524
1422.764,-669.292,288.164
1411.54,-640.256,162.26
1376.404,-633.424,76.616
1359.08,-622.2,-52.948
1391.532,-608.536,-103.7
1405.684,-655.872,-122.244
1481.324,-620.736,-218.868
1504.26,-594.384,-258.396
1488.644,-542.656,-279.136
1364.692,-520.94,-264.74
1315.648,-503.372,-217.648
1353.224,-414.068,-288.164
1513.288,-270.84,-366.732
1467.172,-188.856,-398.94
1201.212,-143.228,-448.716
931.592,-144.448,-414.068
1068.964,36.112,-362.828
1280.024,201.056,-395.28
1157.78,234.972,-363.56
1024.312,195.2,-234.484
935.252,202.276,-142.008
675.392,230.336,-116.632
940.62,487.024,-292.556
1255.38,589.992,-416.752
1109.712,491.904,-295.728
490.928,409.92,-3.416
138.348,554.612,81.496
-131.028,678.564,160.796
-350.14,710.04,230.58
-431.636,730.048,175.924
-404.796,783.728,107.604
-255.712,874.984,45.14
-252.54,853.024,69.052
-384.056,776.164,144.204
-411.384,781.532,91.988
-391.132,801.784,47.58
-404.308,794.952,40.992
-370.392,795.44,55.388
-410.408,759.816,70.516
-410.652,740.296,60.512
-358.436,741.516,64.904
-322.568,767.136,61.488
-241.316,859.856,-15.128
-207.888,897.188,-17.568
-191.784,882.548,74.176
-205.936,880.84,153.964
-224.236,902.068,139.568
-228.872,943.548,63.196
-201.544,999.18,5.124
-244.732,989.42,40.26
-226.676,987.712,71.004
-158.6,1026.264,47.58
-193.004,1023.58,37.576
-217.404,1019.188,-4.148
-240.096,1010.16,-35.624
-263.52,972.828,-12.444
-257.176,965.02,-7.076
-213.988,983.808,-32.696
-205.204,974.78,-37.332
-204.716,967.948,-44.164
-205.692,987.712,-83.692
-223.26,1007.476,-109.068
-222.04,1005.28,-103.212
-202.52,1014.796,-104.92
-159.82,1026.02,-104.188
-193.492,987.468,-71.492
-219.112,981.368,-74.176
-232.532,1002.84,-116.876
-231.556,1004.548,-122.0
-194.956,1012.112,-126.88
-158.844,1017.724,-115.168
-157.868,1002.108,-75.884
-152.988,982.832,-31.964
-130.296,980.88,-30.256
-142.008,978.928,-48.556
-171.288,973.316,-54.656
-158.112,965.508,-44.652
-145.912,954.284,-27.328
-115.168,964.776,-24.888
-100.284,985.028,-41.236
-117.364,992.348,-56.608
-139.324,998.692,-60.268
-117.364,1019.188,-82.716
-70.272,1051.152,-107.36
-112.728,1039.196,-77.836
-152.012,1023.336,-31.72
-164.944,1019.676,-20.984
-161.04,1018.944,-18.544
-135.908,1021.14,-17.568
-122.488,1033.34,-42.944
-129.076,1056.276,-75.64
-132.004,1054.568,-66.612
-166.164,1013.332,11.468
-176.168,982.1,63.196
-152.744,976.732,40.992
-107.604,1009.184,-26.108
-87.108,1057.74,-75.396
-134.444,1047.004,-56.12
-182.756,1012.6,-16.836
-205.448,982.344,3.416
-216.428,971.608,6.588
-219.356,966.24,17.08
-201.544,971.364,13.664
-139.812,982.832,1.464
-118.096,988.2,19.276
-134.444,969.168,63.44
-159.332,966.484,89.06
-181.536,982.1,80.276
-191.784,984.784,68.808
-180.56,982.344,68.32
-180.072,984.296,42.944
-171.044,1007.476,-0.976
-173.484,1005.768,-13.42
-195.688,983.808,9.76
-212.524,963.068,25.376
-211.548,955.504,20.74
-171.532,968.436,4.392
-172.02,974.048,3.416
-207.644,956.48,10.98
-198.86,955.504,-3.172
-201.544,959.164,-22.936
-210.084,962.58,-34.404
-165.432,961.116,-24.4
-153.232,969.168,-12.688
-184.22,962.092,2.684
-197.152,945.5,15.86
-193.248,938.668,23.668
-183.0,936.228,23.668
-160.064,944.524,-2.44
-163.968,959.164,-21.96
-195.932,950.136,-22.448
-223.26,932.324,-13.908
-223.26,946.964,-28.06
-170.312,986.736,-75.152
-169.092,995.032,-77.836
-197.152,964.044,-13.42
-215.94,935.008,40.748
-205.204,936.472,45.872
-166.896,966.972,24.156
-143.228,989.908,-2.684
-135.664,1016.992,-19.276
-168.604,1034.072,-23.18
-201.788,1031.144,-15.372
-208.132,998.204,13.664
-222.04,969.9,44.408
-186.66,954.528,62.22
-174.216,962.824,59.78
-172.508,977.952,36.112
-191.052,981.124,6.588
-199.836,962.824,3.66
-203.984,944.28,10.98
-209.596,938.912,-14.396
-199.592,945.012,-48.8
-189.588,947.208,-62.22
-197.152,917.44,-50.996
-203.008,886.452,-22.204
-204.96,877.668,-12.444
-209.84,886.94,-12.444
-229.36,895.48,-9.516
-254.248,902.556,-8.54
-264.008,928.176,-28.304
-253.028,980.148,-74.42
-255.468,1013.82,-76.86
-242.78,1033.096,-53.192
-247.66,1034.072,-20.984
-260.592,1041.148,-8.052
-261.08,1053.348,-25.132
-234.484,1071.404,-53.924
-244.488,1067.988,-53.68
-258.396,1053.348,-47.092
-254.736,1044.564,-47.824
-256.688,1038.952,-58.072
-240.828,1026.264,-65.636
-218.624,1017.968,-65.88
-229.36,1012.6,-67.1
-271.816,990.64,-56.608
-294.996,964.776,-51.972
-293.776,946.964,-80.276
-295.728,934.764,-122.0
-285.236,905.484,-137.616
-254.736,908.412,-153.476
-236.436,899.384,-152.012
-294.752,872.056,-96.136
-406.992,868.64,-31.232
-459.452,902.8,-38.552
-428.22,969.9,-71.736
-431.636,1012.6,-87.596
-451.4,1013.088,-87.84
-506.3,969.168,-123.708
-586.088,1029.68,-95.892
-673.196,994.056,39.528
-719.312,882.06,98.576
-776.652,847.9,-5.856
-907.192,774.7,-177.632
-606.34,621.224,-268.4
146.888,462.136,-199.836
505.812,488.0,-387.228
841.8,702.232,-682.956
753.228,650.016,-495.076
957.944,424.316,404.552
835.7,448.228,184.464
839.848,66.368,14.396
1683.356,-19.764,341.112
1497.672,-122.732,176.412
1171.688,-173.484,153.476
1221.708,-90.768,66.124
1295.64,-3.416,81.984
1212.68,101.016,62.22
937.936,150.06,-24.156
749.812,213.988,-78.08
800.808,282.064,-61.244
943.06,273.28,-31.476
853.512,282.064,-87.84
892.796,317.2,-45.628
980.636,275.476,63.684
901.824,194.468,216.428
1039.44,200.568,339.404
1177.3,185.928,405.772
1270.264,168.848,476.532
1235.128,89.06,518.256
1183.156,-32.94,715.408
1137.284,-118.828,798.856
929.152,-132.98,744.2
665.388,-61.732,502.152
541.436,-35.868,274.012
719.8,3.66,18.544
649.04,4.88,-193.004
544.364,76.128,-455.304
416.752,113.704,-517.28
503.372,-5.856,-430.416
476.044,-109.556,-488.488
413.58,-47.824,-817.644
633.424,71.736,-1185.352
780.068,61.0,-1396.412
850.34,19.52,-1364.448
768.844,-60.024,-1313.696
731.756,-99.552,-1350.54
760.06,-87.108,-1442.772
801.54,-81.252,-1459.12
793.488,-88.816,-1374.696
738.832,-201.788,-1119.472
628.544,-327.692,-831.064
684.42,-376.98,-623.664
757.62,-375.516,-580.232
823.256,-328.668,-553.636
889.38,-345.748,-377.468
907.68,-449.936,-79.3
961.848,-536.556,176.656
1067.744,-508.008,269.62
1072.868,-425.78,297.68
1046.272,-361.608,353.556
1055.3,-370.148,476.044
1060.424,-426.512,591.456
1080.188,-418.216,633.424
1152.412,-329.4,611.952
1131.184,-298.168,590.968
1158.512,-364.292,599.996
1290.272,-488.0,591.7
1396.412,-501.42,496.052
1384.456,-439.444,394.792
1337.364,-413.092,259.128
1390.556,-464.82,144.204
1567.7,-581.696,169.092
1444.236,-589.748,138.592
1318.576,-571.204,-6.588
1467.172,-567.544,-215.452
1620.404,-564.616,-405.284
1556.476,-563.396,-530.212
1415.688,-544.12,-597.312
1471.564,-434.808,-685.396
1552.084,-344.772,-678.076
1523.78,-366.488,-461.404
1211.704,-516.304,-585.112
1139.968,-360.144,-572.18
1287.344,-192.272,-478.484
1402.268,-81.252,-438.712
1270.264,-76.86,-353.068
955.016,-198.128,-242.048
1035.292,-34.648,-290.36
1423.984,192.028,-437.98
1598.932,217.16,-379.908
1036.024,110.532,-213.5
517.768,187.392,8.296
387.472,426.268,-51.24
171.776,485.56,-84.424
-58.072,582.672,-55.388
-279.136,708.82,-20.984
-260.592,795.928,-46.848
-351.848,762.012,-5.612
-267.18,751.764,-2.928
-181.536,833.748,-84.18
-226.676,831.064,-112.24
-254.98,869.86,-123.22
-260.592,888.404,-128.344
-312.808,835.456,-81.74
-249.612,855.22,-91.5
-294.02,834.236,-80.764
-243.024,844.728,-62.708
-189.1,847.9,-54.9
-248.148,817.644,-11.712
-160.552,904.752,-84.912
-188.368,915.244,-114.436
-207.644,923.784,-95.404
-164.212,955.992,-95.404
-178.364,974.536,-96.136
-98.576,1047.736,-187.88
-150.304,1035.78,-156.648
-116.632,1051.152,-127.124
-75.884,1052.128,-110.288
-139.812,1014.064,-37.088
-140.3,979.66,13.664
-118.828,961.36,7.32
-44.896,991.372,-54.9
-32.208,1011.38,-96.624
-85.644,1002.352,-79.056
-120.536,975.512,-47.336
-131.76,969.9,-51.24
-116.144,971.12,-74.42
-79.544,982.344,-85.156
-69.784,974.292,-71.248
-50.996,993.568,-72.468
-8.296,1027.972,-116.876
-73.688,1033.584,-121.756
-86.376,1034.804,-124.196
-59.292,1027.24,-129.076
-74.176,1000.888,-111.508
-112.484,970.144,-94.916
-101.26,968.436,-110.044
-42.944,1001.62,-157.136
-46.848,1013.82,-168.604
-50.02,1020.896,-159.576
-59.292,1013.088,-123.708
-81.984,996.252,-86.864
-85.888,1002.596,-82.96
-68.808,1010.404,-96.38
-50.264,1017.724,-100.528
-34.892,1011.868,-97.112
-32.452,1014.796,-87.84
-51.728,1011.624,-67.344
-45.14,1009.916,-66.124
-62.708,1002.596,-76.128
-94.672,1001.376,-105.652
-110.532,994.056,-122.488
-97.844,1020.164,-155.672
-80.032,1041.88,-189.1
-105.164,1045.052,-208.864
-124.928,1046.028,-229.116
-128.344,1055.788,-243.268
-123.708,1073.112,-243.512
-101.992,1106.052,-255.956
-115.168,1102.392,-218.38
-112.484,1091.168,-164.7
-83.692,1098.732,-152.256
-58.56,1124.84,-169.824
-56.608,1127.768,-174.216
-72.956,1110.2,-178.608
-74.176,1112.396,-203.008
-97.112,1085.8,-203.008
-120.048,1038.464,-170.068
-130.052,992.592,-127.856
-136.884,959.652,-96.38
-106.384,965.996,-107.36
-103.456,977.22,-128.1
-136.64,953.064,-126.148
-184.952,928.176,-102.968
-199.836,922.076,-76.616
-147.864,943.304,-60.512
-96.868,971.852,-38.064
-65.392,1002.596,-19.276
-46.848,1022.36,-14.152
-54.168,1024.312,-6.1
-64.172,1012.6,-0.244
-58.56,1005.524,3.66
-61.976,997.228,13.908
-77.836,982.588,36.112
-79.788,977.708,34.648
-78.324,999.424,-18.544
-102.236,1018.212,-81.496
-105.896,1012.844,-101.26
-123.708,985.516,-77.348
-167.872,964.044,-36.6
-153.476,946.476,-16.104
-127.856,958.188,-28.304
-113.216,964.532,-38.064
-111.264,954.772,-40.26
-117.608,934.764,-38.064
-142.252,921.832,-29.524
-170.312,909.144,-18.3
-173.24,900.116,-11.468
-162.748,895.236,-17.568
-165.432,894.504,-31.72
-147.62,890.356,-52.948
-167.384,872.3,-37.088
-200.812,859.368,-1.708
-188.856,863.516,11.956
-170.8,881.572,-5.368
-141.276,910.852,-43.676
-132.736,933.788,-56.852
-162.504,932.568,-38.064
-189.588,937.204,-36.844
-173.484,961.36,-51.484
-173.484,969.9,-43.188
-175.924,966.972,-33.672
-159.088,976.976,-38.552
-122.976,981.612,-53.436
-107.604,991.372,-76.86
-137.372,990.396,-94.672
-166.408,981.856,-98.332
-192.028,963.312,-86.62
-212.524,953.064,-68.564
-228.628,944.768,-56.12
-221.552,961.604,-75.64
-190.32,979.904,-99.308
-187.636,992.836,-110.532
-199.836,1004.792,-127.612
-197.396,1000.4,-113.704
-206.912,980.636,-83.204
-188.856,973.804,-70.272
-165.432,980.636,-83.204
-153.232,982.1,-80.276
-175.192,970.388,-73.688
-183.0,961.604,-78.812
-154.452,958.432,-98.332
-153.72,954.284,-101.016
-180.072,940.376,-81.74
-210.328,929.396,-65.392
-241.56,916.464,-50.752
-227.408,914.756,-49.532
-223.992,932.812,-86.62
-211.548,960.872,-124.44
-219.6,983.32,-146.888
-216.916,990.64,-145.18
-213.744,994.056,-139.08
-211.792,996.984,-133.956
-213.012,994.3,-116.144
-209.596,996.74,-106.384
-209.596,997.96,-107.116
-205.936,991.372,-106.872
-213.744,980.148,-100.772
-208.132,987.224,-113.216
-236.436,986.492,-113.46
-247.172,978.44,-98.82
-261.08,964.776,-77.348
-216.428,976.244,-105.164
-169.092,996.496,-152.988
-206.18,996.496,-162.748
-214.476,989.908,-150.304
-243.512,976.244,-130.052
-279.868,954.528,-117.12
-278.648,936.716,-104.676
-280.356,928.664,-102.48
-287.676,926.956,-95.892
-277.916,947.208,-105.408
-294.02,998.204,-146.4
-261.324,1021.628,-193.004
-211.548,1021.384,-172.996
-196.664,996.252,-127.856
-244.0,973.072,-79.3
-296.216,969.9,-88.816
-400.648,993.568,-162.504
-573.888,980.392,-242.048
-774.7,971.12,-380.396
-988.688,893.772,-309.148
-1062.864,619.516,-87.84
-637.328,144.936,58.804
1126.548,93.208,-148.108
1568.188,623.42,-214.476
451.888,203.496,677.588
821.792,112.24,433.832
1580.876,516.304,-120.292
1764.608,453.84,108.336
1237.812,437.98,-105.164
1063.108,373.808,-48.556
969.9,403.332,-56.608
1059.204,428.952,-87.596
1151.192,426.756,26.84
909.144,401.868,23.668
813.74,366.0,112.728
801.052,285.236,145.668
887.184,293.532,151.036
987.224,266.448,150.548
977.952,213.256,143.716
859.612,199.836,210.328
979.904,214.72,332.572
1068.232,152.012,571.936
1050.664,122.732,666.852
1092.388,100.528,695.888
1136.552,115.656,686.128
1233.42,123.708,772.016
1132.648,38.796,811.056
835.212,-45.872,737.612
603.412,-78.08,594.628
593.164,-65.392,366.244
729.804,-67.344,148.84
658.068,-54.168,-45.384
412.604,-97.112,-136.396
333.304,-177.876,-327.692
666.608,-130.54,-632.692
789.096,-79.3,-869.128
670.268,-76.128,-960.628
529.968,-105.408,-1004.792
662.948,-93.94,-1126.304
799.588,-79.3,-1202.432
763.72,-96.136,-1240.008
728.096,-161.284,-1284.172
864.248,-131.516,-1432.036
1025.532,-100.528,-1473.76
910.608,-172.264,-1284.66
825.452,-253.516,-1085.312
708.576,-308.66,-914.268
768.844,-346.724,-803.98
791.292,-370.88,-710.284
951.6,-387.228,-608.536
1045.296,-420.656,-472.872
1028.216,-468.236,-268.644
1112.884,-494.588,-91.988
1136.796,-548.024,116.388
1136.064,-505.812,250.344
1173.396,-408.944,328.668
1176.324,-387.228,423.584
1178.764,-439.688,596.092
1137.04,-448.472,738.832
1140.7,-355.752,747.128
1095.072,-304.512,769.088
1119.228,-267.912,769.332
1123.62,-260.836,725.412
1176.324,-237.168,651.968
1194.868,-239.364,594.628
1254.892,-296.704,559.736
1307.596,-360.388,547.78
1391.776,-346.968,490.928
1356.64,-363.804,467.016
1366.4,-389.912,400.648
1394.216,-374.54,267.424
1389.824,-354.776,70.76
1508.408,-349.408,38.064
1440.088,-387.96,10.004
1369.572,-410.408,108.336
1224.88,-396.744,8.052
1132.16,-301.34,-113.704
1342.732,-193.004,-170.556
1218.536,-239.608,-250.588
999.18,-327.692,-100.284
1228.296,-198.128,-23.424
1384.944,-104.432,-179.828
1464.976,-28.792,-265.716
1455.46,55.632,-230.092
1632.116,78.324,-52.46
1527.684,18.788,-88.328
927.688,47.092,-349.164
1448.14,382.104,-364.78
1519.876,334.036,-199.836
1042.856,236.436,145.912
843.996,281.576,162.26
839.36,367.22,152.5
937.448,424.804,140.056
934.764,532.408,20.984
444.324,494.344,199.348
91.988,602.924,269.132
-331.596,624.396,255.468
-386.008,680.272,73.688
-403.576,702.964,4.392
-309.148,764.452,-46.116
-350.384,752.74,-65.636
-436.028,705.404,-81.252
-462.38,692.716,-79.788
-447.008,708.82,-64.416
-379.908,779.092,-78.812
-408.7,798.856,-59.292
-449.204,790.804,-8.052
-463.6,766.892,42.212
-398.452,798.124,16.104
-346.724,848.876,-22.204
-297.192,891.82,-57.34
-302.316,921.1,-74.664
-392.108,911.096,-40.26
-378.932,921.832,-11.712
-299.388,912.804,28.304
-232.044,923.54,41.968
-162.016,944.768,31.232
-175.436,970.388,29.036
-223.504,976.976,3.904
-284.016,992.104,-50.264
-318.664,999.18,-89.548
-262.056,1017.724,-122.488
-191.296,1002.596,-83.204
-115.168,1005.28,-18.788
-147.864,994.3,5.856
-206.424,1001.376,-30.5
-231.8,995.764,-56.364
-227.408,983.32,-53.68
-222.528,954.284,-29.036
-175.68,945.5,-20.74
-112.24,961.604,-26.84
-130.54,962.092,-14.884
-171.288,964.532,-21.228
-196.42,957.456,-28.792
-205.936,963.556,-51.972
-123.22,991.616,-75.396
-104.188,995.52,-71.98
-124.44,994.3,-56.12
-142.984,996.984,-49.776
-156.16,1007.964,-59.78
-166.164,1028.704,-80.032
-132.736,1032.364,-92.476
-93.452,1035.536,-92.72
-101.016,1033.584,-69.784
-121.024,1053.104,-60.756
-123.708,1059.448,-52.704
-117.364,1043.1,-19.52
-95.16,1033.584,-2.44
-62.952,1032.364,-19.52
-76.372,1032.852,-42.212
-107.116,1024.068,-57.096
-152.012,1010.648,-70.516
-152.988,1002.352,-98.82
-152.256,987.956,-109.8
-144.692,987.712,-130.784
-135.664,999.668,-163.236
-140.3,999.912,-165.432
-149.572,1000.644,-152.988
-147.376,1020.652,-155.428
-120.292,1053.592,-171.776
-119.804,1060.668,-152.012
-96.624,1053.104,-113.216
-64.416,1042.124,-68.564
-80.52,1021.384,-19.032
-74.42,1026.264,-19.52
-93.94,1035.048,-44.164
-109.312,1046.76,-74.908
-125.904,1059.448,-110.532
-141.276,1051.64,-129.32
-137.86,1043.1,-138.348
-135.42,1034.56,-127.612
-147.864,1019.676,-97.356
-151.28,1012.844,-77.104
-109.068,1025.532,-91.744
-80.52,1030.656,-109.068
-65.636,1032.364,-120.048
-96.136,1004.548,-87.596
-115.656,981.612,-48.312
-113.704,983.32,-48.068
-98.332,994.544,-66.368
-60.756,1014.796,-81.984
-29.768,1030.412,-79.788
-43.188,1021.872,-67.588
-56.12,1012.112,-47.58
-91.012,999.668,-12.2
-76.616,990.396,-18.544
-84.668,993.568,-26.84
-123.952,991.616,-50.264
-111.508,994.788,-77.104
-115.412,984.54,-92.232
-141.764,973.56,-91.256
-157.136,967.704,-95.892
-172.508,965.752,-111.02
-175.436,953.796,-109.068
-143.472,939.156,-104.676
-129.564,929.884,-111.508
-144.936,932.324,-112.728
-185.928,915.732,-89.792
-203.008,917.44,-88.572
-186.66,949.404,-121.512
-142.008,986.736,-168.848
-113.46,996.984,-153.476
-100.528,963.312,-33.184
-82.228,969.9,-0.244
-71.492,1005.28,-46.604
-71.248,1031.388,-115.656
-92.72,1011.868,-152.744
-156.648,964.532,-129.076
-202.52,937.204,-125.416
-193.248,941.352,-148.596
-181.78,940.864,-193.004
-203.74,925.736,-204.96
-230.336,902.068,-181.292
-248.148,884.012,-162.26
-261.568,866.932,-134.444
-291.58,840.58,-96.38
-297.924,838.872,-84.912
-267.424,849.852,-93.208
-261.08,862.296,-103.944
-261.568,861.076,-103.944
-285.968,855.952,-76.372
-305.0,860.344,-74.664
-317.932,872.788,-104.676
-302.072,884.744,-126.88
-275.72,894.748,-148.596
-248.636,910.364,-156.648
-272.06,904.996,-123.464
-300.608,904.264,-107.604
-286.456,926.712,-147.376
-250.344,963.8,-206.424
-263.032,992.104,-231.556
-285.724,1005.28,-230.58
-314.272,991.128,-188.612
-347.7,957.212,-111.264
-354.044,938.668,-54.9
-301.34,955.748,-53.924
-328.424,989.42,-78.812
-339.404,998.448,-85.888
-337.208,1017.724,-94.428
-402.844,1038.22,-113.216
-489.708,1049.688,-164.7
-426.512,1057.74,-208.132
-508.74,1036.512,-237.412
-692.228,1039.44,-280.356
-890.844,971.364,-294.996
-1145.336,824.232,-266.204
-1333.216,745.664,-268.4
-856.44,591.944,-450.668
48.312,71.736,-338.428
533.14,-418.46,160.308
1012.844,-322.568,423.096
1893.928,314.272,-384.788
1921.744,490.684,-348.92
1283.196,384.056,-404.552
731.756,152.744,-275.232
904.508,42.212,-27.572
1203.652,55.632,28.548
1149.24,109.8,-76.616
959.408,212.524,-238.144
943.304,271.572,-289.384
962.092,166.896,-105.408
1108.98,128.832,21.228
1087.508,168.848,-19.52
998.692,208.376,-142.496
1090.68,205.448,-85.888
1152.656,181.78,118.096
1114.104,144.448,326.716
1225.612,160.796,516.304
1273.192,76.372,689.3
1169.98,30.988,755.912
1024.312,30.744,724.192
963.556,54.168,525.576
1003.816,63.928,363.072
865.468,39.04,280.6
682.224,-19.032,186.172
526.064,-50.264,96.868
520.94,-30.5,-128.832
506.3,29.768,-341.356
373.076,-50.752,-392.352
383.812,-156.404,-529.48
539.728,-104.676,-759.572
548.512,-74.42,-1026.752
608.048,-109.556,-1179.008
762.988,-181.536,-1381.528
869.86,-235.216,-1440.82
843.02,-217.404,-1511.824
772.748,-175.436,-1552.572
650.748,-176.168,-1472.784
540.46,-260.348,-1255.136
519.72,-335.744,-986.492
543.388,-378.2,-771.528
658.312,-362.828,-605.12
729.56,-410.896,-451.888
791.536,-481.656,-257.664
902.556,-524.356,-62.22
963.556,-479.704,69.54
1018.456,-434.564,177.144
1168.76,-444.324,268.888
1300.032,-480.192,356.484
1317.112,-460.428,488.488
1341.024,-430.66,574.132
1419.592,-445.056,609.024
1557.208,-480.68,581.94
1615.524,-471.164,547.292
1507.432,-446.52,494.588
1391.532,-455.548,467.992
1356.152,-472.872,392.84
1408.612,-470.432,245.22
1406.172,-471.408,95.404
1417.152,-486.536,25.132
1429.84,-545.34,-47.336
1451.068,-547.78,-164.944
1386.652,-558.516,-261.08
1335.9,-587.552,-339.404
1266.848,-594.14,-344.528
1349.32,-552.416,-348.432
1449.848,-507.276,-410.164
1364.692,-554.124,-413.336
1182.18,-565.348,-383.812
1165.832,-406.504,-380.396
1217.56,-303.536,-407.968
1052.128,-168.848,-636.108
1065.792,-69.052,-486.048
1054.812,-109.8,-410.164
1030.9,1.464,-429.928
1024.068,38.552,-375.272
1090.436,95.16,-379.664
1136.796,130.784,-278.16
1183.644,149.572,-176.656
1283.928,131.272,-211.548
1067.5,35.136,-305.976
442.616,178.852,-140.056
788.364,354.776,85.4
1458.876,497.272,-13.908
1516.704,372.832,111.996
734.684,392.352,316.468
264.496,544.364,328.18
71.98,599.752,329.644
52.46,717.848,210.572
-133.956,844.484,67.832
-240.096,963.8,-77.104
-237.656,895.236,-53.68
-260.836,868.396,10.736
-263.276,890.6,27.572
-240.828,918.66,-3.172
-226.188,917.928,-37.088
-248.392,883.768,-14.396
-294.996,845.216,30.256
-338.672,832.772,40.504
-274.5,845.704,11.468
-179.34,878.644,-34.892
-202.276,865.468,-2.196
-244.732,839.604,25.864
-279.868,837.408,11.468
-270.596,898.896,-79.3
-271.816,939.4,-125.904
-303.536,919.636,-67.344
-237.656,943.792,-37.576
-200.812,976.976,-41.48
-188.124,998.448,-66.612
-185.684,1011.624,-64.66
-208.864,1014.308,-42.456
-227.896,1014.308,-40.992
-232.288,1004.06,-43.676
-198.128,979.172,-8.296
-148.596,972.096,20.496
-197.884,963.8,14.152
-211.06,961.36,-25.376
-219.844,961.848,-46.116
-182.268,998.936,-80.764
-182.024,1012.6,-70.76
-164.212,1023.824,-52.948
-133.712,1029.924,-43.92
-153.72,1021.628,-48.068
-177.876,1023.58,-80.764
-192.272,1013.82,-98.82
-194.956,1006.5,-84.912
-160.796,1000.4,-65.636
-143.96,1008.94,-57.096
-154.94,1031.632,-75.396
-173.24,1036.024,-69.296
-163.236,1023.336,-47.336
-166.164,1003.816,-23.18
-148.596,1000.4,-33.672
-157.624,1004.548,-41.724
-113.704,1036.268,-79.544
-103.944,1033.34,-90.28
-144.204,1003.572,-61.976
-176.412,979.66,-38.796
-163.48,982.344,-44.408
-144.692,984.052,-49.532
-125.416,982.832,-56.608
-111.02,971.852,-48.068
-113.948,954.04,-22.936
-88.816,978.196,-56.364
-122.488,976.976,-68.32
-152.988,962.824,-56.364
-148.84,959.164,-58.072
-107.848,964.532,-55.876
-83.448,979.172,-58.56
-87.596,985.272,-63.928
-115.656,989.664,-62.952
-143.716,981.612,-47.092
-107.604,1001.132,-86.62
-115.168,981.368,-58.072
-118.584,965.752,-17.568
-71.98,982.344,-26.84
-59.536,1007.232,-73.2
-92.476,1002.596,-88.084
-142.496,977.952,-70.272
-161.528,962.092,-51.484
-136.64,982.344,-78.324
-95.404,1007.232,-111.02
-104.676,990.396,-93.94
-105.652,970.876,-58.316
-104.432,964.776,-32.94
-114.192,978.928,-53.436
-93.94,997.716,-91.012
-64.416,1011.136,-128.344
-66.368,1019.188,-132.736
-102.724,1003.084,-101.26
-96.868,1010.16,-92.964
-101.748,1016.26,-97.844
-116.144,1011.868,-100.772
-115.656,1009.916,-111.02
-102.48,1019.432,-132.98
-89.792,1022.116,-138.104
-86.376,1013.088,-110.776
-62.952,1018.944,-90.28
-67.344,1005.768,-71.98
-79.056,990.152,-46.604
-71.248,993.08,-59.78
-53.192,1018.456,-93.696
-82.472,1018.212,-90.768
-98.088,1002.352,-78.568
-98.576,991.128,-87.108
-90.768,965.508,-69.296
-97.6,930.616,-24.888
-92.476,924.516,-16.592
-125.416,903.776,-3.66
-137.372,888.892,7.564
-147.132,887.672,12.932
-165.432,891.576,27.816
-157.136,914.268,31.72
-114.436,940.376,30.744
-99.552,941.596,55.876
-80.764,960.628,48.556
-93.208,983.076,24.644
-118.096,1006.012,4.88
-107.116,1024.556,-22.692
-131.516,1015.284,-21.228
-159.576,1003.084,-8.784
-118.828,1020.408,-33.428
-64.904,1035.78,-50.996
-59.292,1027.24,-41.48
-75.64,1017.968,-20.496
-108.58,1017.236,-11.468
-120.536,1016.504,-24.4
-140.544,1006.256,-36.6
-131.76,1002.84,-53.68
-127.368,1011.136,-75.396
-146.156,1005.036,-70.76
-149.572,1003.328,-64.904
-174.216,983.808,-36.112
-187.148,979.416,-29.524
-162.016,997.96,-50.996
-156.404,1003.328,-67.588
-167.384,976.244,-43.92
-174.216,955.992,0.0
-201.056,940.62,24.156
-198.86,942.572,24.156
-173.728,954.284,2.44
-154.94,964.288,-10.492
-179.828,961.36,9.028
-172.752,967.46,10.248
-157.868,976.244,-7.32
-178.364,960.14,-10.736
-177.632,948.428,-18.544
-166.408,938.18,-41.724
-174.948,923.784,-39.04
-162.748,905.484,-36.6
-148.108,903.044,-43.432
-165.676,895.968,-24.644
-170.068,900.604,-25.376
-157.136,919.148,-48.8
-144.448,937.204,-70.272
-122.488,957.456,-95.404
-109.556,981.368,-117.852
-111.264,994.056,-127.612
-109.556,1008.94,-134.932
-104.188,1010.648,-136.152
-53.68,1018.944,-156.16
-32.208,1018.212,-151.28
-50.752,997.96,-130.54
-66.368,987.468,-109.8
-74.42,971.608,-88.084
-58.56,965.752,-91.744
-39.772,966.972,-87.352
-37.576,975.512,-85.4
-23.668,993.812,-93.696
-4.636,1014.552,-111.508
9.272,1023.58,-114.68
18.056,1023.58,-108.824
29.28,1042.612,-133.712
29.768,1049.2,-159.576
25.376,1032.12,-154.696
31.476,1019.92,-151.28
17.08,1014.552,-153.72
24.644,1011.38,-154.696
20.008,1006.988,-141.52
29.768,1012.112,-137.86
66.856,1025.288,-160.552
73.688,1025.532,-171.288
56.12,1010.648,-167.628
52.46,995.032,-169.336
55.388,987.468,-170.556
57.828,985.028,-172.508
43.92,980.636,-162.26
45.872,975.512,-149.084
60.512,972.828,-144.204
83.692,986.98,-158.6
85.156,994.788,-166.408
85.4,1002.352,-173.24
81.252,993.568,-167.384
72.712,981.124,-167.384
62.952,976.488,-171.288
67.832,978.928,-183.732
84.424,986.248,-186.172
92.72,995.032,-186.66
108.824,1001.62,-189.344
102.724,995.764,-173.972
97.356,987.712,-165.188
113.46,993.08,-179.828
107.848,996.008,-186.904
93.208,991.128,-183.976
91.5,984.784,-182.268
128.1,990.884,-201.056
146.888,995.52,-212.768
102.724,988.688,-198.86
106.14,986.004,-216.184
112.972,997.96,-240.584
98.088,998.936,-240.584
