acc_x[mg],acc_y[mg],acc_z[mg]
157.624,1048.468,131.516
136.64,1072.868,85.156
132.98,1096.78,23.912
131.028,1102.392,11.468
109.068,1079.456,65.392
87.352,1069.94,87.84
91.5,1060.424,82.228
81.496,1042.124,86.864
69.296,1034.56,77.104
45.14,1039.684,44.896
53.192,1044.32,18.544
26.108,1014.796,42.212
-1.708,976.488,73.444
-26.596,938.668,89.792
-57.828,928.42,79.3
-48.068,965.996,43.188
27.816,1003.572,-51.728
3.66,1021.872,-90.28
-51.728,1007.964,-76.372
-75.64,990.884,-72.224
-130.052,979.66,-47.824
-174.46,981.856,-38.552
-87.84,1009.184,-86.376
-79.788,1026.264,-84.424
-131.028,1002.108,-18.3
-174.216,999.668,38.796
-165.676,979.904,52.46
-150.304,981.612,49.776
-156.16,979.416,38.308
-185.196,995.52,-0.732
-219.356,1011.136,-15.616
-266.204,1013.82,-16.348
-242.78,1009.672,-27.328
-213.256,1008.452,-54.168
-205.204,1019.92,-97.6
-275.476,1020.652,-60.756
-350.872,1005.036,-23.668
-372.1,1015.04,-54.168
-424.56,1008.208,-65.636
-519.964,978.44,-51.972
-568.764,981.856,-102.968
-732.488,1014.552,-179.096
-1071.16,1095.804,-247.416
-1320.284,1058.96,-287.676
-1516.948,1001.376,-233.02
-1522.316,886.696,-231.068
-990.396,577.06,-336.964
355.264,153.476,-390.4
772.748,361.608,72.712
484.584,254.248,458.232
809.592,408.456,-188.368
938.424,383.812,-217.648
1155.828,335.012,-369.416
1065.792,255.468,-561.688
1029.924,-115.656,-47.824
1031.876,-316.224,305.488
986.004,-314.516,553.148
925.248,-124.684,447.984
874.008,1.952,359.656
872.544,108.092,267.912
938.668,211.06,240.096
932.568,299.388,283.284
794.464,347.7,307.44
771.528,402.112,261.324
836.432,384.3,273.036
872.3,380.152,330.62
943.304,339.892,463.356
975.268,263.276,577.792
1037.0,193.248,634.644
1209.264,165.188,609.268
1305.4,79.3,678.808
1177.056,-24.888,721.996
1058.96,-99.064,778.604
991.128,-124.196,701.5
832.284,-106.384,507.032
690.276,-40.748,295.728
569.008,23.424,45.872
567.788,35.868,-139.324
550.952,30.744,-301.34
405.284,68.32,-483.12
387.716,150.06,-725.412
418.216,156.16,-935.74
499.712,204.472,-1163.392
406.016,266.204,-1268.068
250.832,250.1,-1289.54
414.556,192.272,-1425.692
465.796,185.44,-1512.556
407.724,201.056,-1602.592
492.636,190.076,-1708.244
633.18,158.844,-1752.896
699.548,69.296,-1597.468
561.688,-50.02,-1322.236
534.116,-94.428,-1191.452
570.228,-102.236,-1080.676
622.2,-152.744,-908.412
657.336,-252.296,-626.104
700.524,-304.268,-457.012
815.936,-304.024,-355.996
834.724,-282.552,-195.2
801.54,-282.796,-2.44
831.552,-331.352,61.976
1118.252,-321.104,14.884
1136.308,-268.156,68.32
1028.216,-220.82,158.844
1005.036,-247.66,247.904
1068.232,-285.968,278.648
1236.836,-346.236,308.172
1384.944,-358.192,325.252
1303.448,-396.988,331.596
1309.548,-431.88,255.468
1548.668,-386.252,116.632
1641.876,-358.68,43.432
1519.876,-382.104,73.444
1636.508,-421.388,-4.148
1770.952,-411.14,-71.98
1802.428,-421.144,-163.968
1809.26,-472.384,-301.096
1725.568,-457.256,-501.664
1557.696,-366.976,-656.848
1434.476,-358.436,-754.936
1237.08,-378.444,-767.868
1167.296,-371.856,-716.628
1212.436,-320.372,-686.372
1142.408,-244.244,-666.608
1107.028,-203.496,-631.472
939.888,-181.78,-614.148
860.344,-44.652,-570.472
1000.4,16.348,-529.968
1007.964,94.428,-519.232
874.008,169.58,-518.256
648.308,243.268,-525.576
858.636,249.124,-354.288
1023.824,315.98,-304.268
1145.824,369.66,-339.16
1203.652,508.74,-395.28
1239.276,530.212,-278.892
1338.34,409.92,-26.352
1442.284,356.972,53.924
1568.432,402.844,-120.292
1036.512,210.328,94.428
568.032,255.712,329.888
105.652,350.628,424.804
-591.212,377.712,593.652
-1141.92,487.756,587.552
-1195.844,629.276,337.696
-681.004,765.672,23.668
-514.108,703.452,-11.956
-644.16,636.108,99.552
-682.224,686.86,79.056
-672.22,762.744,-9.028
-657.092,790.804,-21.716
-522.16,807.884,-6.832
-421.144,822.036,20.008
-421.876,839.36,80.032
-405.04,865.468,88.328
-314.76,902.8,64.66
-243.268,927.444,38.552
-223.016,949.404,30.988
-259.86,973.804,58.316
-300.608,977.708,83.692
-310.856,960.872,111.02
-291.336,959.164,101.992
-285.236,961.36,60.756
-260.592,992.592,12.932
-284.992,982.832,35.868
-320.616,958.676,71.004
-303.048,977.22,28.792
-287.188,998.692,-19.52
-311.344,980.392,2.928
-288.164,971.364,-0.488
-279.868,976.0,-12.688
-285.968,1012.844,-50.02
-303.048,1032.364,-90.036
-323.544,1044.808,-117.364
-332.084,1050.42,-116.144
-339.16,1016.748,-80.52
-316.468,1027.484,-101.504
-295.728,1068.476,-140.788
-317.2,1097.024,-147.376
-317.932,1103.368,-124.44
-291.824,1085.556,-111.508
-223.26,1105.32,-132.98
-108.58,1115.568,-141.52
-106.628,1102.392,-102.48
-140.3,1087.996,-90.524
-155.428,1066.768,-106.14
-182.512,1028.704,-91.5
-203.984,1003.816,-89.304
-183.244,1000.888,-94.184
-229.604,1004.304,-48.068
-266.692,1012.844,-11.224
-294.508,992.836,37.82
-313.784,978.928,50.508
-294.508,988.444,32.94
-269.376,992.592,23.424
-284.748,969.9,29.524
-313.296,1000.4,17.08
-271.572,977.22,20.252
-242.78,956.724,63.684
-231.8,934.276,95.404
-222.284,921.344,79.3
-190.808,924.272,48.068
-224.48,915.976,33.428
-305.732,873.276,76.372
-345.26,829.112,130.296
-332.572,824.964,104.432
-244.976,831.064,54.168
-172.996,816.18,100.528
-218.136,773.236,213.012
-253.76,753.96,244.732
-281.088,772.992,213.988
-326.96,793.976,193.736
-337.696,820.328,135.664
-315.492,819.84,122.976
-302.56,799.832,162.504
-330.132,782.996,214.964
-348.188,798.124,195.688
-363.072,832.772,135.664
-393.572,856.684,93.452
-397.232,874.496,74.176
-408.944,870.836,98.82
-476.288,860.832,175.192
-524.844,863.516,211.06
-440.664,859.124,164.212
-293.044,859.856,105.896
-353.068,883.768,61.488
-588.284,935.984,24.156
-690.032,916.708,24.644
-649.528,900.36,26.352
-595.36,885.232,10.004
-572.18,884.988,-17.08
-712.48,895.236,-48.8
-1194.136,762.988,-47.58
-1780.956,759.328,104.432
-1950.78,274.744,266.936
-1010.404,-838.872,245.464
651.724,-1019.676,-245.708
2517.592,77.836,-299.632
2358.016,857.66,-690.032
582.184,684.664,-406.992
885.476,488.976,-453.84
1560.38,254.492,-232.288
1426.424,209.84,-194.956
1146.8,203.984,-197.64
1118.984,286.212,-181.292
1192.916,276.94,-96.136
1075.308,196.176,40.016
1077.26,203.252,89.792
1182.424,284.748,9.028
1227.564,247.66,144.692
1162.172,178.12,358.68
1145.336,142.008,535.824
1179.496,100.528,610.0
1196.576,64.172,641.964
1051.884,1.22,677.832
823.5,-36.356,723.948
713.456,-46.848,672.952
691.74,-10.248,465.064
647.576,134.932,119.072
493.124,216.428,-63.684
344.284,143.228,-66.856
258.152,-38.308,-61.732
357.216,-47.092,-321.348
384.056,14.884,-661.728
498.492,119.072,-1069.452
658.312,171.776,-1364.692
761.28,227.652,-1647.732
765.672,198.616,-1740.696
622.444,161.04,-1777.052
555.832,145.668,-1817.8
551.928,102.968,-1798.036
554.368,32.452,-1661.396
513.62,-29.036,-1489.62
511.912,-56.364,-1356.884
566.812,-78.324,-1204.384
645.868,-152.5,-932.08
755.424,-301.584,-574.132
841.556,-410.652,-266.448
959.652,-379.176,-132.248
1132.16,-301.096,-72.224
1257.332,-250.344,-11.712
1387.14,-293.288,154.696
1389.336,-365.024,349.164
1311.988,-339.404,453.352
1328.824,-249.124,467.748
1309.548,-199.592,434.808
1375.184,-198.372,368.196
1332.484,-232.532,316.712
1282.22,-262.056,235.216
1255.624,-213.988,128.832
1212.924,-199.348,66.612
1251.964,-235.216,-2.44
1331.508,-301.828,-79.056
1339.072,-329.888,-141.032
1231.224,-277.916,-154.94
1090.924,-263.276,-209.596
1200.48,-282.308,-337.452
1338.34,-321.348,-416.996
1304.18,-288.896,-441.64
1241.716,-282.064,-404.308
1154.12,-306.708,-424.072
1239.032,-277.184,-502.396
1260.504,-250.344,-518.744
1259.528,-231.8,-518.744
1299.3,-240.096,-513.132
1259.772,-287.676,-469.456
1118.008,-223.992,-531.676
1194.136,-137.616,-534.848
1299.3,-84.668,-533.872
1230.492,-61.244,-515.816
1023.824,-75.152,-441.884
911.584,1.708,-398.94
866.932,96.868,-377.224
773.236,205.692,-435.296
606.34,260.836,-446.52
654.652,403.576,-367.22
737.612,424.072,-253.516
569.008,335.012,-64.172
514.84,320.128,46.604
793.488,401.868,33.184
969.9,471.164,-8.54
1044.808,499.712,6.832
1023.092,505.324,56.364
1179.984,538.508,84.668
1367.376,614.88,68.076
1448.14,704.428,-97.112
1392.02,685.152,-197.396
1193.404,494.588,-62.952
1068.72,345.016,334.768
889.136,383.812,505.324
490.928,460.428,462.868
-189.344,497.76,490.196
-820.816,551.196,490.684
-1023.58,665.144,366.976
-909.876,804.956,101.748
-800.076,829.356,-1.22
-694.668,813.496,-24.4
-750.544,667.096,65.88
-701.256,637.572,96.868
-564.616,719.556,4.392
-455.548,780.556,-32.696
-427.0,787.632,29.524
-415.288,783.484,91.012
-388.448,804.224,102.968
-349.896,839.848,97.356
-314.272,887.428,63.196
-208.62,944.036,43.92
-229.848,945.744,101.992
-287.432,908.168,165.92
-236.192,904.02,176.412
-256.932,916.464,153.232
-222.772,968.436,59.536
-216.428,1031.144,-3.172
-278.892,1011.868,30.256
-305.488,961.604,96.38
-280.844,973.072,82.228
-261.568,999.912,43.432
-269.864,1032.608,5.124
-252.052,1063.596,-43.676
-251.808,1060.18,-54.412
-279.38,1052.372,-45.628
-284.992,1061.156,-62.22
-319.396,1056.764,-59.78
-314.272,1084.336,-107.604
-304.268,1089.704,-139.324
-266.692,1055.544,-115.168
-223.992,1021.872,-86.864
-235.46,1012.6,-92.232
-272.792,1010.648,-100.04
-246.44,994.056,-90.768
-227.164,973.804,-62.708
-208.62,980.148,-57.096
-199.104,1018.212,-62.464
-211.304,1054.08,-58.56
-241.072,1092.876,-63.44
-245.708,1101.904,-40.26
-170.312,1110.932,-30.988
-118.096,1130.696,-37.82
-61.976,1138.504,-63.684
-84.668,1102.392,-2.44
-148.352,1041.636,70.028
-190.076,1023.092,43.432
-210.572,1012.6,7.564
-126.636,1022.36,-55.876
-183.976,982.832,-1.952
-204.96,937.692,66.856
-158.356,914.512,102.968
-158.6,907.68,118.34
-145.912,901.58,93.208
-136.396,902.312,88.572
-119.804,912.804,58.072
-172.02,894.992,80.032
-206.912,874.008,116.876
-197.396,873.276,109.8
-150.304,893.284,42.944
-158.112,902.556,40.26
-184.464,894.016,41.724
-193.492,896.944,23.18
-210.084,894.992,26.84
-239.608,902.8,40.992
-230.092,901.092,34.648
-197.884,915.488,10.004
-212.768,937.448,-6.344
-231.8,923.296,13.664
-206.424,905.728,58.316
-189.588,916.952,77.104
-193.248,934.52,60.512
-201.544,934.52,75.884
-210.572,935.252,87.596
-217.892,955.992,81.496
-224.236,970.388,56.364
-242.78,953.552,77.104
-226.92,954.284,86.132
-187.636,955.748,66.612
-187.636,960.872,59.048
-232.288,938.668,63.44
-266.204,912.56,101.016
-260.836,899.628,116.388
-217.648,921.588,84.668
-233.996,914.756,88.328
-235.704,908.656,93.696
-218.624,932.08,57.34
-234.972,933.788,53.68
-251.808,909.876,103.7
-275.476,901.824,142.008
-223.504,920.612,99.552
-188.856,953.064,62.952
-231.068,957.212,78.568
-219.844,971.608,70.516
-233.02,969.656,77.592
-251.564,969.168,80.276
-251.32,982.832,59.78
-289.14,983.076,69.54
-303.78,992.348,50.752
-279.38,1006.012,10.98
-371.124,984.54,22.692
-494.344,955.016,5.612
-802.272,941.352,-37.82
-1302.716,881.084,-59.292
-1370.548,787.632,-35.868
-1384.944,460.428,15.616
81.252,-268.644,130.296
1112.884,-257.176,206.912
1254.16,83.204,242.292
1341.268,397.72,-64.904
1199.992,692.716,-337.452
1143.14,510.204,-172.02
1252.94,385.764,-94.428
1135.332,322.568,-86.62
1183.4,310.124,-128.588
1256.844,285.236,-24.888
1207.312,255.224,91.256
1059.204,168.848,199.836
1052.128,183.732,264.496
1157.292,205.936,280.356
1201.456,198.128,367.464
1235.128,157.624,503.128
1192.184,117.852,593.896
1225.368,47.58,701.256
1187.548,-32.696,764.696
1090.68,-38.796,718.824
952.088,-19.032,636.352
790.804,-21.228,586.332
693.936,-2.928,487.024
589.26,20.008,367.464
368.928,44.164,259.616
276.208,75.64,103.944
186.416,78.812,-2.44
134.2,-19.52,-49.044
416.996,0.488,-393.328
521.672,99.308,-797.392
553.392,176.656,-992.836
689.788,225.212,-1200.968
727.608,233.752,-1404.708
872.056,219.112,-1595.028
909.876,209.84,-1691.408
911.096,186.904,-1702.632
782.02,129.564,-1615.28
780.8,26.352,-1475.468
783.728,-39.772,-1346.148
661.24,-91.5,-1138.016
625.86,-140.788,-972.096
717.848,-200.324,-846.436
871.812,-252.54,-653.188
909.632,-344.528,-383.08
874.252,-380.396,-142.74
908.9,-399.916,18.3
1084.58,-384.056,71.248
1212.436,-316.956,53.68
1235.616,-295.484,46.604
1225.612,-309.636,110.532
1148.02,-287.92,181.536
1108.004,-225.7,142.008
1169.98,-180.56,71.736
1221.952,-184.708,57.096
1225.856,-234.728,102.968
1201.7,-276.696,159.82
1142.408,-293.288,226.432
1124.596,-249.856,220.332
1183.156,-220.332,161.04
1277.584,-262.056,121.512
1403.976,-301.828,106.872
1418.616,-306.952,89.548
1330.288,-308.172,118.34
1296.372,-330.864,102.48
1347.612,-357.216,36.844
1324.676,-347.456,38.064
1038.22,-303.78,50.996
1096.048,-326.472,4.636
1328.092,-290.848,-210.816
1542.812,-244.0,-351.848
1486.204,-270.108,-372.832
1198.772,-363.316,-381.86
1161.928,-270.352,-414.8
1334.192,-235.46,-429.196
1235.128,-142.252,-507.276
1259.772,-91.256,-507.032
994.056,-124.684,-490.44
816.912,30.256,-496.052
1097.024,91.5,-376.98
1162.66,136.396,-349.164
1096.78,155.916,-257.42
1070.428,195.688,-206.18
732.732,236.192,-198.616
802.76,303.536,-154.452
1089.704,383.812,-180.072
1395.68,438.956,-212.524
1046.272,386.008,14.152
689.544,341.6,240.096
657.58,438.956,243.512
784.704,577.792,47.092
992.348,756.4,-232.532
945.744,774.212,-326.472
472.628,592.676,-55.144
176.412,773.236,-40.016
-66.612,986.004,-65.88
-381.128,1052.86,-66.124
-341.6,1051.396,-130.54
-52.948,994.056,-135.664
39.772,883.28,5.612
-315.004,746.64,265.96
-351.116,867.42,149.816
-423.584,863.76,44.164
-413.58,875.228,-34.404
-480.924,857.172,6.588
-530.456,821.792,71.004
-548.268,772.016,106.872
-537.044,760.304,87.108
-520.696,756.4,76.86
-486.048,780.556,42.212
-475.556,776.164,77.348
-478.972,759.328,113.948
-473.36,769.82,117.608
-453.108,799.588,78.08
-386.008,852.048,16.592
-331.84,868.396,21.716
-374.052,860.588,73.444
-392.352,869.86,85.4
-355.996,920.856,46.848
-374.784,949.892,35.624
-354.776,959.164,42.7
-349.408,960.872,55.632
-343.796,950.624,76.128
-339.648,943.304,92.964
-335.5,970.144,71.736
-299.632,984.296,46.848
-314.76,972.096,59.78
-339.16,953.552,62.708
-372.344,943.792,54.412
-457.256,909.144,83.204
-327.936,955.504,-6.344
-257.176,1000.156,-73.444
-256.688,1001.376,-70.516
-302.316,965.02,0.0
-335.012,961.116,19.764
-323.788,991.128,-28.548
-244.976,1050.42,-127.612
-281.82,1048.468,-119.316
-307.684,1020.896,-80.276
-329.156,1015.528,-77.836
-344.772,1016.992,-86.62
-362.584,995.52,-49.288
-300.852,977.952,-26.352
-242.048,984.54,-45.14
-248.88,1002.108,-61.0
-275.232,1012.6,-61.0
-335.012,1016.016,-67.832
-373.076,1018.944,-95.404
-334.036,1001.376,-115.656
-294.264,978.928,-106.14
-282.796,976.488,-113.216
-294.02,962.092,-104.676
-321.836,940.62,-82.472
-353.8,925.004,-82.96
-392.596,924.028,-96.868
-354.288,984.54,-167.384
-386.008,1063.352,-271.084
-373.564,1080.676,-309.392
-374.784,1038.22,-228.384
-373.564,981.124,-138.104
-369.904,957.7,-97.844
-324.276,974.292,-129.808
-307.928,987.468,-134.444
-358.68,971.364,-98.82
-370.392,952.332,-76.128
-343.308,947.452,-65.392
-328.18,944.28,-40.748
-288.896,950.868,-40.016
-266.204,966.972,-52.948
-260.104,966.24,-38.552
-306.708,946.232,-5.124
-348.432,922.564,24.644
-337.208,892.308,48.556
-320.86,874.984,53.192
-291.58,910.608,-24.644
-316.224,917.928,-46.116
-359.168,919.636,-52.216
-362.828,914.268,-63.196
-327.448,887.428,-50.264
-302.316,850.096,24.4
-309.636,804.224,90.524
-318.908,814.472,93.452
-351.116,842.288,69.052
-381.128,827.16,91.744
-332.572,817.4,95.404
-294.752,826.184,79.788
-348.432,816.424,83.204
-380.64,807.396,79.3
-396.744,784.216,103.7
-432.124,777.872,121.756
-383.812,785.68,83.692
-353.068,815.204,68.808
-407.236,814.472,90.524
-418.46,817.4,86.62
-418.216,843.996,74.176
-410.164,878.644,32.696
-400.648,911.34,-1.708
-398.452,911.34,10.492
-428.464,890.112,56.852
-439.2,880.596,55.144
-434.808,899.14,22.936
-471.408,889.624,44.164
-489.708,874.252,60.024
-414.068,876.204,19.032
-423.828,880.596,7.564
-532.652,848.632,43.92
-630.984,813.496,59.536
-661.24,831.552,-4.88
-629.032,887.184,-89.06
-767.136,880.84,-72.224
-1124.596,783.484,-21.716
-1527.928,642.452,-58.072
-1959.076,590.968,0.976
-1676.28,269.62,-100.04
402.844,-366.488,-431.636
249.612,-136.64,115.656
1255.136,-631.228,552.66
2989.0,286.212,-488.488
1437.16,-24.644,313.052
1283.196,254.736,-101.748
1326.628,410.164,-113.216
1084.824,467.748,-154.452
1188.524,430.416,-66.612
1053.592,396.744,-31.964
1070.184,387.716,-8.296
1149.728,397.964,47.58
1072.38,382.836,83.448
1132.648,295.972,225.7
1154.608,202.276,384.3
1154.852,150.548,484.34
1161.44,125.66,539.972
1102.636,133.956,498.492
1000.888,156.16,447.984
774.7,179.096,471.164
551.928,227.408,440.908
452.132,231.312,364.048
386.984,205.448,256.444
505.324,168.36,63.684
733.708,226.188,-280.844
779.58,305.976,-499.224
541.192,283.528,-516.792
465.552,171.776,-524.112
720.288,153.72,-692.716
861.564,177.144,-878.4
725.9,178.608,-955.504
664.656,189.588,-1088.484
689.544,172.02,-1092.876
571.448,103.944,-997.96
589.748,15.128,-998.692
810.568,-16.104,-1124.108
912.56,9.516,-1182.18
846.192,22.448,-1096.536
778.848,-61.488,-939.156
847.9,-108.092,-904.264
991.372,-110.044,-903.776
957.7,-85.156,-899.628
955.992,-87.108,-888.892
971.608,-154.452,-803.248
930.372,-199.836,-671.732
884.256,-198.86,-593.408
829.112,-253.516,-449.204
808.372,-283.284,-307.928
862.296,-297.436,-151.28
895.236,-308.172,-4.88
899.14,-321.104,92.476
902.312,-303.78,170.556
969.9,-301.34,311.344
958.432,-308.904,416.02
1018.7,-316.468,419.436
1182.424,-299.144,328.18
1326.14,-308.66,294.264
1343.464,-304.024,284.992
1276.12,-303.048,274.012
1332.484,-302.072,245.952
1399.828,-283.772,170.8
1371.768,-242.78,100.04
1283.44,-207.156,15.128
1296.128,-168.848,-63.684
1277.584,-177.632,-40.26
1294.176,-222.528,-50.02
1283.196,-298.412,-41.968
1204.14,-302.56,-133.956
1262.456,-289.384,-151.036
1362.008,-287.432,-252.54
1508.896,-299.388,-323.544
1545.74,-389.668,-340.136
1194.624,-469.944,-424.072
1182.912,-358.192,-454.084
1415.932,-329.156,-517.524
1370.792,-293.532,-600.972
1241.472,-255.956,-586.576
880.596,-170.068,-700.28
656.116,-38.064,-622.932
788.12,-16.104,-466.04
885.72,125.904,-580.476
1052.616,210.084,-562.42
1069.94,282.796,-511.424
831.552,271.328,-396.5
633.668,352.092,-317.688
939.156,509.228,-420.168
1294.42,608.536,-504.348
1015.772,465.796,-295.24
538.752,364.292,17.324
520.208,607.316,-97.6
423.584,799.1,-185.684
121.512,791.048,-45.628
-365.756,702.964,302.316
-540.216,758.84,362.584
-584.136,898.896,207.644
-590.968,973.804,32.696
-492.148,926.224,-40.26
-374.54,809.592,12.2
-239.852,754.448,49.288
-299.144,733.708,113.704
-488.976,749.324,148.596
-612.928,763.232,155.184
-451.156,799.344,80.764
-107.604,882.792,-112.24
-128.1,916.464,-101.26
-206.912,954.04,-38.552
-282.796,980.148,18.3
-335.988,970.388,57.584
-327.204,986.248,50.996
-260.348,1004.06,-15.372
-169.092,1039.44,-83.936
-137.372,1046.76,-95.16
-221.308,1013.088,-23.668
-291.824,972.34,19.032
-298.168,979.172,-6.588
-280.6,997.716,-48.556
-230.336,1000.156,-71.492
-200.812,994.544,-58.56
-251.564,964.532,-14.396
-275.476,956.236,6.832
-245.22,956.48,6.1
-213.012,967.704,-21.472
-172.508,980.392,-38.308
-197.64,975.512,-9.272
-180.316,972.584,1.952
-177.144,983.076,-11.712
-167.14,994.544,-23.18
-210.572,1002.84,-24.888
-197.884,1039.684,-56.852
-171.288,1054.08,-67.344
-154.94,1056.52,-53.436
-159.82,1056.764,-50.508
-136.64,1075.308,-48.312
-159.088,1108.248,-38.064
-156.892,1057.008,-30.256
-173.972,1056.276,-43.432
-208.864,1037.244,-64.172
-287.92,1017.236,-70.516
-348.676,996.984,-76.372
-408.212,1002.108,-91.5
-374.052,1012.844,-124.928
-313.54,997.472,-141.52
-287.188,977.708,-116.876
-332.084,945.256,-56.12
-340.624,943.304,-42.944
-329.4,958.188,-72.224
-314.272,994.056,-133.956
-257.42,987.956,-178.608
-235.948,993.568,-165.676
-270.596,976.244,-133.956
-330.62,965.508,-97.112
-302.072,989.176,-129.32
-280.112,975.512,-134.444
-256.688,955.748,-118.828
-240.34,939.4,-105.408
-247.172,939.156,-87.352
-251.32,944.524,-75.64
-238.388,971.852,-102.968
-189.832,991.616,-119.804
-181.048,1005.524,-80.764
-170.556,1016.016,-50.508
-190.076,1019.432,-17.324
-261.568,976.244,53.436
-274.5,948.916,71.492
-197.152,963.312,-6.832
-133.712,980.392,-72.712
-126.392,970.632,-101.748
-174.948,947.94,-77.836
-274.012,921.344,-20.496
-320.616,889.868,21.472
-294.996,882.304,-6.832
-210.572,898.652,-79.3
-199.104,894.992,-99.064
-305.244,868.152,-57.096
-314.272,863.272,-49.044
-306.464,862.54,-52.948
-336.476,854.244,-61.976
-296.704,860.344,-96.624
-312.32,858.636,-100.528
-347.7,844.484,-67.588
-361.852,842.044,-61.0
-406.504,834.968,-69.052
-433.344,873.52,-93.208
-371.612,863.272,-122.488
-358.924,888.892,-130.784
-367.464,922.076,-123.952
-383.324,887.184,-63.196
-428.708,897.92,-42.212
-439.2,928.664,-93.94
-359.656,966.972,-182.512
-398.208,1004.06,-247.904
-758.108,1011.868,-266.936
-1020.408,1139.48,-279.868
-1201.944,1091.9,-295.972
-1483.52,1031.388,-140.3
-1097.512,526.064,-8.052
238.144,-24.4,-162.26
1259.772,-44.652,145.668
1562.088,162.016,405.528
1513.776,697.352,-140.544
766.404,711.26,-109.8
849.852,428.464,119.804
745.908,245.952,284.748
941.108,271.816,109.8
1197.796,424.804,-226.188
1135.82,365.512,-188.124
1038.952,212.036,-24.4
1005.768,163.48,97.6
819.596,252.052,82.716
775.188,351.116,-23.18
737.368,411.628,5.612
862.296,454.084,23.18
924.516,392.108,177.632
851.804,379.176,313.296
941.352,487.756,313.784
1075.796,514.84,377.224
1012.356,396.012,589.992
901.336,169.336,825.696
998.204,64.66,956.968
1046.028,60.756,912.56
1045.296,83.692,803.736
959.652,72.712,720.044
911.584,-1.22,631.716
988.932,-59.292,523.868
916.708,-5.612,318.176
730.78,75.396,174.216
441.884,51.972,72.956
562.176,21.228,-110.044
579.012,98.088,-357.216
395.768,85.888,-425.048
472.384,-10.248,-629.032
790.804,-15.616,-854.0
794.22,24.156,-996.252
645.38,5.856,-1007.232
601.216,-79.3,-1073.356
856.684,-64.66,-1238.3
995.032,20.74,-1441.552
1076.772,54.656,-1555.988
1068.232,73.444,-1585.512
1017.48,63.44,-1497.428
924.76,1.22,-1260.26
820.816,-90.524,-1022.116
785.924,-121.756,-904.752
821.792,-142.252,-779.336
813.74,-205.204,-592.676
881.572,-260.348,-376.248
924.516,-333.548,-115.168
914.268,-317.2,22.936
1005.524,-263.764,94.672
1052.616,-200.812,168.116
1107.272,-179.34,344.284
1044.076,-224.724,640.988
962.336,-243.512,804.468
1035.536,-213.744,739.076
1132.404,-154.208,609.756
1203.408,-93.94,503.616
1177.544,-124.684,485.316
1215.852,-237.168,493.124
1309.792,-268.644,391.62
1235.372,-166.652,291.824
1126.792,-128.344,250.344
1128.012,-169.824,203.252
1394.216,-244.976,87.596
1418.128,-265.716,-42.944
1215.852,-271.572,1.708
1305.644,-303.292,5.612
1540.372,-257.908,-229.848
1561.844,-222.04,-352.824
1595.76,-223.992,-326.472
1498.16,-262.056,-279.624
1325.408,-241.56,-373.076
1329.068,-154.94,-442.372
1396.168,-44.164,-570.472
1362.984,-51.728,-546.072
1311.256,-94.184,-495.32
1230.492,-41.48,-456.28
1160.464,-54.168,-293.532
1121.912,-41.724,-206.668
1058.228,34.648,-221.308
1140.212,56.12,-153.476
1051.152,58.316,-145.668
1097.024,91.744,-127.856
1056.52,120.536,-97.356
1007.72,168.848,-98.82
1037.244,215.94,-46.604
1165.344,222.284,12.444
1353.468,301.584,23.18
1587.22,361.608,-36.356
1483.276,252.784,-85.888
1147.776,19.276,215.452
804.468,55.876,403.576
620.736,174.216,381.128
405.528,328.18,292.556
-116.876,423.34,371.368
-772.748,560.712,437.98
-1071.404,724.192,302.804
-742.004,862.296,141.276
-426.512,938.18,-0.732
-389.424,871.08,65.636
-412.116,740.54,232.776
-483.608,666.608,309.392
-479.704,790.072,186.904
-352.092,888.404,-7.076
-315.248,926.956,-63.44
-357.216,877.912,12.932
-413.824,843.996,125.904
-336.476,863.028,149.328
-318.176,864.492,132.736
-283.284,914.512,70.76
-330.376,925.004,65.148
-314.76,938.424,54.9
-274.5,921.832,81.252
-268.156,894.748,120.78
-291.092,931.104,106.872
-284.992,936.472,73.688
-228.384,989.664,1.708
-242.536,975.024,10.004
-275.964,974.536,24.888
-283.04,957.456,46.36
-325.008,940.376,56.608
-297.924,959.896,30.744
-236.924,982.832,-14.64
-203.252,999.668,-45.14
-218.624,994.056,-3.172
-292.312,939.888,66.124
-288.164,957.212,56.608
-244.0,970.876,12.2
-253.272,985.76,-12.2
-217.892,996.74,-33.428
-243.512,987.956,-14.152
-247.904,993.568,-17.08
-248.88,1010.404,-35.868
-243.512,1010.16,-40.26
-257.176,1014.796,-57.096
-232.288,1026.508,-63.44
-266.692,1012.844,-8.54
-339.892,1007.476,-4.392
-355.996,1021.384,-52.216
-363.072,1064.572,-117.364
-320.616,1090.924,-179.34
-287.188,1075.552,-172.264
-267.18,1022.116,-112.972
-272.304,982.832,-61.488
-287.188,968.68,-63.44
-256.932,992.104,-119.56
-259.616,975.268,-149.572
-246.196,957.212,-160.308
-272.548,938.424,-158.356
-311.1,935.252,-137.128
-323.544,946.72,-122.488
-321.104,972.34,-136.64
-387.228,1015.528,-164.456
-386.252,1041.636,-143.228
-366.0,1052.372,-93.696
-344.04,1037.0,-21.96
-293.532,1027.972,14.64
-256.444,1025.288,15.616
-243.512,998.448,12.2
-256.932,987.956,-21.228
-316.956,952.088,-32.452
-392.84,892.308,23.424
-410.408,851.56,25.864
-343.796,857.904,-36.356
-306.464,847.168,-58.316
-323.788,795.44,17.324
-336.72,740.54,90.28
-341.6,756.644,84.668
-361.12,817.888,22.448
-371.124,865.224,2.928
-403.088,886.452,31.476
-404.552,884.744,86.864
-392.596,910.852,109.068
-332.816,961.36,71.736
-324.52,981.124,61.488
-374.784,946.72,111.02
-398.94,910.852,155.916
-379.664,895.968,171.532
-344.528,907.192,154.452
-322.812,899.628,150.06
-302.316,901.092,122.488
-318.664,887.672,101.504
-387.716,841.556,135.176
-461.892,815.692,156.16
-473.604,821.06,79.788
-484.34,837.652,29.524
-537.532,823.256,39.284
-515.328,824.964,26.596
-544.12,808.372,18.788
-584.38,794.22,6.832
-636.596,775.432,3.66
-641.72,786.9,-66.124
-831.064,803.004,-79.3
-1080.676,803.004,9.76
-1295.396,752.496,107.116
-1763.632,570.96,94.672
-2816.004,564.616,75.396
-2321.172,-237.168,-160.308
1148.508,-1419.348,-393.084
3246.664,-316.224,674.904
1518.168,938.424,-610.976
793.488,658.312,-432.368
1140.7,86.864,352.58
959.896,40.016,416.508
1431.304,113.704,51.484
1487.424,375.272,-366.976
1145.824,312.32,-158.6
963.8,179.584,145.18
729.804,228.872,124.684
722.728,281.332,78.08
860.344,224.724,240.096
914.268,157.136,375.272
851.56,81.984,573.4
860.588,-59.292,837.896
1024.312,-202.52,1041.392
934.52,-226.92,1164.612
860.588,-216.428,1080.676
1006.012,-172.508,815.448
1099.952,-144.936,478.728
998.692,-166.164,290.604
667.584,-139.568,181.292
520.208,-77.592,-36.6
660.264,-91.012,-256.2
626.836,-111.752,-479.948
513.376,-95.404,-652.944
607.316,-78.568,-845.704
581.208,-52.216,-1013.576
620.98,-21.716,-1031.876
522.404,-210.328,-979.172
743.468,-266.448,-1130.208
808.616,-173.484,-1322.48
724.436,-26.84,-1417.152
760.548,-38.308,-1421.788
825.208,-117.608,-1457.656
855.464,-72.468,-1429.352
874.252,-9.516,-1421.544
866.2,-55.876,-1271.484
822.768,-199.592,-968.192
809.836,-309.88,-571.936
704.184,-425.292,-157.868
749.324,-457.256,18.056
970.144,-431.636,46.36
1157.292,-376.492,115.168
1176.812,-375.272,279.624
1154.12,-425.292,478.728
1105.564,-394.548,694.424
1080.676,-260.104,764.94
1110.932,-165.188,683.688
1153.632,-184.464,622.932
1156.56,-249.124,622.444
1221.952,-284.992,619.76
1161.196,-268.888,556.32
1195.112,-218.136,400.648
1278.316,-257.176,242.78
1268.556,-337.208,178.608
1338.096,-364.536,102.968
1461.804,-336.964,-12.688
1487.912,-378.2,-82.472
1297.348,-490.928,-93.696
1208.288,-444.324,-130.052
1375.428,-377.468,-225.212
1343.464,-368.196,-328.424
1165.1,-402.844,-361.608
1150.46,-394.792,-282.064
1195.6,-371.368,-241.804
1116.544,-331.352,-304.756
1418.128,-245.952,-457.5
1468.88,-199.104,-511.668
1374.94,-278.648,-396.744
1339.072,-167.14,-365.756
1271.728,-89.06,-372.832
1257.576,-31.232,-356.484
1498.648,40.748,-369.416
1468.148,22.204,-193.736
1061.888,-67.588,-75.884
449.204,112.972,-162.016
711.016,349.652,-239.608
862.296,366.976,-136.396
1113.616,357.704,-62.464
1104.588,260.348,39.04
652.212,187.636,165.92
478.24,354.044,73.2
524.844,493.368,-167.384
532.164,479.948,-228.872
67.344,399.916,166.896
-382.592,537.776,447.984
-784.216,699.548,408.212
-1010.648,848.144,230.336
-845.216,979.416,-44.652
-563.64,1018.7,-162.504
-412.848,1013.332,-60.024
-386.74,937.936,70.516
-433.1,952.332,107.848
-541.68,976.488,62.22
-517.768,998.692,-42.212
-599.508,980.392,7.32
-548.512,950.624,0.732
-558.028,867.908,60.024
-512.156,830.332,64.904
-458.964,810.812,55.632
-480.68,803.004,95.648
-445.056,807.884,100.528
-356.484,805.688,83.936
-393.572,791.292,101.26
-433.588,793.488,117.852
-400.16,835.212,81.984
-406.26,869.616,50.508
-420.412,866.932,58.56
-424.804,885.232,48.8
-427.488,892.308,34.892
-452.376,891.82,36.112
-427.488,901.092,-10.004
-459.452,894.26,-25.132
-445.3,908.9,-21.96
-424.072,918.172,-24.644
-422.364,912.804,0.976
-420.9,909.144,19.52
-369.172,892.064,28.548
-332.572,882.304,34.892
-357.216,884.5,36.356
-402.6,914.512,16.348
-414.068,929.64,-5.368
-378.932,922.808,-10.248
-364.78,901.336,1.708
-379.42,917.44,0.488
-391.62,887.428,13.42
-464.088,879.376,31.232
-433.1,904.02,-10.492
-370.148,927.688,-51.24
-368.196,920.368,-39.772
-392.352,899.628,26.352
-382.592,893.04,67.588
-386.984,888.892,79.3
-376.248,915.244,18.3
-378.2,939.4,-51.24
-399.916,953.796,-71.004
-420.412,942.572,-60.756
-408.944,928.664,-45.384
-382.836,917.196,-38.308
-380.884,920.368,-46.116
-397.964,938.912,-62.464
-417.728,959.652,-58.316
-417.972,964.044,-38.308
-392.108,972.828,-52.216
-401.624,971.852,-42.7
-407.236,977.952,-31.964
-411.628,977.952,-35.136
-395.524,970.388,-54.9
-413.58,963.8,-60.756
-423.34,958.676,-47.336
-430.172,928.42,-24.4
-436.516,926.956,-21.472
-417.484,918.416,-42.944
-420.168,905.484,-42.7
-422.852,897.92,-53.192
-451.888,883.768,-55.876
-451.156,876.692,-62.22
-452.62,894.504,-83.448
-385.032,911.828,-110.532
-369.904,909.388,-110.288
-399.428,874.984,-68.564
-424.56,855.464,-45.384
-442.372,854.0,-50.752
-466.284,877.18,-89.304
-472.14,912.072,-149.572
-485.56,924.028,-156.648
-493.612,915.732,-126.88
-448.716,906.46,-105.896
-454.572,889.38,-77.348
-455.792,880.84,-82.228
-474.336,860.1,-64.904
-493.368,858.392,-65.392
-469.7,869.616,-97.844
-448.716,869.372,-98.332
-438.956,866.444,-77.836
-440.176,855.952,-50.752
-454.572,859.612,-35.868
-471.164,870.592,-41.968
-481.168,877.912,-49.776
-460.184,886.208,-75.884
-428.464,891.82,-70.516
-447.496,890.356,-48.312
-439.688,881.572,-31.72
-467.748,857.904,5.856
-441.396,842.044,6.588
-421.144,835.944,-6.1
-422.364,845.704,-30.988
-431.392,859.856,-54.656
-446.032,864.736,-89.06
-452.62,877.18,-95.892
-502.64,864.004,-66.856
-492.392,851.804,-55.876
-468.236,846.924,-61.976
-457.012,845.948,-57.096
-445.544,842.044,-30.012
-420.9,847.9,-26.352
-482.876,847.412,-62.952
-540.704,884.5,-147.376
-570.96,898.652,-167.384
-599.02,841.8,-75.396
-598.044,792.024,10.98
-515.328,791.78,-21.472
-444.324,808.86,-72.712
-456.28,791.78,-66.612
-528.504,762.988,-28.548
-557.54,784.216,-50.752
-567.056,811.788,-71.004
-575.352,828.136,-86.132
-545.096,828.624,-96.868
-517.28,792.024,-41.236
-508.252,754.448,19.276
-472.384,759.328,28.548
-447.496,808.128,-20.74
-451.156,857.172,-95.404
-461.648,872.788,-117.364
-497.76,845.46,-76.128
-524.6,833.748,-46.36
-498.004,844.24,-56.852
-461.16,854.0,-68.564
-470.188,856.196,-60.268
-483.12,840.824,-34.648
-515.084,822.768,-5.124
-522.648,830.088,-29.768
-516.548,842.044,-63.44
-541.436,843.508,-62.708
-525.82,834.236,-37.576
-510.204,827.404,-28.792
-504.348,829.112,-30.012
-533.14,827.404,-26.84
-554.612,827.404,-32.94
-547.78,847.9,-63.928
-601.704,820.572,-63.196
-661.728,836.92,-67.1
-722.728,830.088,-48.556
-961.848,798.368,1.952
-1190.476,953.308,-195.444
-1510.604,916.952,-294.752
-1530.124,770.308,-79.3
-796.172,-68.32,16.104
1312.964,-523.38,-422.364
1818.288,44.652,-21.228
1237.324,240.828,318.176
1376.16,705.648,-474.336
1010.404,588.528,-222.04
1059.204,432.612,-170.068
1067.5,310.124,-146.4
1015.284,264.008,-13.664
940.376,338.428,-65.392
952.332,342.088,-110.532
1018.7,343.552,-44.896
1085.312,363.072,16.104
936.228,317.932,217.404
807.884,311.832,453.596
823.988,404.308,552.66
936.716,431.88,628.3
1067.5,243.756,842.288
1050.664,16.104,1028.704
1170.224,-80.032,1053.592
1213.412,-136.64,987.468
1034.316,-162.748,784.704
763.476,-202.52,651.48
625.372,-246.928,449.936
564.128,-194.712,89.304
489.952,-79.056,-297.68
346.724,-64.416,-579.744
396.988,-86.376,-848.388
565.592,-68.808,-1035.78
567.056,-114.924,-1135.82
668.56,-115.412,-1235.372
741.516,-69.54,-1345.172
747.128,-58.316,-1378.356
639.524,-73.932,-1336.632
649.284,-151.768,-1244.4
761.28,-130.784,-1286.124
850.34,-88.328,-1341.024
840.336,-70.272,-1345.172
803.492,-117.364,-1244.4
773.48,-200.08,-1071.16
821.792,-258.396,-825.452
829.356,-305.732,-604.632
857.416,-368.196,-470.188
891.332,-439.444,-314.028
979.66,-426.756,-158.6
1068.232,-374.784,10.98
1126.792,-380.396,187.392
1146.556,-427.0,328.424
1139.724,-358.192,430.66
1168.76,-247.172,491.172
1155.584,-216.916,544.364
1190.476,-248.392,603.9
1184.62,-273.28,660.996
1123.864,-219.6,612.196
1193.648,-222.528,484.584
1388.848,-276.696,368.684
1449.604,-318.664,294.996
1354.2,-314.028,247.172
1276.852,-292.8,173.728
1420.812,-283.772,48.556
1716.052,-259.372,-204.472
1363.472,-311.588,-221.308
1176.568,-292.312,-49.532
1227.076,-317.932,-96.624
1339.804,-315.736,-275.964
1214.876,-309.636,-355.264
1312.476,-349.164,-287.676
1429.108,-312.32,-304.024
1527.44,-289.628,-348.188
1295.64,-278.16,-421.876
1348.588,-165.676,-424.072
1496.696,-101.26,-356.24
1788.032,-54.168,-263.52
1560.624,-294.996,-79.056
951.6,-23.912,-317.932
1072.868,214.72,-406.504
1530.856,191.296,-194.224
1537.444,169.824,-173.24
1279.78,118.34,-143.716
1171.444,49.776,-78.812
781.776,-150.792,220.576
352.336,158.6,82.96
-139.08,422.364,-5.368
-770.064,601.948,195.2
-1096.292,723.948,216.428
-984.296,841.556,-69.052
-479.46,911.584,-346.236
-338.672,781.776,-192.76
-457.012,734.44,33.672
-406.504,772.992,7.564
-520.94,719.556,53.192
-602.192,696.864,95.892
-528.504,767.624,11.224
-423.34,753.96,8.784
-433.344,719.556,95.404
-262.544,773.236,50.264
-295.24,838.872,0.976
-408.456,860.832,42.944
-424.072,858.148,70.028
-339.892,924.028,-9.028
-310.856,962.092,-43.92
-318.176,972.096,-46.848
-290.36,943.548,-17.08
-270.84,957.212,-24.888
-301.34,950.624,-4.392
-351.116,950.38,-0.732
-305.732,937.204,-18.056
-290.116,928.176,-26.352
-273.036,945.256,-43.432
-232.532,965.752,-65.636
-196.176,963.556,-64.416
-217.892,971.364,-47.824
-207.156,975.024,-47.824
-196.908,979.416,-66.612
-210.084,1025.776,-108.336
-250.832,1028.948,-121.024
-307.684,1037.488,-115.9
-353.068,1036.512,-111.752
-368.928,1028.46,-122.976
-335.988,1026.996,-174.948
-323.544,1046.516,-216.428
-349.408,1031.632,-191.54
-337.94,1013.576,-155.672
-330.864,990.64,-128.588
-312.32,984.784,-122.976
-267.668,982.1,-116.144
-225.212,990.884,-128.588
-208.62,1000.4,-142.496
-237.9,987.956,-122.976
-260.348,967.704,-109.8
-220.576,949.648,-109.312
-210.084,932.568,-102.968
-172.508,920.368,-107.848
-239.852,911.828,-104.676
-343.064,941.108,-145.18
-396.256,990.64,-165.188
-406.26,1034.804,-148.352
-314.272,1076.284,-144.204
-193.492,1087.264,-121.756
-104.676,1072.624,-81.252
-78.812,1023.336,-16.104
-108.092,989.664,22.692
-158.6,985.516,-17.568
-213.744,980.148,-68.32
-296.216,993.812,-111.752
-315.98,998.204,-152.256
-260.104,993.812,-169.824
-184.464,985.028,-135.664
-172.508,976.488,-82.96
-206.424,991.128,-74.176
-202.276,1028.46,-115.656
-272.792,1037.0,-132.248
-317.932,1026.752,-121.024
-271.572,975.268,-80.276
-227.408,916.464,10.248
-193.004,891.332,64.172
-190.808,882.792,79.788
-201.544,887.672,47.092
-248.88,884.744,16.836
-261.08,882.548,3.172
-295.24,874.008,6.588
-326.716,860.1,28.792
-336.476,847.9,43.188
-322.324,859.368,-22.204
-238.388,905.484,-137.372
-224.48,932.08,-180.804
-240.828,947.94,-164.7
-238.144,953.552,-136.884
-267.424,968.924,-120.292
-270.352,998.448,-119.804
-238.632,1002.84,-89.792
-178.608,1003.816,-71.004
-156.648,997.96,-37.088
-179.584,991.86,10.98
-185.44,994.056,20.984
-161.528,991.128,18.3
-171.532,975.268,16.592
-195.688,977.464,10.492
-213.256,960.384,18.788
-217.404,938.18,48.068
-204.472,931.348,51.972
-189.588,936.96,47.58
-181.536,948.428,25.376
-166.896,933.056,45.14
-178.852,931.104,60.756
-197.396,938.18,41.968
-227.164,919.392,63.928
-236.436,901.336,97.112
-197.64,900.604,88.572
-178.852,898.652,72.956
-195.2,889.38,83.204
-204.96,886.696,97.112
-189.344,913.536,52.216
-189.344,937.692,8.54
-223.26,948.428,8.54
-245.464,962.092,-14.152
-231.068,957.7,-26.84
-222.284,958.188,-37.088
-227.164,965.02,-53.924
-241.804,976.488,-80.276
-258.884,976.0,-87.352
-249.856,965.752,-65.148
-265.96,960.14,-48.556
-263.032,965.02,-61.0
-247.416,978.44,-91.012
-249.856,981.368,-99.308
-240.096,966.24,-79.056
-231.8,954.04,-40.748
-254.004,941.84,-2.928
-243.756,944.036,-13.176
-229.848,959.652,-40.504
-219.356,964.532,-58.316
-214.72,962.092,-61.0
-205.448,956.724,-52.948
-227.164,953.064,-27.084
-225.944,970.876,-39.284
-217.16,982.588,-72.468
-213.5,966.24,-58.804
-195.932,962.824,-45.872
-211.304,967.216,-42.456
-217.892,971.12,-53.924
-250.588,987.956,-60.024
-239.852,994.056,-84.18
-239.852,1001.132,-94.916
-270.84,997.472,-86.62
-428.952,1003.328,-86.864
-676.856,1037.244,-98.332
-944.768,1083.848,-215.696
-949.892,1052.86,-169.58
-366.244,707.356,88.328
-99.796,315.004,303.292
393.084,219.356,-3.904
1139.968,238.632,-66.124
1072.136,278.16,327.204
996.008,361.852,143.96
1146.312,478.484,-188.124
1484.74,549.732,-280.112
1345.904,532.652,-400.404
1084.824,335.744,-102.724
1077.504,277.916,-19.032
1131.916,267.18,14.64
1163.148,202.032,126.392
995.764,149.328,171.044
833.504,212.524,151.768
858.148,280.356,166.408
899.628,349.164,147.376
1061.156,331.596,170.8
1107.76,242.78,320.616
1048.956,243.756,407.48
1051.396,313.54,391.864
1133.868,328.668,377.712
1252.208,271.572,442.616
1256.112,121.268,633.18
1047.736,29.768,787.876
894.26,41.724,751.276
859.124,66.856,639.768
815.692,70.272,551.684
660.996,86.62,484.096
538.02,31.964,379.908
591.7,82.96,130.296
510.936,139.324,-104.676
451.156,164.212,-275.72
518.988,131.272,-476.532
645.38,109.8,-662.216
727.12,72.956,-794.708
791.048,47.824,-843.996
828.38,36.6,-853.268
797.148,19.764,-850.34
813.496,-14.884,-875.716
918.66,-41.968,-977.22
996.252,-61.976,-1050.42
954.04,-50.508,-1041.148
872.056,-59.536,-990.64
935.252,-91.744,-987.224
947.94,-96.868,-972.584
868.396,-69.296,-948.672
849.364,-51.972,-888.404
925.004,-91.744,-760.548
926.224,-194.224,-502.152
834.724,-246.196,-279.136
844.728,-203.252,-187.636
916.464,-154.94,-166.652
968.68,-143.96,-134.688
1032.608,-127.612,-68.808
1065.792,-112.972,-8.784
1069.94,-110.532,82.472
1078.724,-101.26,175.68
1132.404,-105.408,214.232
1155.096,-161.284,311.832
1182.668,-182.268,359.412
1176.324,-156.648,346.236
1102.148,-123.708,331.108
1094.34,-103.456,314.272
1147.044,-111.264,295.24
1216.34,-135.42,307.44
1252.208,-157.868,303.78
1241.716,-169.336,317.932
1249.524,-199.592,366.0
1263.432,-267.424,359.656
1323.212,-238.144,316.956
1405.44,-209.84,193.492
1486.448,-182.756,60.024
1502.552,-184.952,32.452
1440.82,-240.828,107.848
1338.34,-355.02,19.764
1298.568,-309.636,-106.14
1433.988,-271.816,-206.18
1372.744,-203.252,-386.252
1360.544,-143.472,-431.88
1269.044,-146.156,-400.404
1252.94,-146.4,-394.304
1380.308,-132.736,-402.844
1481.324,-38.064,-465.064
1227.808,-14.64,-395.28
1042.368,9.272,-309.88
1162.416,137.128,-348.188
1363.472,233.996,-415.532
1026.508,108.336,-194.468
529.48,179.34,-67.1
222.528,422.364,-64.904
468.48,693.936,-281.332
406.748,762.5,-256.932
143.716,736.88,-18.788
-99.796,843.508,72.468
-236.436,896.944,87.84
-235.704,890.6,80.52
-134.932,927.444,-8.052
-157.624,921.1,-21.228
-199.836,926.712,-18.056
-370.392,899.384,31.964
-406.016,908.168,5.612
-380.884,901.824,-5.124
-432.124,864.004,4.636
-472.628,840.336,-4.88
-576.084,787.876,32.208
-616.588,756.156,63.196
-448.228,781.288,-8.784
-326.228,827.648,-83.692
-414.312,818.62,-9.76
-505.812,789.096,86.132
-535.092,775.432,121.024
-429.684,819.352,55.876
-318.664,915.488,-33.672
-296.216,928.664,-48.556
-328.912,934.276,-5.856
-308.904,960.14,-22.936
-318.176,981.612,-24.156
-371.124,954.772,21.716
-360.632,947.208,33.428
-316.468,933.788,30.5
-263.52,922.564,19.52
-253.516,900.848,34.648
-264.252,879.376,53.436
-261.08,904.996,20.74
-300.608,920.124,-1.952
-323.788,936.228,-13.908
-287.92,944.768,-33.672
-263.032,959.652,-70.272
-280.844,996.008,-107.116
-268.156,1030.9,-134.688
-311.1,1017.48,-107.36
-328.668,1007.72,-94.184
-287.432,1015.772,-107.36
-268.644,1025.044,-120.536
-258.64,1033.828,-125.904
-287.676,1015.04,-102.48
-300.608,1000.888,-98.332
-278.16,1046.76,-131.516
-252.296,1032.608,-126.148
-254.248,1007.476,-90.28
-241.316,986.492,-61.0
-235.46,979.904,-61.976
-217.892,976.488,-52.46
-196.176,985.76,-51.728
-184.22,1004.06,-68.808
-205.204,1005.036,-72.712
-215.94,977.708,-53.68
-197.396,960.384,-35.136
-196.176,932.812,-7.808
-206.912,912.56,14.396
-212.768,926.712,15.86
-218.136,933.056,15.616
-260.592,945.5,17.568
-297.436,952.332,0.976
-296.216,1049.2,-81.252
-231.556,1037.732,-107.848
-227.408,1037.244,-76.616
-255.468,1029.68,-35.38
-254.004,1038.708,-23.668
-232.044,1040.904,-19.276
-221.552,1032.608,-23.424
-211.06,1028.704,-30.256
-221.064,1019.432,-18.788
-241.316,981.368,24.644
-250.1,939.644,56.608
-211.06,937.204,23.424
-142.496,960.14,-24.156
-166.164,963.556,-13.664
-222.284,969.168,6.344
-243.756,962.824,22.692
-251.076,954.04,47.092
-201.056,949.16,54.9
-165.432,950.136,61.732
-182.024,955.26,60.268
-203.008,952.576,64.66
-253.516,937.204,71.736
-267.18,931.836,62.952
-212.768,932.324,27.572
-185.928,938.424,2.44
-178.12,933.788,8.54
-177.876,927.2,38.796
-198.372,910.852,86.864
-228.14,899.14,123.708
-196.664,909.876,111.752
-138.348,931.104,62.22
-151.524,942.328,67.1
-216.184,939.156,113.948
-206.912,952.82,111.752
-184.952,965.264,92.476
-224.724,975.512,82.472
-234.972,1008.452,33.428
-225.456,1019.188,0.976
-257.908,1004.792,34.16
-279.38,1002.108,44.652
-236.192,1007.72,19.52
-196.42,1018.212,-16.592
-175.924,1001.132,-22.448
-214.964,970.388,22.204
-274.5,945.988,50.996
-283.284,950.868,34.892
-282.796,956.724,8.296
-239.852,934.032,5.368
-176.168,915.244,10.736
-193.248,923.052,-8.784
-239.608,913.048,-21.228
-217.648,894.26,-15.372
-216.428,887.672,2.928
-231.068,881.328,26.108
-215.208,869.128,51.484
-193.98,877.18,43.188
-203.252,898.652,20.252
-253.516,912.56,14.884
-316.712,926.224,0.244
-331.108,955.504,-32.452
-336.476,963.556,-25.132
-341.844,926.712,58.56
-306.464,901.336,141.276
-240.34,950.624,101.26
-214.964,1001.376,43.676
-200.568,1002.108,65.636
-195.444,995.276,99.308
-186.66,1008.452,77.104
-150.792,1042.612,6.344
-167.14,1058.228,-15.372
-222.772,1048.956,-20.252
-245.22,1021.872,-8.296
-255.712,992.104,14.884
-267.18,969.412,39.772
-261.08,963.8,32.94
-267.18,958.676,21.96
-280.112,950.624,24.156
-283.528,939.4,33.672
-279.136,955.504,5.612
-293.532,968.68,-40.504
-239.364,983.808,-83.204
-234.484,1004.06,-114.436
-351.36,998.448,-72.468
-433.1,954.284,-21.716
-462.38,949.648,-18.056
-430.66,978.928,-83.936
-458.232,1015.772,-141.764
-507.52,975.512,-152.5
-724.924,908.9,-110.044
-1044.076,944.768,-146.888
-1563.552,987.712,-96.624
-1382.748,570.716,102.968
-1142.652,-373.32,106.628
822.768,-1000.644,81.74
2869.196,-862.54,803.248
2563.22,502.884,3.172
880.108,697.108,-338.672
822.036,396.012,245.708
1150.216,318.908,203.496
1126.548,126.148,422.12
1110.444,205.448,376.248
1278.072,368.928,147.132
1094.096,434.076,137.372
983.32,309.88,325.496
915.0,280.112,431.88
890.112,348.92,446.032
852.048,409.92,489.708
881.816,441.152,545.828
948.184,386.252,627.08
985.76,267.912,756.644
916.464,239.852,777.384
856.196,258.884,746.396
865.468,273.036,674.416
864.492,193.736,700.28
728.096,149.084,638.792
584.624,168.848,541.192
428.952,167.14,391.864
411.872,110.532,279.38
562.42,85.888,129.32
496.296,14.396,41.968
387.716,-70.516,-114.68
678.32,-8.296,-482.388
1012.6,98.088,-711.016
1016.748,222.284,-859.124
753.716,93.452,-850.584
914.512,18.544,-927.932
1038.952,55.876,-1088.728
954.528,26.108,-1051.152
903.288,-7.076,-1122.644
977.464,-32.452,-1161.44
1030.656,-29.524,-1141.676
951.6,-78.812,-1019.92
830.332,-79.056,-941.352
880.596,-96.136,-880.352
909.632,-102.236,-786.656
994.056,-132.98,-625.86
965.264,-230.824,-404.308
932.812,-269.864,-267.912
1084.092,-238.632,-227.652
1291.492,-182.512,-199.592
1304.18,-153.964,-136.884
1202.432,-180.56,15.128
1115.08,-152.744,133.468
1038.22,-109.312,246.196
910.12,-57.584,349.652
878.644,-9.76,380.152
894.016,22.692,377.468
899.872,77.104,388.204
941.596,103.944,437.004
987.956,41.724,533.628
965.996,-33.428,609.024
966.728,-48.068,590.724
1052.372,-31.232,515.816
1215.12,-1.22,389.424
1334.924,-32.452,359.412
1279.536,-142.252,395.768
1203.896,-210.084,432.856
1388.116,-204.472,345.748
1533.052,-204.228,218.624
1485.716,-209.108,96.624
1390.8,-228.628,126.636
1341.756,-255.224,95.892
1380.308,-231.8,19.032
1393.728,-194.224,-122.244
1308.816,-189.588,-176.412
1329.312,-164.456,-152.988
1419.592,-101.016,-189.832
1374.94,-154.696,-263.764
1034.072,-94.184,-311.344
1314.184,-55.632,-125.904
1316.38,-12.2,-115.412
1427.888,73.932,-100.772
1213.168,84.912,-83.448
924.76,88.084,-56.12
980.148,241.804,-76.372
1070.916,305.488,-128.588
1095.316,371.368,-191.052
1059.448,370.88,-118.584
635.132,299.632,90.524
390.888,414.068,125.904
687.592,575.84,-49.288
812.276,651.724,-159.088
398.208,610.0,16.836
48.068,655.628,206.912
-48.556,815.448,122.976
24.888,947.208,-76.128
62.22,931.104,-66.124
-6.344,858.392,125.172
-21.716,884.988,156.16
-158.6,970.144,58.56
-373.564,969.168,44.896
-399.672,943.304,68.32
-152.256,958.432,37.576
25.864,975.268,-19.032
-108.336,947.452,77.348
-329.644,894.504,178.852
-524.112,907.192,186.66
-491.416,938.18,60.268
-215.94,982.1,-93.696
-40.016,1014.796,-135.664
-12.932,1007.72,-100.284
-96.136,959.164,43.188
-136.396,949.892,107.36
-152.012,997.472,64.172
-102.48,1017.236,18.056
-20.496,1024.556,-23.424
14.64,1022.36,-30.988
-46.604,1006.744,20.008
-87.108,984.296,75.396
-114.68,974.536,75.396
-110.532,991.616,23.912
-37.332,1026.996,-55.632
-67.588,1041.148,-71.004
-101.016,1022.848,-25.864
-89.304,1008.452,-11.224
-50.508,1023.092,-26.596
-7.564,1021.628,-47.092
-94.428,1031.388,-18.3
-146.156,1017.236,31.476
-165.188,992.104,62.464
-153.72,1032.364,-11.712
-13.176,1075.308,-124.684
-17.08,1101.66,-143.716
-89.304,1091.168,-70.272
-154.452,1085.8,-45.872
-136.396,1129.964,-127.856
-69.54,1129.476,-163.236
-86.864,1097.268,-108.336
-114.68,1091.412,-82.716
-124.44,1094.096,-46.36
-108.092,1088.728,0.488
-116.632,1091.656,-10.736
-94.672,1102.88,-84.18
-86.62,1119.472,-191.296
-143.716,1083.848,-198.86
-188.124,1011.136,-133.224
-203.496,969.9,-111.264
-170.556,978.44,-155.184
-173.484,980.392,-161.04
-186.416,944.524,-105.408
-210.816,910.608,-71.248
-213.988,891.088,-61.732
-206.424,896.944,-63.684
-231.556,925.98,-66.856
-214.964,945.5,-88.572
-189.832,944.768,-91.256
-235.948,907.192,4.148
-254.248,891.088,81.984
-234.484,880.108,92.476
-204.228,898.896,39.528
-237.412,921.1,-9.028
-275.232,917.684,-4.636
-315.98,890.844,46.116
-321.104,879.864,45.872
-281.82,906.948,-8.784
-249.612,914.512,-24.4
-278.404,886.94,39.284
-323.544,874.74,104.188
-327.936,889.624,117.608
-317.444,895.968,101.504
-284.26,921.588,46.36
-226.92,933.544,6.832
-252.296,920.856,58.56
-299.632,903.288,105.652
-305.976,893.772,115.9
-283.772,906.46,99.308
-211.06,910.364,64.172
-188.856,918.172,55.388
-216.916,929.64,64.172
-261.812,935.984,61.0
-285.968,929.396,65.392
-283.04,925.492,62.464
-252.54,923.296,52.948
-259.616,929.152,39.528
-299.388,935.74,11.468
-341.844,933.788,-25.864
-367.22,913.78,-29.036
-392.352,886.208,17.324
-370.636,886.696,-4.392
-328.424,913.536,-51.972
-327.204,919.392,-42.7
-336.232,910.364,12.444
-323.056,910.12,38.552
-316.468,910.364,63.44
-328.18,906.948,81.74
-333.792,917.196,59.048
-358.436,928.176,39.528
-378.2,943.304,9.272
-371.124,959.652,-38.796
-373.076,968.924,-72.468
-404.796,961.604,-53.436
-412.36,942.328,-18.3
-399.916,929.396,-0.488
-386.252,929.152,-14.396
-371.612,933.788,-36.356
-331.352,944.28,-73.444
-374.54,952.088,-71.248
-441.396,954.772,-72.712
-463.356,948.916,-57.096
-374.052,928.908,-70.028
-321.592,914.512,-30.256
-318.908,897.92,51.24
-301.584,901.58,80.764
-315.004,934.032,78.812
-351.36,932.568,93.696
-371.856,923.296,124.196
-382.592,921.344,152.744
-350.872,924.272,150.06
-571.936,920.368,104.676
-1219.268,950.136,-110.776
-1818.532,1173.152,-557.296
-1872.456,826.916,-307.44
-801.296,-406.992,125.904
1048.956,-1058.228,474.336
1935.164,-419.924,430.416
2525.888,782.02,-707.112
1507.188,614.636,-210.084
636.84,490.44,55.632
1086.288,546.316,-37.332
1032.12,499.468,49.532
1085.068,477.264,96.136
1165.344,424.56,158.356
1036.268,474.824,177.876
1048.224,456.28,281.576
1020.164,393.328,393.816
854.244,394.548,442.86
884.012,450.18,448.228
952.332,480.436,388.692
1004.548,428.952,383.568
1075.308,374.54,413.092
1001.62,254.004,556.32
800.564,141.032,738.1
720.532,141.764,633.912
788.608,212.28,394.304
745.176,274.5,217.892
537.776,223.992,204.228
379.908,114.436,118.096
527.284,100.284,-94.672
617.076,90.036,-270.108
481.9,46.848,-370.88
545.34,7.32,-621.956
650.992,38.552,-891.088
764.94,45.14,-1013.82
546.804,-48.8,-1004.792
586.576,18.544,-1301.74
679.052,126.88,-1575.264
680.516,205.204,-1725.812
632.692,164.944,-1661.884
541.924,115.656,-1556.476
530.944,80.764,-1478.396
574.376,67.832,-1362.74
606.584,-11.224,-1114.592
632.448,-150.06,-752.496
692.96,-179.096,-520.208
810.812,-171.044,-352.824
935.008,-217.16,-193.736
1057.74,-261.08,-30.5
1165.588,-198.616,145.912
1230.004,-162.504,313.052
1266.848,-182.268,440.664
1335.656,-123.22,527.284
1383.968,-52.948,612.928
1459.852,-58.56,650.748
1560.868,-108.336,667.584
1535.004,-123.952,577.304
1526.464,-39.528,385.52
1487.424,-2.928,213.988
1570.14,-31.72,77.348
1558.672,-101.748,-51.484
1610.156,-113.948,-210.816
1579.412,-104.188,-367.708
1438.38,-95.404,-448.96
1438.38,-109.312,-452.864
1366.156,-102.724,-488.0
1411.54,-94.428,-510.204
1210.24,-75.64,-697.352
1243.424,-6.1,-737.368
1277.096,69.052,-808.86
1202.676,134.688,-831.308
1111.176,163.968,-795.196
852.78,134.2,-547.78
921.344,198.372,-483.852
858.392,295.728,-508.984
961.116,410.164,-544.12
1392.508,393.572,-370.88
794.22,61.0,24.4
465.552,385.276,-311.1
795.928,702.232,-509.472
941.352,686.128,-391.864
943.304,606.34,-71.492
656.116,477.508,275.72
88.572,477.02,388.204
-420.412,650.748,245.952
-921.344,715.164,162.016
-875.716,818.376,20.496
-588.284,826.428,-11.712
-425.292,830.576,41.48
-321.104,852.78,14.64
-354.532,908.656,-53.924
-401.624,940.864,-75.884
-373.808,953.308,-63.684
-362.828,927.2,0.732
-282.552,905.24,31.72
-262.056,893.04,44.896
-337.208,872.056,14.64
-419.68,880.596,-12.932
-366.0,908.656,-73.2
-318.908,923.54,-99.552
-341.112,894.992,-65.392
-351.848,912.072,-69.784
-339.648,917.928,-69.296
-343.308,910.852,-58.316
-307.684,920.612,-66.856
-281.088,981.124,-96.38
-235.948,964.288,-87.352
-270.352,964.288,-32.208
-277.672,947.94,20.496
-280.844,951.112,4.148
-294.752,941.84,-28.792
-277.184,969.656,-73.688
-299.388,966.972,-54.412
-291.58,959.652,-34.404
-294.752,942.572,-12.2
-275.232,910.12,14.396
-250.588,910.12,3.904
-221.064,956.724,-52.46
-245.464,961.36,-55.144
-257.176,948.672,-30.256
-276.94,944.28,-22.936
-243.512,939.888,-23.668
-211.304,951.6,-30.256
-163.724,958.676,-34.892
-165.92,949.648,-13.176
-192.516,940.132,-0.244
-197.884,947.94,-15.86
-200.08,956.48,-30.012
-156.648,983.32,-55.876
-158.844,976.976,-40.26
-159.088,990.64,-41.968
-179.584,1011.136,-21.228
-169.824,1012.356,10.248
-155.184,995.276,27.084
-109.312,1005.28,0.732
-96.868,997.716,-13.42
-95.404,963.068,-14.64
-117.12,971.852,-2.44
-124.196,937.204,18.544
-112.972,946.232,4.392
-93.208,951.6,-10.736
-72.468,973.804,-37.82
-79.3,1000.888,-40.992
-129.076,989.664,-0.732
-122.976,965.264,10.98
-72.224,968.436,-27.816
-75.64,959.408,-14.884
-49.044,967.216,22.448
40.992,1018.456,16.348
99.308,1060.912,-16.592
113.216,1090.68,-25.62
96.624,1081.164,7.076
85.644,1042.368,52.216
98.82,1019.188,79.788
110.288,996.74,78.324
112.24,981.856,65.88
132.004,989.176,49.288
142.252,996.984,43.432
152.012,996.496,51.972
164.7,998.936,52.704
153.232,992.836,39.528
130.54,1006.012,10.492
98.82,1014.552,5.124
82.228,1002.108,25.376
104.432,962.092,36.6
156.16,973.56,-6.588
185.684,1005.524,-79.544
181.048,1041.392,-96.868
172.752,1044.32,-76.128
169.824,1036.756,-52.948
185.196,1026.02,-49.288
200.08,1022.848,-42.212
169.336,1021.14,-24.888
149.572,1024.068,-20.74
139.324,1026.508,-26.84
133.712,1021.628,-26.84
142.74,1009.428,-8.296
130.052,998.448,13.42
131.028,1000.156,6.832
161.772,1014.308,-11.956
172.264,1014.064,-8.296
173.728,1005.524,5.612
184.464,995.276,15.128
176.656,986.492,22.204
165.432,979.172,16.348
167.384,981.856,2.196
169.824,994.056,1.708
162.504,993.812,12.2
165.432,994.056,9.76
169.824,999.912,-2.928
152.744,982.1,1.708
168.848,980.636,-13.664
158.356,972.34,-12.688
152.5,975.512,-19.764
163.236,996.496,-39.528
177.388,1010.648,-53.924
203.008,1009.672,-67.832
200.08,1005.524,-62.708
207.156,1011.624,-70.76
213.744,1020.652,-75.884
205.204,1010.404,-77.348
182.512,997.228,-63.684
166.164,977.22,-46.36
