acc_x[mg],acc_y[mg],acc_z[mg]
-16.348,990.64,20.496
-16.348,990.152,19.52
-13.42,992.836,16.592
-13.42,996.008,9.272
-22.692,993.08,1.464
-24.888,994.544,-0.244
-17.812,993.324,-0.244
-9.516,995.032,1.952
-7.076,993.324,4.392
-12.444,992.592,7.808
-10.248,990.64,6.588
-12.444,987.468,4.148
-14.64,987.712,0.732
-21.228,986.736,-1.952
-18.3,989.176,-2.928
-12.2,991.372,-3.904
-14.396,987.224,-4.88
-14.64,988.444,-6.588
-12.688,988.688,-6.588
-10.248,991.128,-4.88
-5.368,991.616,-5.368
-10.004,987.224,-1.952
-9.76,986.736,3.172
-8.784,984.784,6.344
-11.956,985.028,5.612
-11.468,986.98,-3.416
-6.1,995.276,-8.052
-6.344,994.544,-12.444
-9.76,992.348,-12.932
-19.032,988.2,-8.296
-24.156,987.712,0.244
-26.108,985.028,10.98
-18.788,981.612,17.08
-19.032,982.588,13.664
-15.128,986.736,12.932
-9.272,993.324,9.028
-2.44,999.668,6.588
2.684,1001.132,8.052
3.904,999.912,6.588
-4.88,998.692,5.124
-8.296,997.472,3.172
-2.928,998.448,4.88
3.172,997.96,4.148
8.052,997.472,3.172
-0.732,991.616,4.392
-2.928,989.42,8.052
-7.564,983.076,7.808
-13.664,978.928,3.66
-13.42,978.928,0.244
-10.98,983.32,-1.952
-9.028,989.42,0.488
-0.488,991.616,3.172
7.808,995.032,10.492
10.98,995.032,14.884
9.76,995.032,14.396
3.904,996.252,9.516
-5.124,997.96,3.416
-5.612,997.472,2.196
-4.636,993.08,2.44
-3.416,988.932,4.148
-7.808,987.712,7.808
-11.956,987.468,10.492
-14.64,985.516,12.2
-8.54,985.516,16.104
1.708,987.712,18.788
6.1,990.884,18.3
5.368,988.444,19.52
3.66,991.372,16.836
-5.856,989.42,11.224
-14.64,990.396,4.148
-16.592,995.032,0.0
-8.052,1000.644,2.928
15.86,1002.108,6.588
18.544,997.472,8.54
8.296,994.544,7.564
-2.44,997.472,5.856
-17.812,999.424,1.952
-26.352,996.74,4.148
-30.5,986.98,12.688
-30.5,976.976,26.84
-26.596,965.02,40.992
-17.324,961.36,45.628
-8.052,964.288,39.528
8.052,977.708,28.548
18.788,994.788,11.468
18.3,1004.304,-0.488
9.76,1008.208,-6.1
0.0,1013.576,-2.928
-10.004,1017.968,5.368
-15.616,1022.848,15.372
-19.52,1029.68,29.524
-30.988,1040.172,47.092
-44.896,1052.616,54.9
-63.196,1060.668,57.096
-113.216,1064.572,56.852
-187.148,1066.524,56.12
-231.068,1061.888,31.476
-259.86,1012.356,25.62
-237.656,994.056,6.344
-235.216,985.516,17.08
-273.036,980.148,10.492
-302.316,959.652,10.736
-298.412,945.988,2.44
-245.952,941.596,-6.344
-162.748,925.98,-8.052
-59.78,925.004,17.568
70.76,917.196,33.916
141.276,875.716,67.1
101.016,823.744,50.996
74.908,778.36,48.8
150.06,719.068,41.48
252.296,665.876,74.176
410.408,634.156,109.556
579.012,613.66,142.008
650.26,589.748,162.26
600.972,544.852,193.98
660.02,517.036,187.636
697.596,494.832,152.012
693.448,474.336,139.812
724.436,429.44,119.56
720.532,360.388,115.656
707.844,325.496,87.84
734.44,293.044,66.368
710.04,271.816,60.024
740.296,256.932,22.204
751.032,169.092,-0.732
843.02,132.492,39.04
969.9,105.896,49.532
1018.456,93.696,69.784
1104.1,32.94,40.016
1162.416,5.368,70.028
1268.8,-27.328,94.672
1372.012,-62.708,139.568
1390.068,-111.508,219.356
1420.812,-156.404,302.072
1413.492,-209.352,386.008
1419.104,-234.972,428.464
1450.336,-256.932,450.424
1412.76,-232.288,473.848
1357.372,-201.544,506.788
1374.696,-204.472,524.112
1387.14,-221.796,543.632
1430.816,-221.796,537.044
1423.496,-219.112,548.024
1381.284,-208.864,572.424
1408.368,-200.08,583.16
1374.452,-211.548,630.252
1362.496,-213.744,656.848
1291.98,-215.452,695.644
1274.412,-192.272,702.476
1245.376,-167.14,696.62
1175.592,-116.876,659.044
1103.856,-85.156,635.62
1050.908,-32.208,582.672
982.588,4.392,553.88
958.432,46.116,497.272
914.024,65.88,447.984
898.164,89.06,414.8
809.348,136.884,354.532
735.66,161.04,282.064
614.148,230.336,202.032
589.748,303.048,146.644
512.4,358.192,81.496
413.092,398.452,35.868
318.908,446.032,-0.244
272.792,475.312,-17.08
266.936,507.276,-16.104
324.52,531.188,-15.616
393.816,559.736,-19.52
410.652,623.908,-4.392
450.668,678.076,-14.396
486.048,708.088,-21.96
568.032,748.104,-20.984
632.204,757.376,1.708
721.752,734.44,38.796
815.936,697.352,87.108
865.224,669.048,92.964
922.32,686.86,108.336
975.024,694.668,101.992
959.896,703.696,105.652
871.568,711.016,101.26
783.728,720.776,105.652
743.956,758.108,101.992
695.888,803.736,114.924
652.7,810.08,122.732
590.236,817.644,135.664
528.016,842.776,149.328
441.396,843.752,160.064
376.98,846.192,157.624
281.576,858.148,170.8
264.496,875.472,131.028
244.976,894.016,108.58
258.884,933.3,66.612
262.056,948.672,38.552
265.228,969.656,26.352
192.516,1000.644,27.816
135.42,1016.992,9.272
137.86,1000.644,-34.16
143.472,1005.768,-38.796
102.724,997.96,-37.576
46.604,987.468,-88.572
-5.612,985.76,-132.98
-66.124,969.412,-112.972
-102.236,971.608,-72.712
-112.972,994.3,-57.096
-137.372,1002.596,-41.968
-176.168,1022.604,-28.304
-209.596,1021.384,-33.428
-215.452,1025.532,-30.744
-191.296,1037.244,-0.244
-103.456,1061.4,21.96
-51.972,1044.32,28.06
-104.432,989.908,21.228
-186.416,945.012,12.688
-231.8,928.176,13.42
-249.856,933.056,30.256
-242.78,932.324,30.256
-228.872,937.448,19.764
-227.408,943.548,25.132
-218.38,936.716,26.84
-195.932,953.796,31.476
-162.26,984.052,44.408
-131.76,1000.888,52.948
-102.48,1001.376,41.48
-111.264,983.076,34.16
-136.64,976.976,33.672
-156.16,986.492,30.256
-165.676,991.128,14.152
-180.804,977.464,1.464
-176.168,974.292,1.952
-156.16,985.028,12.688
-142.74,985.516,31.964
-138.348,972.828,41.236
-157.868,952.82,52.704
-172.02,951.112,60.024
-180.56,952.332,61.244
-191.052,959.408,57.584
-186.172,969.168,54.168
-166.408,976.0,40.26
-144.692,978.44,34.16
-136.152,987.956,34.404
-129.564,989.176,30.988
-139.324,986.98,27.084
-164.212,970.876,22.204
-181.048,961.604,20.74
-175.68,963.8,24.156
-163.968,969.168,24.4
-160.796,972.828,20.74
-150.792,972.096,17.08
-139.812,976.488,10.492
-154.696,978.44,2.928
-173.484,984.784,2.44
-154.696,987.712,2.196
-150.548,975.024,2.44
-172.996,969.412,11.224
-180.072,969.9,21.472
-172.508,970.388,25.62
-171.044,972.096,16.592
-183.488,974.048,5.612
-172.02,978.928,-0.732
-148.108,984.54,-10.736
-159.576,974.536,-13.664
-183.732,966.484,-14.152
-185.196,965.508,-3.904
-168.116,978.684,14.396
-161.528,973.804,19.276
-174.216,964.776,13.42
-174.46,966.972,7.808
-160.552,975.756,5.856
-147.864,983.808,7.076
-146.4,984.052,-5.124
-167.872,978.44,-14.884
-184.464,973.804,-22.936
-184.22,968.192,-22.448
-162.016,974.048,-20.252
-143.228,975.268,-17.812
-148.84,965.02,-17.812
-159.332,959.652,-30.256
-187.636,960.384,-31.476
-197.152,967.704,-35.136
-191.784,975.268,-36.844
-179.828,968.924,-30.988
-171.776,961.604,-26.596
-173.24,963.312,-16.348
-170.068,974.78,-7.076
-168.116,973.804,-3.904
-180.56,966.484,-2.44
-181.78,964.776,-8.54
-179.828,976.488,-12.688
-184.22,981.368,-15.128
-181.292,988.2,-16.592
-179.34,990.884,-7.564
-167.14,990.64,-7.808
-175.436,985.272,-8.784
-197.152,977.22,-10.98
-205.692,972.584,-20.496
-212.036,973.56,-28.548
-216.428,969.656,-35.624
-219.112,956.724,-41.236
-203.74,947.452,-41.48
-198.128,939.156,-47.58
-213.744,935.74,-47.336
-225.7,941.108,-53.436
-222.04,946.964,-55.632
-206.424,956.724,-54.412
-205.448,966.972,-50.752
-217.648,975.512,-52.216
-247.172,985.76,-44.408
-269.864,1007.72,-38.552
-307.196,1027.484,-30.256
-336.72,1040.416,-26.352
-347.212,1042.856,-25.132
-392.352,1019.676,-35.38
-452.864,1004.548,-40.016
-434.564,981.612,-45.872
-419.924,955.504,-44.408
-395.036,937.448,-44.652
-302.804,914.268,-39.04
-262.788,895.968,-29.768
-235.46,856.196,-42.7
-206.912,840.58,-63.44
-175.192,820.328,-44.652
-135.664,767.38,-47.336
99.064,739.808,-4.148
268.644,696.62,10.248
307.196,644.16,30.5
361.852,620.248,64.66
354.044,574.864,76.372
414.556,547.048,143.472
777.14,498.492,152.256
1083.36,483.364,155.184
1290.272,489.464,144.692
1128.012,531.188,194.956
986.248,570.96,191.784
1045.54,573.644,151.28
1124.84,561.2,134.932
1084.58,561.932,141.764
954.528,542.168,149.084
842.532,543.632,131.028
770.552,543.876,113.704
654.408,541.68,86.376
598.776,526.552,80.032
508.74,472.628,37.82
479.704,429.196,50.752
511.668,364.292,70.028
486.292,319.884,93.94
560.468,262.056,103.944
646.6,209.596,99.064
738.344,187.88,56.852
789.096,177.876,62.464
886.452,150.548,74.908
984.296,88.328,63.44
953.064,16.836,110.776
999.912,-50.996,149.816
1214.144,-104.676,138.348
1282.464,-122.488,121.512
1251.72,-123.464,93.94
1212.68,-136.884,50.996
1287.344,-142.252,12.932
1397.388,-175.924,-4.148
1475.956,-223.26,10.492
1444.968,-273.28,46.36
1431.792,-341.6,107.848
1479.86,-377.956,142.74
1433.5,-365.268,163.48
1397.144,-358.924,166.652
1305.156,-340.136,181.78
1276.364,-350.872,197.396
1276.12,-367.22,252.296
1356.884,-426.024,328.18
1391.044,-480.192,412.848
1398.364,-497.272,482.144
1333.46,-484.096,549.244
1301.008,-430.66,568.276
1282.952,-372.588,551.196
1299.788,-316.224,529.48
1236.592,-268.888,508.984
1223.904,-217.404,476.044
1136.064,-176.656,453.84
1135.332,-124.44,416.264
1063.596,-77.836,402.112
1017.724,-17.812,349.408
939.644,29.28,333.304
984.784,46.604,292.312
970.144,62.952,264.496
911.584,118.34,238.632
845.216,164.212,219.112
798.368,196.664,196.664
737.856,228.628,166.408
743.712,293.044,153.476
731.512,329.4,127.124
666.364,368.44,105.408
574.376,382.348,69.784
451.888,472.628,51.728
406.016,505.324,5.856
408.7,546.316,-25.864
380.396,576.572,-41.236
393.572,610.244,-64.416
428.952,643.428,-72.712
485.56,681.492,-66.856
535.336,709.796,-52.46
528.992,738.588,-52.704
545.828,780.8,-42.944
580.476,793.732,-40.748
657.58,787.632,-15.86
691.74,777.384,38.064
730.536,725.9,72.224
785.68,705.892,102.48
815.448,692.96,122.976
860.588,707.356,141.52
906.948,703.94,129.076
848.144,691.984,125.172
824.232,709.308,140.056
831.308,717.36,132.492
847.9,739.076,115.412
812.276,752.008,123.464
734.196,768.844,134.932
618.052,810.812,162.26
539.728,820.328,172.508
525.82,835.456,172.752
509.472,844.972,185.684
421.876,857.172,179.828
368.44,859.856,165.432
325.984,875.96,149.816
274.012,894.504,141.764
219.356,904.264,136.64
173.728,926.712,115.168
140.3,941.596,87.108
145.424,968.436,64.172
126.636,981.612,63.928
86.376,984.784,74.664
76.372,985.272,75.64
88.572,962.824,68.076
122.732,950.136,55.388
106.628,946.964,39.284
24.888,934.032,29.524
-15.128,929.64,37.82
-27.816,950.38,45.384
-27.572,978.196,50.264
-43.676,1013.576,50.264
-81.496,1003.816,42.944
-117.364,1000.4,55.632
-122.488,991.86,60.756
-137.372,984.052,43.432
-202.764,968.436,14.152
-258.396,965.02,-5.856
-266.936,977.708,-7.32
-225.212,991.128,-4.392
-175.68,1001.376,4.148
-141.764,1001.62,3.416
-146.156,998.692,-6.344
-177.388,989.42,10.736
-247.66,976.488,40.016
-269.376,930.128,53.68
-244.0,898.652,48.312
-189.832,905.728,17.08
-163.236,953.796,11.956
-163.724,995.764,13.42
-151.036,1015.772,13.664
-151.524,1006.012,20.74
-152.012,989.908,25.132
-141.276,985.028,26.84
-136.64,1002.108,32.452
-149.572,1006.012,31.964
-168.604,994.544,33.428
-169.092,974.048,30.744
-165.188,970.876,27.572
-152.012,978.196,39.284
-159.332,969.656,44.652
-183.0,959.652,41.724
-201.544,951.844,38.308
-186.904,951.844,25.864
-168.36,961.848,17.812
-162.26,971.12,16.104
-152.988,980.392,15.372
-163.724,978.684,16.348
-178.364,980.148,23.668
-177.876,981.612,30.5
-164.7,979.904,33.672
-170.312,965.752,32.208
-167.14,963.312,22.692
-172.02,965.02,18.788
-172.02,971.852,21.472
-157.868,983.076,25.376
-155.428,981.856,31.476
-167.872,970.388,36.356
-181.292,956.968,36.112
-193.004,948.428,38.552
-169.824,959.408,37.82
-140.544,975.024,33.672
-135.664,983.808,30.988
-144.936,989.176,29.28
-165.432,983.564,26.352
-174.216,977.708,27.816
-171.044,973.804,29.524
-171.532,969.9,28.06
-166.164,967.46,26.84
-152.744,968.192,29.524
-148.596,971.12,28.792
-160.796,967.948,31.232
-180.316,958.92,33.184
-186.904,961.36,32.208
-170.312,975.268,33.428
-156.16,984.052,31.964
-161.284,976.976,29.768
-171.776,967.948,31.232
-191.296,960.384,33.916
-202.52,961.848,42.7
-183.488,975.268,50.02
-190.32,976.0,58.804
-195.932,987.956,62.464
-171.532,1006.988,57.34
-157.624,1019.92,55.388
-173.972,1030.412,51.24
-185.684,1036.512,44.896
-197.152,1039.44,40.26
-222.284,1030.168,31.232
-240.096,1022.848,30.5
-244.732,1016.504,36.844
-230.092,1026.752,37.576
-211.548,1018.212,26.84
-214.476,1010.892,29.036
-257.908,989.42,4.636
-337.452,981.856,-22.936
-389.912,1000.644,-18.544
-349.896,1012.112,-8.784
-228.628,1020.164,-2.928
-109.068,1025.288,-6.832
-89.06,995.52,3.416
-141.52,955.016,19.52
-187.392,929.64,31.476
-129.808,927.932,38.552
61.732,913.78,55.632
235.216,879.132,54.9
284.992,826.184,45.384
202.276,783.972,97.6
170.556,745.42,123.22
274.988,680.516,103.212
566.568,662.46,120.78
690.764,609.512,138.592
658.8,598.288,192.028
772.748,572.424,213.5
812.276,511.668,237.168
950.38,521.672,241.56
1076.04,561.932,235.704
1078.48,586.82,204.96
951.356,586.82,186.904
946.72,589.748,201.056
936.96,580.232,208.62
843.02,597.556,204.228
805.2,598.776,191.296
755.912,602.436,173.24
698.328,618.784,156.404
672.22,599.752,154.94
620.736,558.516,163.724
579.744,492.88,170.556
542.9,444.812,141.276
477.264,412.604,124.44
441.152,424.804,124.928
439.688,394.304,133.712
459.94,340.868,135.176
426.024,275.232,151.28
428.22,216.672,160.552
389.18,211.548,150.06
454.084,287.432,92.476
680.272,257.908,25.62
772.748,219.112,42.7
840.58,126.148,82.228
964.044,47.824,124.44
1097.512,19.032,176.168
1185.108,23.18,162.748
1238.788,14.152,73.444
1334.436,3.66,2.684
1428.376,-29.28,-16.104
1433.744,-34.404,-16.348
1439.844,-64.172,-17.812
1547.204,-93.208,-79.544
1602.592,-119.072,-85.156
1513.776,-153.964,-67.832
1447.164,-160.796,-24.156
1393.484,-169.092,2.44
1480.592,-176.412,10.492
1469.856,-196.664,37.576
1423.74,-188.612,55.144
1439.6,-243.756,111.02
1397.632,-264.74,156.648
1380.552,-260.104,187.88
1440.82,-264.984,224.968
1415.2,-284.26,233.996
1392.02,-232.776,228.872
1399.096,-227.652,260.836
1461.072,-211.304,301.096
1436.916,-217.648,356.972
1379.088,-195.688,388.448
1333.216,-129.076,376.004
1227.808,-91.988,356.24
1203.408,-53.192,333.06
1207.556,-32.94,335.5
1206.336,-25.376,316.224
1115.324,-18.788,307.44
1037.0,18.544,294.264
958.432,59.292,261.08
935.252,108.824,205.204
944.768,159.576,179.34
901.336,206.18,172.508
832.772,227.652,155.672
778.604,251.076,132.98
726.876,282.796,88.328
706.38,333.06,71.736
700.28,401.136,64.904
620.248,413.58,55.876
556.076,427.244,38.796
460.672,448.228,15.128
381.616,483.12,1.464
311.344,509.716,-23.668
294.996,533.384,-42.944
306.464,564.86,-54.9
361.364,607.316,-57.828
363.072,631.472,-53.68
372.588,669.78,-55.388
404.308,687.348,-30.744
589.504,694.424,-13.664
746.884,709.064,28.548
764.208,717.848,78.568
692.228,696.864,106.384
677.344,716.14,126.392
797.148,738.588,115.168
843.02,749.324,118.34
837.164,756.4,127.368
842.776,717.604,147.376
769.82,683.444,174.216
789.096,678.564,200.812
850.584,656.116,211.548
867.176,655.628,228.384
819.108,654.164,221.064
757.132,680.516,221.308
721.996,717.848,222.04
723.704,750.056,207.156
708.82,776.408,201.056
692.228,798.612,184.464
641.232,831.796,163.236
583.404,845.46,139.568
529.724,845.948,131.76
460.184,869.372,128.1
403.088,890.844,106.14
364.048,925.248,74.42
315.98,925.98,62.708
261.812,930.86,70.76
227.652,951.6,82.472
162.016,997.716,115.656
182.268,998.448,107.36
159.82,973.072,95.404
121.268,969.656,95.648
74.908,983.808,86.864
48.312,996.252,97.356
50.752,1006.256,120.536
114.68,1006.012,125.66
143.228,990.396,117.852
109.312,968.924,89.06
70.028,958.432,62.952
10.98,954.284,56.364
-1.22,965.996,43.92
5.124,977.464,42.944
35.624,985.028,43.432
9.516,987.468,54.412
-57.34,978.684,45.384
-126.148,959.896,36.6
-169.824,943.304,33.428
-203.252,938.912,32.208
-207.644,957.212,28.792
-185.928,983.564,30.012
-206.424,996.74,35.624
-242.78,999.668,32.208
-267.18,989.42,37.82
-285.724,966.484,42.944
-287.188,958.432,44.652
-256.444,967.46,52.46
-238.632,980.88,71.492
-237.656,970.876,90.524
-222.04,956.724,101.992
-200.812,945.744,107.36
-196.664,934.032,116.144
-193.492,931.348,125.416
-170.068,932.568,124.196
-144.692,946.476,118.584
-140.788,961.848,107.848
-132.98,987.956,102.236
-141.032,1000.4,100.04
-149.328,994.056,100.04
-157.38,980.88,95.16
-178.852,962.092,87.84
-183.976,963.312,86.864
-163.968,978.928,91.012
-142.496,992.104,90.036
-131.76,990.64,87.108
-143.96,986.98,91.256
-144.692,976.732,84.668
-163.724,965.508,88.328
-171.532,963.312,96.38
-168.848,960.14,95.892
-147.62,962.58,95.892
-136.396,968.68,92.232
-146.4,967.216,80.764
-166.652,961.848,79.788
-172.508,959.164,71.98
-170.8,957.944,71.492
-161.04,970.144,79.056
-145.912,981.612,89.792
-151.28,974.048,93.208
-162.504,962.336,96.136
-173.972,960.872,93.94
-180.804,965.02,99.796
-166.408,978.196,99.064
-160.552,989.42,100.528
-159.82,999.668,100.528
-160.308,1002.84,101.992
-147.864,1003.084,106.872
-140.3,1001.132,106.628
-143.96,995.764,93.94
-131.028,996.74,80.52
-133.712,992.592,64.904
-148.596,984.052,45.14
-187.392,972.34,34.16
-199.104,976.976,39.772
-203.252,983.32,58.316
-163.724,983.076,67.344
-104.92,976.0,76.372
-69.296,969.412,78.08
-58.56,952.088,83.448
-44.164,946.476,92.72
-6.1,958.188,94.672
-8.052,956.968,89.548
-39.772,945.744,68.808
-80.52,947.208,52.948
-103.7,961.116,39.04
-106.14,980.148,30.988
-101.26,994.056,36.6
-81.74,1000.156,44.164
-74.42,1003.084,53.68
-74.176,999.424,59.536
-91.744,989.908,67.1
-107.36,985.272,63.196
-110.532,991.616,54.656
-99.796,1002.352,55.876
-84.668,1007.72,59.78
-81.008,998.692,64.66
-88.084,984.052,66.368
-105.896,968.192,70.028
-105.408,964.532,67.588
-90.768,968.436,57.34
-74.908,976.0,51.972
-74.908,987.224,45.384
-89.792,986.248,44.408
-107.848,986.004,47.58
-121.268,990.152,41.968
-115.656,997.228,41.968
-113.46,1012.356,40.504
-122.244,1026.508,42.7
-153.476,1032.12,42.456
-200.812,1026.02,39.284
-270.108,1008.696,23.424
-328.912,982.344,5.124
-366.976,949.16,-14.884
-365.512,915.732,-8.54
-341.6,904.264,-3.66
-254.492,870.592,14.396
-209.596,816.668,35.868
-123.464,782.264,43.432
-79.544,730.292,47.58
30.256,712.724,65.88
149.328,703.452,120.048
355.264,682.956,138.592
575.596,665.388,142.496
528.016,623.176,191.052
695.156,611.952,214.964
835.212,573.156,232.532
928.908,525.088,264.74
1011.868,516.548,293.044
1025.288,514.108,300.852
1014.552,530.944,276.696
958.432,551.196,219.112
815.692,558.028,175.436
698.084,534.604,146.888
705.892,451.888,134.688
630.984,374.052,181.048
562.176,306.22,187.148
494.588,261.812,157.624
585.6,265.228,115.168
710.04,280.112,106.872
735.172,242.536,142.984
711.504,161.284,184.952
732.244,66.124,240.096
866.2,-12.444,251.564
932.324,-34.16,247.66
1005.524,-10.492,217.648
1050.176,0.732,165.188
1133.38,-60.268,118.584
1286.612,-117.852,117.608
1414.956,-144.936,111.752
1405.928,-190.32,142.74
1381.284,-250.344,186.904
1326.628,-304.756,222.772
1410.564,-310.124,203.74
1355.908,-302.072,193.98
1368.352,-316.956,175.192
1340.536,-330.864,189.344
1264.652,-371.124,228.628
1310.036,-390.156,242.048
1257.332,-378.688,247.904
1242.448,-363.316,232.532
1265.384,-359.9,230.58
1231.224,-359.9,241.804
1224.392,-363.072,268.644
1219.024,-390.888,326.228
1241.228,-410.408,349.408
1301.252,-408.456,368.196
1287.832,-387.96,397.476
1282.22,-337.94,346.724
1221.464,-305.732,333.304
1191.452,-264.252,356.484
1252.208,-268.888,401.38
1331.02,-303.536,419.68
1319.308,-303.292,417.484
1254.16,-252.784,397.72
1219.756,-183.488,368.684
1194.38,-136.152,344.772
1154.852,-94.916,330.132
1123.376,-72.224,297.924
1079.212,-41.724,266.692
1048.468,0.488,242.78
1015.772,32.696,220.332
973.072,68.564,175.924
942.328,94.184,157.868
857.172,134.2,154.452
740.296,175.68,130.54
668.072,230.092,108.824
676.124,283.04,66.612
627.812,331.596,48.068
616.832,375.028,38.308
611.952,383.812,29.768
552.904,405.528,44.164
506.788,435.54,30.988
470.676,465.552,2.196
451.4,508.008,-22.204
422.12,540.46,-34.404
437.004,559.98,-26.84
468.236,581.452,-10.98
553.148,600.728,25.62
641.964,625.372,53.192
676.612,650.504,70.516
675.88,668.316,80.764
741.028,680.516,100.528
796.416,673.196,130.54
862.54,658.8,169.58
894.992,638.304,207.644
920.612,625.128,213.5
904.996,622.2,213.5
909.144,640.256,207.888
872.3,660.02,205.204
873.032,670.512,200.812
866.932,677.344,205.448
838.872,675.636,204.716
791.292,688.568,211.792
739.564,705.404,199.104
700.524,720.776,188.368
711.748,721.264,173.728
690.276,750.788,164.7
567.3,773.968,149.328
543.876,820.572,172.996
567.544,848.388,179.584
549.244,835.944,189.1
523.136,839.116,183.244
439.688,827.404,168.604
336.232,846.924,178.608
279.38,875.228,165.432
310.124,897.432,147.132
330.62,900.604,122.488
328.18,890.356,123.22
283.528,900.604,165.188
287.432,912.56,166.408
266.936,920.856,164.212
249.124,941.352,140.788
202.032,944.768,133.468
154.696,949.892,135.176
136.152,963.068,127.856
119.804,976.976,125.416
122.488,992.104,115.656
89.304,992.348,118.096
42.456,981.368,123.464
9.76,965.752,135.42
24.644,964.044,125.416
25.864,962.336,105.164
3.904,963.312,94.672
-23.424,962.58,78.812
-39.528,968.436,58.56
-89.304,971.608,27.572
-155.916,959.652,3.172
-207.156,953.308,-14.152
-225.944,957.944,-17.324
-244.244,969.9,4.88
-247.172,981.368,-14.64
-238.876,993.08,-31.964
-240.096,989.908,-25.62
-210.328,1007.72,-24.888
-183.976,1016.748,-17.568
-175.436,1017.236,1.464
-167.384,1015.284,11.468
-141.52,1005.768,31.476
-138.104,994.788,59.78
-138.104,983.808,76.128
-150.06,969.412,78.08
-154.696,968.436,74.664
-152.256,977.708,76.86
-167.872,979.904,74.42
-157.38,979.904,76.616
-156.648,977.22,82.96
-167.872,964.532,82.96
-171.044,955.992,80.52
-176.412,955.992,81.74
-163.48,964.776,80.032
-125.172,983.564,68.076
-134.932,990.396,68.808
-154.696,984.54,50.996
-164.456,971.364,41.724
-174.46,964.532,48.068
-156.892,969.9,44.164
-153.232,975.756,40.504
-148.352,980.88,34.648
-147.62,980.392,28.548
-167.872,975.268,37.332
-170.8,969.9,31.232
-158.6,968.68,31.72
-145.424,973.316,43.92
-137.616,978.44,53.924
-139.568,973.316,56.608
-147.864,965.752,58.804
-149.084,966.484,52.704
-139.812,971.12,52.216
-132.736,977.464,50.996
-135.176,976.488,48.8
-142.984,974.048,45.14
-148.352,972.34,45.628
-139.08,974.536,44.896
-120.048,980.88,41.968
-129.808,984.784,49.288
-139.568,977.952,47.092
-147.864,969.656,45.628
-154.452,973.804,43.188
-151.28,983.32,40.748
-151.28,987.956,43.92
-159.088,991.372,47.824
-168.36,994.056,50.752
-195.444,990.396,57.584
-209.352,991.128,56.12
-236.924,997.228,54.168
-285.724,1007.476,45.628
-289.384,1016.748,28.548
-282.308,1006.256,17.812
-259.128,992.836,13.42
-214.232,986.98,14.152
-190.564,973.316,20.252
-193.248,970.144,17.568
-211.06,966.484,3.172
-236.192,979.904,-20.008
-230.58,993.324,-10.736
-171.776,995.276,-5.124
-40.26,996.496,-4.148
3.904,999.912,-9.028
-70.272,990.64,10.736
-260.348,928.42,23.912
-238.876,915.244,8.784
-38.064,904.996,7.808
211.792,869.128,38.552
293.776,815.692,65.392
214.232,738.1,132.98
226.676,687.592,219.6
377.468,640.744,229.116
550.22,650.992,297.436
625.616,632.448,333.06
727.852,579.744,307.684
789.096,567.056,311.344
708.576,565.836,348.432
759.572,566.08,333.304
824.964,532.164,345.504
857.416,489.464,371.124
935.008,438.468,406.504
903.776,411.384,461.404
902.556,413.092,433.344
851.56,419.192,419.436
857.416,447.008,403.332
823.5,463.356,359.656
728.828,444.812,329.644
617.076,398.94,297.192
503.372,349.164,269.864
458.72,310.368,266.204
458.476,273.524,237.168
437.004,245.464,217.648
402.112,189.1,201.056
407.724,139.812,201.544
449.204,70.516,200.568
498.98,-20.984,212.036
568.032,-137.86,224.48
610.244,-294.264,239.364
715.408,-366.732,226.432
950.868,-359.412,202.52
1232.2,-330.62,192.272
1419.592,-355.996,199.836
1621.38,-397.476,206.912
1755.336,-485.072,347.944
1829.268,-535.336,462.624
1782.908,-558.028,557.296
1647.0,-583.16,631.472
1641.632,-551.196,655.384
1519.388,-519.964,691.252
1437.648,-481.412,687.592
1419.104,-463.112,663.436
1409.1,-468.968,672.464
1346.148,-482.144,677.344
1288.076,-483.608,681.492
1226.588,-492.636,679.296
1204.14,-489.708,677.344
1175.836,-485.316,691.496
1140.944,-455.304,689.788
1123.62,-431.392,666.852
1137.284,-405.528,634.4
1103.368,-372.832,646.356
1101.66,-337.452,643.428
1109.224,-309.636,610.0
1054.568,-256.2,599.752
1022.36,-197.396,564.616
974.048,-139.324,542.168
966.484,-78.324,498.98
915.976,-33.184,468.236
873.032,31.232,411.384
768.112,69.54,357.46
721.508,134.2,311.588
638.548,176.412,258.152
618.784,227.164,183.244
630.496,263.276,172.264
561.444,296.46,171.044
506.788,353.8,123.708
475.068,382.348,82.472
435.784,432.612,48.068
406.504,475.312,17.08
393.572,498.492,8.052
419.68,510.448,7.076
380.884,523.136,46.116
378.688,557.784,63.684
443.592,601.704,72.468
474.336,663.68,74.176
520.452,711.016,57.584
574.864,733.708,67.832
621.712,740.052,115.412
696.132,721.02,182.512
725.168,692.472,240.34
717.604,671.732,279.868
735.904,660.996,290.604
779.58,670.268,312.808
816.18,670.756,345.748
824.476,634.644,360.632
818.376,592.188,342.82
781.044,611.952,318.664
693.936,662.948,309.88
613.416,726.876,290.116
579.256,801.784,272.06
585.6,849.608,255.712
583.404,893.284,281.576
615.612,898.164,266.936
608.048,878.644,243.512
557.54,863.516,230.092
503.616,865.956,209.596
453.84,881.572,191.54
443.592,902.556,145.668
439.932,927.932,105.164
417.728,947.94,85.644
367.952,961.116,91.744
342.82,972.584,83.448
320.616,973.804,74.176
293.044,964.288,47.092
258.396,951.844,43.432
233.02,955.504,52.948
208.132,959.896,49.044
212.036,962.824,47.824
218.38,964.288,58.072
193.98,960.14,63.196
146.4,966.972,62.708
99.552,970.388,67.344
72.468,977.952,63.928
89.548,990.152,53.68
101.992,1008.94,41.48
79.056,1021.872,33.916
65.88,1031.632,26.352
79.3,1034.804,21.472
104.676,1038.708,24.4
122.732,1036.268,27.084
113.216,1017.48,42.7
107.848,996.496,57.828
141.764,973.804,67.588
192.272,976.488,81.984
180.072,968.436,90.28
150.304,962.824,93.696
117.852,961.36,102.236
123.708,962.58,107.116
120.536,969.168,108.336
130.052,971.12,111.752
111.264,976.732,127.124
103.212,973.072,122.976
98.088,976.976,132.004
126.392,991.372,125.416
167.14,1001.864,118.828
160.552,1001.62,121.024
121.512,996.252,123.708
103.212,994.3,129.564
111.508,989.664,137.616
148.352,986.248,132.736
167.384,977.952,134.2
157.136,972.096,140.3
136.152,974.78,139.812
116.388,977.464,134.688
120.048,981.368,134.688
142.984,986.004,137.128
141.276,977.22,135.42
117.12,963.068,133.712
116.632,957.944,125.904
117.364,960.872,103.944
116.632,966.484,90.036
112.484,978.44,84.912
129.808,989.664,84.424
133.468,996.984,91.256
124.196,991.128,94.184
116.876,984.052,101.748
109.068,979.66,101.504
98.088,983.808,106.14
97.356,995.52,119.316
118.584,995.276,126.636
152.256,998.692,121.756
169.092,989.176,127.368
149.572,982.344,118.584
125.904,975.756,107.848
116.632,977.708,102.236
112.728,974.78,88.572
103.944,970.876,81.496
93.208,965.752,76.616
91.744,960.872,75.396
112.24,964.044,70.272
131.028,970.388,60.756
138.104,982.344,50.02
133.712,988.688,40.26
122.732,995.764,40.016
123.952,998.204,47.092
138.104,996.496,59.048
150.548,989.664,66.612
140.3,981.612,74.42
114.68,976.244,81.984
95.404,981.612,85.644
91.5,996.008,83.692
101.26,1006.256,85.888
108.336,1020.896,83.204
91.256,1034.56,83.448
74.664,1060.424,93.696
72.956,1079.456,103.944
100.284,1095.316,101.26
106.628,1108.492,103.456
74.42,1117.032,98.332
15.616,1100.928,81.496
-9.272,1066.524,88.328
-7.32,1040.904,66.124
8.296,1027.728,49.288
-8.54,1006.988,32.94
-27.328,992.592,20.008
-18.788,957.212,7.564
-14.396,924.76,-27.328
-35.38,930.616,-56.12
-33.184,935.984,-68.076
-25.132,928.42,-82.472
-3.416,899.872,-88.572
7.808,877.668,-83.204
23.424,835.212,-0.244
133.224,742.736,21.228
292.8,703.94,53.924
439.444,653.188,118.096
572.668,646.6,158.112
603.656,611.708,202.52
711.26,550.952,235.704
839.36,541.68,275.964
1006.5,557.784,274.988
966.972,600.24,302.56
864.736,587.064,349.408
805.2,573.156,356.484
893.04,579.5,377.224
910.12,585.844,382.348
845.948,604.632,353.312
806.664,647.576,336.476
800.076,649.528,330.376
812.276,665.388,308.172
833.016,680.76,315.98
787.144,653.432,325.74
775.676,632.936,327.448
771.528,611.952,330.376
721.752,600.24,323.544
688.08,611.22,300.608
686.128,601.216,302.56
675.636,588.04,296.46
696.864,550.952,308.172
738.1,542.656,325.252
722.728,528.26,343.308
695.644,497.76,338.184
639.524,473.848,323.3
598.532,451.644,297.436
531.188,384.3,269.132
435.784,283.04,230.336
378.2,196.42,187.636
336.72,148.352,124.44
259.86,101.26,103.944
191.784,31.476,86.376
292.312,10.004,80.032
387.96,0.0,108.58
475.068,-61.976,155.916
700.524,-169.336,154.696
980.148,-284.26,151.28
1138.748,-363.316,232.532
1358.348,-382.836,305.488
1601.86,-406.992,305.244
1681.892,-445.544,323.3
1751.92,-484.096,324.032
1759.24,-531.676,388.692
1661.396,-554.856,456.768
1667.74,-581.208,475.312
1718.004,-582.672,476.288
1653.1,-574.132,493.124
1677.988,-569.496,517.524
1645.292,-596.336,591.212
1635.776,-615.856,660.02
1658.224,-635.864,732.732
1652.612,-678.564,812.52
1628.944,-653.432,821.548
1498.892,-638.792,817.4
1419.348,-599.752,777.628
1370.06,-556.32,738.832
1271.728,-496.54,690.52
1186.328,-438.224,632.448
1053.836,-390.156,571.692
938.424,-305.732,513.376
858.392,-242.048,470.432
800.808,-180.804,431.88
775.432,-144.692,373.564
666.364,-74.176,309.148
584.136,21.96,233.752
518.988,107.604,182.756
452.376,170.312,133.956
452.62,198.128,122.976
402.112,216.672,121.268
330.132,259.616,115.9
330.62,305.976,84.668
324.276,353.312,46.604
326.716,415.532,0.732
345.016,492.88,-25.62
411.384,531.188,-23.912
477.508,543.876,-9.76
531.92,570.716,25.376
543.388,599.02,61.244
586.82,628.788,74.908
665.876,649.772,104.432
743.712,646.112,138.348
772.504,634.4,188.368
802.028,635.132,219.844
825.696,618.54,252.54
881.572,605.364,270.108
894.016,599.508,292.312
911.828,580.232,279.868
878.888,576.328,292.556
904.02,606.584,292.312
942.084,614.148,314.272
920.856,603.656,324.032
885.232,606.584,311.1
819.84,607.072,286.456
747.372,634.888,291.092
674.66,678.32,285.48
640.012,732.488,249.368
611.708,767.136,219.356
583.892,801.052,193.248
557.052,839.116,170.556
508.008,879.864,163.236
439.932,908.168,167.872
401.38,911.096,140.056
365.512,918.416,143.472
330.864,923.54,140.544
308.416,927.688,135.42
281.332,943.792,115.9
256.2,935.74,79.3
232.532,926.224,80.032
179.828,929.152,92.72
143.716,929.884,69.54
111.752,931.104,54.9
74.176,955.504,65.636
9.76,988.2,76.128
-25.864,1003.328,62.464
-30.5,1012.844,38.552
-34.648,1024.312,15.86
-30.5,1036.756,17.568
-56.12,1046.272,24.888
-62.952,1047.492,10.004
-62.464,1041.636,10.736
-71.736,1031.388,20.252
-71.004,1026.508,26.84
-51.728,1017.724,44.896
-49.288,1001.864,65.636
-32.208,983.076,67.588
-13.664,978.684,63.684
-5.124,975.756,70.272
-25.62,978.928,91.744
-36.356,981.856,94.916
-31.476,982.588,98.088
-20.74,995.276,113.216
-31.476,994.788,113.46
-34.404,982.344,110.044
-48.068,978.196,112.24
-45.628,978.684,106.628
-17.324,993.812,107.848
-13.908,1001.62,99.308
-22.448,993.324,81.008
-58.072,985.272,91.988
-86.864,973.804,93.94
-71.004,962.58,93.452
-48.068,963.8,91.256
-47.092,961.848,81.984
-39.284,973.316,71.492
-37.576,990.64,73.2
-40.504,1003.328,72.712
-53.924,996.252,77.592
-53.192,982.588,81.008
-45.384,974.78,82.96
-42.212,976.0,91.256
-37.088,978.928,89.304
-37.332,985.76,83.692
-40.748,988.444,72.224
-49.532,995.276,69.54
-54.412,1000.888,74.664
-55.388,998.692,73.688
-46.36,986.248,75.152
-21.472,985.272,72.224
-34.404,978.196,78.568
-58.804,972.584,83.936
-61.0,975.512,88.816
-45.384,983.076,93.94
-31.72,991.128,91.744
-29.28,992.348,92.232
-23.18,996.496,88.572
-15.86,1000.644,77.348
-30.256,1000.4,73.932
-40.992,998.692,69.296
-48.312,993.08,69.052
-58.072,986.248,71.736
-55.632,981.856,73.688
-40.504,983.564,73.2
-24.644,986.98,70.76
-36.844,991.128,69.784
-48.312,995.032,72.712
-41.48,1006.988,73.444
-51.24,1012.112,79.056
-77.592,1009.428,79.056
-95.16,1009.916,75.884
-98.332,1019.92,79.056
-114.192,1033.584,86.864
-152.744,1049.688,93.452
-180.804,1059.448,97.6
-215.696,1051.64,84.18
-301.34,1027.24,45.384
-316.224,1018.944,33.916
-257.908,1016.016,29.28
-211.06,1017.48,31.964
-179.584,1032.608,24.888
-208.62,1064.328,12.688
-270.84,1080.92,50.508
-251.32,1044.32,44.408
-94.672,974.78,22.936
37.576,908.9,10.492
123.708,851.56,24.156
126.148,803.004,81.252
191.54,736.636,95.16
342.332,686.128,108.092
496.052,681.248,133.468
733.464,685.884,153.964
818.62,652.7,186.416
843.02,636.352,228.628
845.704,653.432,248.88
839.604,645.38,278.648
817.156,612.684,274.256
788.608,581.452,266.936
711.748,584.868,264.252
593.896,586.82,275.232
514.596,568.276,247.172
493.612,566.568,204.472
481.656,562.908,178.608
389.912,534.116,156.648
333.548,479.948,155.428
304.756,418.948,148.84
351.848,367.22,130.296
475.312,328.668,131.76
535.824,268.888,139.08
447.008,245.708,252.54
437.248,163.48,328.912
591.944,76.616,396.012
734.44,-33.672,392.596
743.224,-101.748,392.352
762.256,-130.784,431.88
846.68,-145.912,469.212
987.712,-196.176,456.524
1123.132,-274.256,436.76
1235.86,-346.236,387.472
1254.16,-348.188,362.096
1271.972,-345.504,380.396
1374.208,-376.98,366.0
1515.972,-435.784,316.712
1609.18,-446.032,285.968
1554.036,-448.716,305.976
1484.984,-478.972,333.304
1506.456,-459.452,345.992
1434.72,-458.476,370.392
1354.2,-435.784,361.852
1300.032,-393.816,339.404
1293.688,-358.68,338.428
1232.444,-335.256,340.136
1236.104,-324.52,363.316
1301.496,-347.7,439.932
1372.5,-376.004,484.096
1392.996,-429.196,500.444
1398.852,-470.92,556.32
1364.936,-483.12,624.884
1362.74,-497.76,665.388
1404.464,-527.284,670.756
1390.312,-540.948,674.172
1283.684,-521.672,654.896
1209.508,-470.432,639.524
1199.016,-443.348,618.052
1158.268,-395.768,594.628
1096.048,-339.16,551.928
1067.012,-301.828,518.012
965.996,-265.716,483.608
925.98,-198.616,420.9
874.008,-125.66,389.668
797.88,-41.724,347.7
776.408,27.816,285.48
750.544,79.788,271.572
705.404,127.856,248.148
628.544,182.756,217.648
518.744,224.724,167.14
451.156,323.056,123.22
397.232,392.108,71.248
387.228,468.968,46.36
406.26,498.248,34.404
410.896,508.008,41.968
340.868,526.796,52.216
340.624,551.928,45.384
338.916,589.992,38.796
340.38,630.008,13.908
333.792,675.148,-1.708
401.136,695.156,-19.764
420.412,722.24,13.42
442.616,729.56,48.068
498.736,712.236,92.964
575.352,696.376,154.208
670.024,690.764,206.668
784.948,686.86,248.88
836.676,672.952,274.012
865.468,662.216,311.1
879.132,656.604,355.508
902.556,643.184,365.756
881.572,654.408,375.028
815.936,651.968,347.944
759.572,696.132,321.592
717.848,718.824,276.452
680.028,741.028,256.444
678.32,804.956,282.552
661.484,820.816,274.5
641.964,813.984,266.448
608.78,792.024,256.2
513.132,786.168,250.832
485.804,804.468,242.536
492.148,847.168,222.528
491.904,873.52,200.568
474.824,882.792,173.972
451.644,880.108,136.152
392.596,875.716,118.828
341.356,882.548,111.996
299.632,902.8,104.92
265.228,921.588,96.624
219.112,944.28,83.204
154.94,945.744,61.976
105.896,962.824,43.92
88.328,993.812,40.992
86.132,1017.48,37.088
92.476,1034.804,45.872
113.46,1033.34,50.508
114.924,1012.844,35.868
104.676,995.764,19.52
82.228,990.152,22.692
26.352,985.028,39.04
-6.832,982.344,58.56
-36.112,986.492,71.736
-47.336,988.932,76.372
-27.572,988.444,84.424
-25.132,992.592,108.092
-30.012,992.104,109.312
-48.312,989.176,84.424
-70.516,997.96,70.272
-23.912,1011.38,69.052
-19.276,1045.784,79.056
-1.22,1042.368,67.832
23.424,1039.44,48.556
34.404,1032.364,24.156
6.344,1016.748,31.232
-24.156,1007.232,33.672
-39.772,993.08,31.476
-54.656,990.152,50.752
-74.908,978.928,61.976
-66.856,966.484,52.216
-82.716,951.356,53.924
-102.48,945.256,56.12
-74.42,961.36,56.852
-40.992,986.248,58.804
-25.62,998.936,60.024
-18.056,1002.108,61.488
-13.176,1003.084,61.244
-33.916,995.276,57.828
-54.168,998.448,65.148
-67.344,1000.888,74.908
-60.756,992.104,81.496
-41.968,990.152,95.648
-33.916,988.932,101.992
-48.556,973.804,93.208
-61.244,975.024,85.888
-62.708,978.196,84.424
-54.168,982.344,82.472
-44.408,983.564,88.084
-36.356,980.88,89.06
-36.356,979.416,80.276
-42.212,974.78,68.564
-63.44,975.512,64.66
-64.416,982.832,61.488
-50.752,996.252,63.928
-23.912,1012.6,71.004
-32.208,1008.208,77.348
-50.264,991.616,77.836
-57.584,977.464,85.4
-61.488,970.632,86.376
-63.44,978.928,82.472
-57.828,981.856,74.42
-47.336,987.468,69.296
-45.384,989.908,62.22
-49.288,988.932,61.244
-59.048,985.76,67.1
-52.46,986.492,69.296
-46.116,991.128,69.052
-55.876,986.492,71.248
-74.176,977.952,71.98
-65.88,981.368,71.736
-39.772,990.152,68.808
-32.452,994.788,70.516
-25.864,998.692,69.54
-33.916,998.448,71.248
-49.532,988.688,69.296
-72.712,981.856,60.268
-78.568,978.196,54.412
-69.784,982.344,62.22
-48.556,982.344,62.952
-47.58,981.856,62.708
-55.388,983.076,61.0
-56.12,983.076,56.12
-56.364,978.196,60.512
-44.652,986.004,64.904
-39.284,985.76,62.464
-50.508,987.712,59.536
-58.804,986.98,58.804
-52.46,987.712,58.072
-37.332,993.812,60.024
-29.524,995.276,58.316
-47.824,993.324,54.412
-66.124,989.908,49.288
-80.032,1003.572,55.144
-100.772,1015.528,67.1
-106.384,1024.8,76.128
-94.672,1030.656,83.692
-95.892,1043.344,91.5
-105.896,1045.052,104.188
-131.272,1033.584,102.236
-171.288,1016.26,87.352
-192.76,998.448,61.976
-194.712,987.468,41.968
-168.36,991.616,22.204
-124.44,1033.096,16.836
-118.828,1061.644,22.448
-142.74,1057.008,18.788
-153.476,1043.1,14.64
-111.02,1045.54,37.82
-60.268,1037.244,60.756
-35.624,1032.12,93.696
-29.768,1005.768,112.24
13.42,971.608,111.264
-48.068,937.448,111.264
-42.944,911.34,120.048
99.796,901.336,85.644
197.152,828.38,93.452
219.112,736.392,119.56
272.06,623.908,171.288
522.648,531.92,237.412
652.456,422.12,315.248
731.268,348.432,421.876
892.308,243.268,504.592
1025.776,212.768,521.184
1026.264,215.208,514.596
1034.56,271.084,483.852
1009.916,273.036,464.088
987.224,274.988,434.076
961.848,295.24,418.46
885.476,322.812,407.724
762.256,357.948,378.688
695.156,378.932,366.244
695.4,386.008,332.572
629.276,364.292,314.76
573.4,319.396,294.752
498.736,273.036,273.036
419.436,239.608,292.8
408.944,213.988,288.652
401.624,194.468,242.048
478.24,163.724,211.792
526.064,134.444,212.768
540.948,96.868,235.948
628.544,31.72,256.2
707.356,-36.356,281.576
770.308,-97.844,306.952
853.756,-148.84,340.868
987.224,-214.476,342.576
1079.7,-311.832,354.776
1173.884,-375.76,340.136
1347.368,-421.388,355.996
1384.212,-432.612,356.24
1344.196,-470.432,372.1
1336.388,-541.192,387.96
1352.98,-579.012,406.504
1366.156,-594.384,409.188
1369.084,-569.252,402.112
1426.668,-548.268,401.38
1499.136,-539.728,457.744
1429.596,-526.796,529.48
1492.304,-526.308,542.9
1587.22,-559.492,566.812
1639.924,-604.876,616.588
1573.556,-614.392,672.22
1527.928,-595.116,682.712
1483.276,-589.748,709.552
1433.5,-577.548,712.724
1425.448,-541.68,676.124
1346.88,-521.672,655.872
1246.596,-475.8,628.3
1192.184,-418.948,611.708
1140.212,-409.676,581.208
1041.88,-357.948,570.96
967.216,-298.9,520.696
933.056,-248.392,473.116
903.532,-203.252,438.712
828.38,-123.22,408.212
781.044,-71.98,350.872
708.332,17.812,305.488
701.988,72.712,247.172
677.832,85.4,214.476
607.56,174.704,185.44
471.652,228.628,137.128
394.792,295.972,99.796
399.672,365.512,52.46
371.124,359.656,8.54
318.42,476.044,21.228
337.696,528.26,24.4
297.68,558.272,2.684
342.332,591.212,-27.328
347.944,625.128,-4.392
342.332,681.004,12.444
415.044,730.292,33.916
490.684,745.176,53.192
510.448,770.796,98.576
554.124,763.232,128.588
591.456,746.152,144.204
597.8,727.364,163.724
645.38,751.276,183.0
731.268,731.268,203.008
806.908,713.456,232.776
850.828,707.6,260.592
850.584,695.4,292.068
817.156,665.876,298.656
780.556,660.264,295.24
724.436,668.072,294.02
717.116,709.552,293.044
720.288,746.396,281.82
687.348,770.796,272.548
668.56,795.928,264.74
602.924,821.792,268.888
552.172,814.472,257.176
542.656,837.408,235.46
494.588,853.024,210.816
429.196,864.98,189.832
381.616,890.844,188.368
333.548,897.676,197.884
278.404,906.216,189.1
238.144,896.456,136.396
222.04,876.448,91.256
166.164,893.04,96.624
115.168,927.2,122.976
65.88,962.092,152.744
82.228,988.2,126.636
80.032,975.512,77.348
29.036,953.796,65.88
-39.04,964.532,89.304
-119.072,967.948,98.088
-160.308,950.868,87.108
-137.372,946.232,42.7
-142.74,961.604,1.708
-179.584,986.736,-29.524
-191.784,1027.728,-57.096
-196.664,1060.424,-70.76
-186.172,1077.504,-79.3
-158.6,1064.572,-103.456
-135.908,1056.52,-125.904
-160.064,1037.488,-139.324
-215.208,1028.948,-138.592
-214.232,1020.408,-151.036
-212.524,1006.988,-142.496
-217.16,998.692,-126.88
-195.444,1000.644,-115.9
-196.42,989.664,-92.964
-225.944,961.36,-69.784
-242.048,945.744,-50.02
-232.288,931.348,-30.256
-213.988,928.664,-10.004
-186.416,938.18,-1.952
-185.928,949.404,5.368
-179.584,968.436,14.152
-169.336,984.54,17.812
-153.964,990.152,26.108
-143.228,991.616,36.356
-133.224,986.736,35.38
-144.204,980.148,45.14
-159.332,969.656,49.288
-172.264,960.872,52.948
-186.66,957.456,52.948
-177.388,955.992,43.432
-172.508,958.432,36.112
-166.164,957.944,24.156
-160.064,968.68,18.788
-135.908,990.152,10.248
-142.252,997.472,6.1
-153.964,990.152,0.732
-182.512,970.876,0.976
-189.344,964.288,8.54
-189.588,958.432,17.812
-190.076,959.408,28.06
-183.244,962.58,33.184
-170.556,965.996,30.012
-167.628,966.24,26.596
-158.356,973.072,24.156
-153.232,982.832,25.132
-152.988,986.736,29.28
-149.328,988.688,41.968
-143.96,983.076,40.992
-146.156,970.876,37.088
-159.576,965.02,38.552
-162.748,969.168,35.38
-150.548,974.78,33.184
-137.128,979.66,29.28
-132.492,984.052,23.668
-139.324,984.54,23.424
-142.008,986.492,22.692
-144.692,983.808,22.936
-143.228,979.66,24.4
-141.764,976.244,25.864
-137.616,975.756,23.424
-135.908,977.708,21.716
-142.74,975.756,22.448
-148.84,971.12,23.668
-152.012,972.584,28.548
-149.572,976.732,29.036
-140.3,976.0,28.548
-133.956,979.416,28.06
-130.296,978.684,24.888
-133.224,980.636,23.912
-136.64,983.808,23.912
-138.348,990.152,26.84
-145.424,986.492,26.84
-149.572,980.148,27.816
-145.18,979.66,31.72
-147.62,976.732,30.744
-142.252,976.488,34.648
-129.564,982.1,40.016
-115.412,983.32,37.088
-107.36,980.636,38.552
-109.556,975.024,32.696
-126.88,969.656,27.572
-147.864,967.46,25.864
-137.616,981.612,28.548
-126.88,986.98,25.376
-132.492,984.296,21.472
-134.688,981.124,19.764
-133.956,976.732,17.08
-132.98,982.832,25.376
-131.272,985.272,29.036
-135.908,979.66,29.768
-138.592,972.828,30.744
-138.104,967.216,26.596
-138.348,967.948,25.864
-135.176,974.536,25.62
-136.64,978.44,24.4
-141.764,974.292,19.032
-145.18,980.636,18.056
-158.112,986.004,17.812
-172.02,986.98,22.204
-165.676,989.908,29.524
-156.648,1002.84,37.576
-179.34,1009.184,35.38
-244.732,1013.82,29.28
-330.376,1016.748,17.568
-348.188,1012.844,4.392
-339.16,1003.084,-3.904
-298.412,999.912,-6.1
-255.712,988.932,3.66
-241.316,983.808,19.764
-263.032,966.24,19.764
-265.228,962.824,7.076
-155.184,963.068,-13.42
-88.572,979.416,-36.356
-8.54,1008.452,-6.1
22.936,990.396,23.424
62.464,923.54,26.596
135.42,898.164,24.888
174.216,836.92,42.944
39.284,790.072,71.248
121.268,783.484,121.756
407.236,713.212,155.184
664.168,590.968,162.504
615.368,537.044,262.788
650.016,455.792,367.22
796.172,275.476,511.424
986.004,117.608,635.132
1186.084,36.6,690.764
1129.232,87.84,692.228
1022.604,164.7,644.648
972.584,237.9,557.54
965.996,261.08,523.624
998.936,276.696,493.856
941.352,282.552,519.232
873.764,280.356,514.108
844.484,287.92,485.316
827.892,312.808,459.696
773.968,332.328,437.98
710.04,346.724,401.868
664.656,325.008,363.56
584.38,283.528,319.884
467.26,233.508,248.148
409.92,192.272,218.624
254.492,172.752,235.948
218.38,139.568,257.176
251.564,97.844,255.712
352.58,24.156,208.864
477.752,-50.996,192.516
486.536,-93.94,249.368
588.528,-160.308,309.636
728.096,-252.296,334.524
990.64,-379.664,338.672
1231.712,-460.184,344.772
1334.924,-487.268,319.64
1525.732,-527.04,311.832
1524.512,-579.988,394.548
1453.752,-629.276,432.368
1391.532,-670.024,475.068
1401.536,-706.38,475.556
1372.012,-633.668,451.4
1384.7,-560.956,390.644
1387.14,-523.38,364.048
1447.408,-552.172,398.94
1450.824,-591.944,467.748
1444.48,-639.768,549.732
1430.084,-658.556,580.232
1409.1,-623.664,581.94
1374.452,-589.016,591.212
1395.68,-555.1,578.768
1383.724,-568.276,610.976
1355.176,-570.96,655.384
1345.416,-594.872,710.04
1343.708,-593.896,710.04
1202.188,-564.86,690.764
1136.308,-494.344,670.268
1212.192,-417.972,597.068
1196.82,-401.868,540.216
1201.7,-366.0,514.108
1150.704,-351.604,472.14
1066.768,-280.6,424.56
990.152,-223.016,354.044
909.632,-132.736,316.956
820.328,-62.464,249.856
709.552,22.448,239.608
593.896,101.748,203.496
490.196,169.58,157.38
356.484,245.464,108.824
240.096,301.828,53.192
173.24,384.056,13.176
165.92,456.768,-38.552
181.048,508.008,-68.564
223.992,532.408,-63.684
228.14,547.78,-50.264
299.144,558.516,-20.74
373.32,582.916,9.76
474.58,608.536,41.968
542.412,627.08,55.388
621.224,651.968,78.812
679.052,671.0,101.26
717.848,672.952,139.568
698.328,674.66,186.904
725.9,675.392,211.548
732.244,675.392,208.62
758.84,703.696,197.884
767.868,699.792,172.752
751.276,686.86,197.64
819.352,663.68,256.444
869.128,632.204,294.508
869.128,603.412,317.932
864.98,598.288,320.372
806.176,608.78,310.124
818.62,657.824,317.444
847.9,674.172,311.1
861.32,685.64,292.556
843.996,704.916,269.376
765.184,738.832,268.156
716.14,756.4,265.716
698.816,785.924,249.368
670.024,813.252,217.16
646.112,827.404,207.4
598.288,849.12,192.272
518.744,868.396,180.804
454.572,864.004,165.92
406.26,871.568,147.62
373.808,866.444,133.712
328.424,867.908,131.76
238.632,873.52,149.084
155.428,891.088,164.456
116.632,897.188,159.82
112.484,910.364,155.672
99.308,903.288,162.504
116.144,905.728,179.584
111.996,922.32,194.468
54.168,923.784,193.736
10.004,920.612,164.944
23.912,925.492,144.448
-1.952,943.792,157.868
-34.16,971.852,172.02
-21.472,1006.988,155.184
-6.832,1028.216,112.484
6.1,1035.292,66.856
-19.032,1040.904,55.144
-43.188,1042.856,41.236
-53.924,1042.856,26.84
-87.596,1032.364,20.008
-130.052,1012.112,4.88
-127.856,1004.304,-13.664
-102.48,1018.944,-21.228
-84.424,1035.536,-20.984
-114.192,1037.244,-3.416
-135.664,1023.336,20.74
-96.868,1005.28,13.664
-61.976,1001.132,1.22
-31.476,993.08,1.22
-34.16,993.08,17.324
-46.36,990.64,30.012
-33.672,1002.596,27.084
-11.956,1007.964,28.792
-36.844,1003.328,29.28
-83.692,983.808,26.84
-133.224,970.876,37.82
-137.86,969.9,46.604
-104.92,971.364,43.92
-83.936,970.876,47.824
-98.332,967.948,59.048
-92.476,968.924,55.144
-84.668,976.0,50.508
-92.72,981.124,59.048
-89.792,979.172,54.412
-89.792,977.952,40.748
-105.652,975.024,36.112
-110.532,983.32,34.648
-100.528,986.004,35.624
-85.156,995.52,36.356
-79.788,992.836,31.964
-82.228,989.908,33.428
-89.06,985.76,39.284
-81.984,983.076,41.236
-74.42,980.88,38.796
-72.468,981.856,24.4
-94.428,977.464,17.08
-106.14,980.88,17.08
-96.868,986.248,21.96
-84.18,992.592,35.136
-58.56,989.908,34.16
-62.708,988.932,36.112
-73.2,984.296,34.648
-73.688,993.08,33.184
-60.756,1007.964,38.308
-49.288,1014.552,38.064
-50.996,1003.816,37.82
-61.488,997.472,35.136
-83.204,985.76,27.084
-99.308,978.44,29.28
-99.308,975.024,30.988
-85.644,975.268,26.108
-71.98,981.612,20.496
-67.344,982.1,19.276
-60.512,989.42,20.984
-62.22,991.86,20.496
-56.608,996.496,22.936
-58.072,992.348,24.156
-76.616,981.368,23.912
-92.232,981.856,23.912
-83.204,985.028,21.228
-63.44,996.252,25.376
-63.928,999.18,27.572
-84.668,988.688,23.668
-107.36,976.244,18.056
-114.436,973.804,19.276
-124.196,981.368,24.156
-128.832,990.396,22.448
-140.544,996.496,28.06
-138.104,1004.304,34.404
-133.712,1030.656,33.916
-122.244,1050.176,35.136
-119.316,1057.984,38.796
-127.368,1053.104,35.624
-160.552,1042.856,33.672
-214.476,1038.464,47.58
-223.504,1047.492,50.996
-191.052,1054.324,31.964
-61.732,1025.288,6.832
28.792,996.008,-17.324
30.5,968.436,-31.232
-58.56,950.38,-21.96
-100.284,951.112,15.86
-53.924,982.588,31.964
20.984,1007.964,39.772
112.972,1036.512,48.068
146.4,1021.384,47.336
107.36,1028.216,86.62
93.696,1044.564,145.912
135.176,986.492,128.832
140.544,929.396,87.108
116.632,949.892,78.08
145.424,946.72,126.392
139.324,921.1,97.844
140.056,890.6,137.128
267.18,852.536,191.296
371.612,789.828,159.088
319.884,747.128,187.88
298.168,717.116,270.108
393.816,628.3,310.124
577.304,542.9,337.208
620.492,460.916,395.768
690.032,413.58,492.148
826.428,360.876,529.724
790.072,325.496,605.12
843.752,274.5,655.628
1001.864,202.032,664.168
1004.304,222.284,667.828
914.512,238.876,627.08
806.42,267.668,563.64
732.976,289.384,478.484
647.088,317.2,407.724
525.332,329.888,332.816
411.384,299.144,269.62
304.512,256.2,227.164
197.396,184.952,201.788
124.928,119.072,216.916
185.44,96.868,193.736
358.436,113.216,130.052
464.82,48.556,65.636
522.16,-45.384,42.944
659.776,-142.984,95.16
851.56,-215.208,214.964
998.692,-296.216,314.028
1120.936,-404.796,416.752
1324.432,-533.384,513.864
1378.356,-636.352,624.152
1366.888,-658.8,694.424
1372.256,-629.764,729.804
1467.172,-549.244,660.264
1578.192,-471.896,582.916
1657.004,-464.82,537.288
1606.252,-508.252,580.476
1498.648,-576.572,656.848
1469.612,-657.824,705.16
1485.472,-708.576,759.084
1423.984,-680.76,801.54
1413.98,-645.38,832.528
1391.044,-659.776,868.396
1344.928,-681.736,904.752
1334.436,-669.536,904.752
1345.66,-639.036,915.0
1278.56,-582.184,909.144
1266.604,-522.16,873.032
1293.444,-488.0,790.316
1284.66,-459.208,733.464
1154.12,-402.844,681.98
1006.012,-291.336,590.236
879.132,-211.06,498.248
769.332,-122.244,435.54
666.364,-53.436,372.588
561.688,47.092,301.34
471.652,112.972,221.552
408.456,175.68,185.44
321.592,224.48,158.356
286.7,286.212,120.048
241.804,340.624,75.884
271.816,383.568,49.288
247.66,406.504,21.716
262.788,451.4,-20.496
310.856,515.084,-46.604
391.132,559.492,-19.52
486.536,593.164,23.912
586.088,605.608,67.344
636.84,615.856,140.3
711.504,621.712,183.0
772.992,628.788,238.144
824.72,622.444,264.74
914.024,623.908,311.588
941.596,616.344,371.856
958.92,603.168,416.02
976.244,576.816,444.324
978.196,555.1,466.528
897.92,530.944,468.724
748.836,554.124,446.032
758.596,630.496,437.736
804.956,666.364,426.268
781.532,671.976,450.18
704.672,677.344,448.472
572.668,647.332,428.708
468.968,663.192,425.292
484.828,726.388,431.392
554.368,739.808,401.868
553.392,763.232,400.892
449.692,772.26,413.336
347.7,771.528,389.424
312.076,777.872,357.704
307.44,803.98,330.376
298.412,815.936,305.976
237.656,848.388,276.208
202.032,879.132,236.68
182.756,928.176,204.472
132.736,943.304,177.388
99.552,942.816,156.404
82.472,951.356,153.72
65.148,936.228,156.404
49.288,927.444,180.804
54.168,920.124,153.72
56.12,900.604,117.364
45.628,896.456,109.068
43.676,921.344,111.508
61.244,957.212,122.732
39.284,984.54,124.196
-1.708,979.172,104.188
-51.728,977.464,91.012
-49.044,991.616,81.74
-22.204,1018.212,77.592
-51.484,1072.136,56.364
-93.696,1085.068,24.888
-122.976,1099.952,20.984
-85.644,1121.668,33.916
-5.368,1128.5,60.268
55.632,1128.744,91.5
62.708,1107.028,120.292
50.264,1042.856,124.44
34.404,989.908,138.348
50.264,964.776,145.668
56.364,962.824,155.184
34.16,965.508,151.28
-10.004,946.232,145.18
-15.616,938.18,131.76
-1.952,944.524,121.756
-23.912,956.48,132.736
-39.04,978.684,148.108
-42.7,980.392,138.592
-46.36,965.508,125.66
-24.156,974.78,130.296
25.132,1005.036,134.932
26.352,1015.528,144.448
-0.488,1004.06,152.256
-32.208,986.004,151.524
-34.16,965.508,138.836
-16.104,964.288,134.932
-17.568,971.364,139.08
-22.692,983.32,123.464
-41.968,976.488,98.82
-62.22,971.364,93.452
-28.792,977.952,80.276
-3.172,986.492,82.716
0.976,990.884,88.084
-10.98,989.664,96.136
-29.768,987.224,101.992
-37.332,979.66,98.332
-40.26,979.172,97.6
-12.444,990.64,96.136
17.324,1008.208,100.528
23.912,1013.576,93.696
6.1,1015.528,93.696
-29.28,998.936,96.38
-50.752,979.172,99.308
-68.808,962.58,101.016
-75.152,956.968,99.552
-63.44,965.752,102.236
-49.288,974.048,104.188
-25.132,978.684,96.868
-20.984,983.076,101.26
-18.788,993.568,103.456
-25.132,996.008,106.14
-25.864,995.52,106.872
-21.96,994.544,103.212
-35.38,993.324,101.26
-35.38,996.984,98.332
-34.16,999.668,97.6
-37.088,996.252,98.332
-56.852,994.3,106.872
-47.58,994.544,110.532
-60.024,1011.136,104.188
-80.52,1020.652,86.62
-92.476,1042.368,92.72
-61.0,1074.82,98.088
-34.892,1107.028,87.596
-34.648,1122.888,82.716
-35.38,1120.448,76.86
-89.06,1114.104,78.08
-121.756,1102.148,66.368
-168.848,1087.508,50.752
-100.772,1093.852,65.392
17.08,1084.092,65.148
-24.4,1062.62,70.76
-73.444,1033.828,73.932
-90.28,983.808,89.06
-160.552,929.152,99.796
-46.604,904.264,117.608
75.64,915.488,162.26
94.184,915.0,193.004
94.428,908.9,230.092
76.128,881.328,262.788
106.628,817.888,233.996
158.112,803.004,235.704
227.164,816.424,252.052
247.172,808.616,273.036
255.224,816.912,284.504
282.552,799.832,283.284
254.736,777.384,279.38
258.64,778.36,256.932
300.364,772.26,243.024
311.588,753.228,281.576
446.52,734.196,283.528
477.508,765.916,305.0
453.84,758.84,308.904
494.832,735.66,283.284
561.932,733.708,251.808
494.832,731.268,264.984
381.372,678.076,253.76
472.384,633.424,144.692
592.188,627.812,174.216
476.044,618.784,194.224
212.036,552.66,161.284
315.248,527.528,244.0
411.872,417.24,237.9
419.192,249.856,231.068
500.444,182.756,318.42
582.916,90.036,347.456
741.028,-19.032,357.948
756.888,-56.852,452.376
692.228,-150.792,584.624
697.596,-297.924,676.124
702.476,-447.496,762.256
796.172,-516.304,751.52
816.18,-475.068,720.776
751.764,-385.764,720.776
873.276,-355.996,648.308
973.56,-404.796,564.372
959.408,-479.216,549.488
961.36,-461.892,548.268
1003.816,-470.432,565.104
1114.104,-515.328,589.504
1156.316,-578.524,581.208
1115.812,-631.472,582.184
1069.94,-640.988,612.928
1098.488,-646.6,624.64
1069.208,-665.388,625.128
1031.388,-663.192,605.608
969.412,-670.268,608.78
980.392,-665.388,608.536
961.604,-633.424,609.024
1010.892,-642.696,626.836
988.688,-665.876,664.412
1034.316,-681.248,677.344
1059.204,-702.476,698.328
1086.776,-725.656,711.016
1009.184,-710.772,745.176
973.316,-662.704,725.168
1036.512,-623.664,701.5
1086.044,-608.048,685.396
1099.708,-586.82,657.092
1038.952,-569.252,680.272
1050.42,-559.248,678.076
1038.952,-538.02,662.948
1013.82,-489.708,653.188
992.592,-446.276,621.712
993.08,-373.564,577.548
992.104,-304.756,533.628
1008.208,-247.416,475.312
981.856,-187.392,438.224
877.912,-126.88,423.828
829.6,-79.056,384.544
859.368,-34.892,340.136
803.248,15.128,338.428
744.688,64.416,332.328
696.864,136.396,275.232
640.256,201.3,233.264
593.408,258.396,187.88
571.936,315.004,142.252
538.02,363.56,120.048
532.408,378.932,98.576
564.86,437.248,29.524
489.22,508.496,15.86
415.532,556.32,35.868
410.164,577.548,55.144
458.72,597.068,68.32
563.396,614.88,96.624
605.12,628.788,145.668
635.62,650.016,170.312
632.936,671.976,189.344
644.16,664.9,198.86
702.476,655.872,202.032
798.124,665.876,211.304
856.684,641.72,226.188
873.764,621.468,245.952
947.208,597.8,280.112
942.328,581.696,292.068
913.78,582.916,289.628
887.428,583.892,290.36
861.808,603.412,288.896
820.572,623.176,289.628
756.888,634.888,297.192
717.604,649.04,298.656
715.896,673.44,275.964
657.336,730.292,285.48
543.144,740.052,318.176
502.396,757.376,294.02
447.74,782.508,256.2
399.184,823.5,228.384
340.624,842.288,216.672
267.18,890.6,205.448
192.272,925.736,196.42
149.084,940.62,183.0
127.368,950.38,163.236
105.164,963.556,145.424
47.58,979.66,124.928
34.648,981.612,97.356
9.272,995.764,91.5
17.568,1016.992,84.424
24.156,1031.144,86.132
3.66,1020.164,75.152
-24.888,1000.156,60.024
-96.868,985.516,59.78
-203.008,968.192,63.44
-255.224,962.336,37.088
-270.84,962.092,10.248
-274.744,978.928,14.396
-290.604,1010.404,63.196
-280.356,1034.56,81.74
-185.928,1016.504,57.34
-103.456,1006.5,55.632
-77.348,999.912,87.352
-133.956,972.828,122.732
-172.02,946.232,94.916
-157.868,925.736,50.508
-126.636,949.892,33.428
-117.852,979.416,51.972
-142.008,999.18,75.396
-171.532,995.52,87.84
-162.748,983.808,79.544
-156.404,981.368,81.252
-178.608,987.468,101.504
-187.636,986.98,118.584
-144.448,987.956,119.804
-120.048,979.416,126.636
-107.116,972.34,127.856
-127.856,962.824,132.004
-166.652,947.452,137.128
-192.028,938.424,127.612
-184.708,938.668,112.728
-144.448,964.044,113.46
-117.12,978.44,109.8
-141.52,968.436,101.992
-165.676,962.58,93.696
-179.584,970.876,83.204
-154.94,994.788,84.912
-131.272,1006.988,95.16
-120.048,996.496,102.724
-105.164,986.492,111.996
-111.264,975.268,116.144
-149.816,960.14,121.512
-181.048,948.916,122.976
-189.588,947.452,118.34
-190.076,942.816,123.22
-154.208,951.6,126.392
-133.468,964.288,130.54
-131.272,970.388,120.78
-139.08,972.096,109.312
-153.72,975.268,107.848
-150.06,985.516,111.508
-110.532,1003.084,113.46
-89.548,1003.572,111.264
-116.388,983.076,108.336
-144.692,966.24,105.408
-169.58,954.528,105.164
-177.144,946.72,100.772
-177.144,954.772,102.724
-150.06,966.484,99.796
-137.616,967.46,104.188
-136.152,965.508,103.456
-152.988,960.384,106.14
-155.428,958.432,104.676
-133.224,970.144,102.48
-113.948,980.392,98.576
-124.928,987.468,99.064
-133.956,989.176,104.676
-133.712,989.42,102.724
-130.784,986.004,92.232
-121.512,986.98,94.672
-131.028,985.76,108.336
-135.42,976.488,113.46
-145.912,962.824,115.9
-144.936,959.652,110.044
-139.812,960.14,109.8
-133.468,969.9,110.532
-143.96,971.12,112.24
-155.672,970.632,103.944
-167.384,966.972,94.672
-154.208,967.948,94.672
-135.42,976.488,101.26
-125.172,983.808,109.068
-114.436,981.856,111.02
-113.216,976.976,113.948
-111.752,978.196,118.096
-128.832,972.34,113.704
-144.204,965.264,108.824
-140.3,967.704,96.136
-135.908,972.096,97.356
-127.368,978.44,102.48
-114.436,983.808,97.844
-122.732,980.636,101.016
-140.788,975.024,101.504
-145.912,967.46,94.428
-150.304,971.608,97.844
-137.616,980.636,96.868
-129.076,988.932,101.504
-122.732,994.544,110.044
-133.712,1001.132,114.924
-162.26,1009.428,121.512
-194.224,1025.044,135.908
-211.792,1034.56,142.74
-242.536,1031.388,149.572
-295.484,1021.872,147.132
-318.908,1003.328,136.884
-325.74,975.512,127.124
-350.872,936.472,113.704
-329.888,918.172,88.572
-275.476,928.664,73.2
-218.868,938.424,53.68
-170.8,956.236,56.608
-141.032,946.72,57.096
-114.192,940.132,40.26
-27.084,942.328,30.5
45.14,947.452,55.144
66.368,949.648,82.96
111.508,926.956,94.428
127.612,900.848,88.572
56.12,871.324,115.656
74.42,859.856,119.316
123.464,867.908,126.148
160.064,868.64,173.972
245.464,828.136,152.5
469.7,815.204,143.716
463.356,739.564,197.64
427.732,675.148,312.808
548.756,575.352,409.432
708.576,486.048,453.352
754.448,420.168,534.848
870.104,408.212,557.052
890.356,351.848,598.044
877.18,361.364,620.248
991.86,393.084,564.616
983.808,425.048,528.016
986.736,457.5,512.4
964.288,464.82,506.056
906.46,472.628,502.884
784.948,474.092,468.48
819.108,480.192,435.54
765.428,491.66,413.336
751.276,482.632,391.62
723.46,451.4,374.296
646.112,418.948,364.78
572.424,376.98,334.28
538.02,352.092,289.384
514.84,369.172,271.572
526.064,345.748,278.16
545.584,314.028,284.748
583.16,262.056,292.8
576.572,216.184,307.44
503.372,181.048,330.864
512.4,169.58,341.112
595.848,156.404,349.164
725.656,114.436,355.508
746.152,56.12,351.848
705.648,0.976,369.172
784.704,-64.904,376.004
890.844,-109.312,425.78
955.504,-176.168,435.54
1053.348,-236.436,394.304
1221.22,-320.616,362.584
1234.396,-343.552,398.696
1269.288,-371.368,415.288
1314.184,-402.112,412.604
1331.02,-426.512,374.052
1314.672,-474.092,375.028
1282.708,-490.928,421.876
1243.424,-514.84,425.78
1224.148,-523.868,430.172
1252.208,-515.572,398.94
1259.528,-498.248,399.916
1270.996,-518.5,445.056
1290.028,-524.844,469.456
1269.288,-556.808,476.044
1289.784,-590.236,535.092
1332.972,-644.648,601.704
1331.996,-640.012,633.424
1304.668,-614.88,633.18
1253.672,-614.88,649.772
1223.172,-593.164,674.416
1213.412,-567.788,660.02
1221.464,-550.708,652.7
1229.76,-510.204,650.748
1153.388,-436.516,603.412
1082.628,-342.82,536.068
1089.46,-298.168,494.832
1052.372,-261.08,491.172
939.888,-172.508,498.492
979.66,-118.584,402.112
930.616,-70.028,365.268
859.124,-0.244,325.252
869.128,53.68,288.164
856.928,103.944,297.924
850.096,127.124,269.864
778.36,170.8,264.008
693.448,213.988,225.944
660.02,259.128,189.588
599.264,311.1,162.26
569.984,395.524,126.88
535.092,440.664,109.556
485.804,473.848,89.06
404.552,494.832,67.344
393.084,525.576,36.356
357.46,574.376,55.632
385.276,595.116,69.784
395.28,598.044,106.872
407.724,651.968,108.58
476.044,684.908,119.56
527.284,708.332,145.424
468.724,720.288,159.332
491.66,743.224,159.82
560.712,738.344,174.46
627.812,742.004,203.008
683.688,754.448,209.596
682.224,748.104,216.184
662.704,749.324,216.428
657.092,752.252,219.356
677.1,740.296,228.384
753.716,737.368,234.728
825.696,734.44,245.952
792.268,730.292,247.172
693.692,721.996,246.44
629.764,732.244,262.3
640.256,764.94,257.664
634.888,771.284,263.032
642.208,775.188,267.912
637.084,792.268,253.76
556.564,810.568,242.78
463.844,806.42,241.56
413.092,807.152,258.152
361.364,829.112,244.0
304.756,867.42,221.796
250.344,889.136,193.492
195.2,898.164,169.336
125.416,918.66,152.5
85.4,953.308,136.884
67.1,975.756,111.264
27.084,972.584,95.16
6.1,980.88,93.696
0.488,997.472,81.984
-7.808,989.176,63.44
-17.812,986.492,40.016
-78.324,969.9,23.668
-137.86,967.46,39.04
-158.844,980.636,38.308
-115.168,994.544,42.212
-81.496,1001.132,33.184
-105.896,1004.06,18.544
-145.18,996.496,6.1
-194.468,975.512,12.444
-240.584,967.704,22.692
-238.876,972.096,17.08
-235.46,985.516,-10.004
-234.728,995.52,2.44
-239.852,1004.06,5.124
-250.832,1013.332,6.1
-224.724,1017.968,-9.028
-210.084,1019.188,-11.468
-217.892,1013.576,-16.836
-242.78,998.692,-22.204
-267.18,995.764,-8.54
-266.936,989.176,0.488
-252.54,972.828,11.468
-223.016,961.604,11.712
-218.38,955.26,2.684
-237.9,956.236,6.832
-258.64,959.896,23.424
-265.228,947.452,34.892
-248.148,933.3,30.744
-245.22,931.836,38.064
-237.656,933.788,35.868
-259.128,940.132,33.428
-274.256,949.892,35.38
-275.476,961.848,30.744
-256.444,962.336,31.476
-249.368,954.284,36.844
-251.808,941.596,27.328
-271.328,939.4,21.472
-276.94,953.064,17.812
-267.912,962.336,14.64
-264.008,955.748,17.568
-262.056,945.256,14.64
-260.104,938.668,15.128
-256.688,945.012,17.568
-250.344,958.432,18.788
-246.44,959.652,15.372
-247.66,956.968,7.32
-265.716,950.38,7.808
-278.16,946.476,8.296
-280.112,940.376,1.952
-284.748,935.984,-2.44
-276.208,946.476,-1.464
-261.812,957.212,0.488
-243.512,965.264,4.392
-225.7,976.0,9.516
-231.068,978.44,7.808
-234.972,966.728,0.244
-255.712,955.504,1.952
-276.94,940.132,-2.196
-275.232,937.204,-6.1
-270.84,932.568,-7.808
-279.136,930.128,-3.66
-272.792,936.716,-1.952
-259.372,944.768,-3.904
-249.124,954.528,-6.832
-252.54,957.944,-7.32
-265.96,956.48,-2.928
-262.3,955.016,-0.732
-258.64,953.796,-3.66
-265.228,955.992,-2.684
-266.204,952.576,-1.464
-265.96,947.208,2.928
-261.324,940.376,4.88
-257.42,938.424,0.732
-267.18,941.352,0.488
-274.012,940.62,-1.464
-277.428,941.596,1.952
-272.304,948.672,8.296
-263.032,959.408,5.368
-254.98,968.192,11.468
-258.396,966.24,19.764
-260.592,956.48,18.3
-269.132,951.844,16.836
-278.404,946.72,17.812
-271.084,945.988,20.496
-268.888,946.232,16.836
-263.032,955.016,9.028
-289.872,968.68,4.148
-278.404,978.684,1.708
-260.592,994.788,0.488
-243.756,1009.184,3.66
-243.512,1023.336,14.396
-264.74,1033.828,13.176
-315.248,1038.464,11.956
-360.632,1045.54,12.688
-358.436,1055.544,-3.904
-324.764,1060.424,-10.736
-271.572,1051.64,-16.592
-250.832,1033.584,-19.764
-266.448,997.96,-35.38
-301.34,964.776,-28.792
-349.652,937.448,-10.004
-337.452,909.144,-3.66
-277.916,896.944,-5.856
-216.428,895.236,2.44
-213.5,891.576,19.52
-234.484,878.4,28.792
-212.036,873.764,27.816
-169.336,863.028,35.38
-141.52,864.736,73.2
-117.12,850.828,112.728
38.308,850.584,121.024
193.492,837.408,90.036
143.716,844.728,130.296
98.576,844.728,217.16
218.624,789.828,189.832
360.388,768.6,157.136
436.76,754.448,229.604
385.52,721.264,272.304
462.624,674.172,280.356
640.256,625.372,270.108
688.324,594.628,310.612
737.368,557.296,318.664
761.768,550.708,290.848
739.32,551.928,281.576
696.864,520.94,283.528
748.836,503.86,280.112
771.528,470.92,262.056
693.936,438.956,267.18
691.496,418.216,264.252
701.5,395.524,262.544
651.968,358.192,269.62
638.792,305.732,273.28
679.784,270.352,301.096
720.044,226.92,331.108
724.436,198.372,357.216
722.484,160.796,359.412
751.276,120.78,356.24
730.048,99.308,376.98
772.992,85.644,411.628
835.456,27.572,429.44
839.604,-33.428,421.388
854.244,-130.54,406.26
909.388,-154.696,425.536
939.156,-147.376,449.936
1002.84,-173.972,423.584
1092.632,-242.048,409.92
1145.092,-300.608,398.94
1169.736,-341.844,387.96
1250.5,-400.892,406.748
1243.18,-430.904,482.144
1184.864,-477.264,509.96
1156.804,-529.968,512.888
1170.956,-552.904,495.076
1262.944,-535.336,464.82
1252.696,-486.292,463.112
1325.164,-463.112,426.024
1381.04,-517.524,435.54
1416.664,-570.96,490.928
1391.776,-625.616,579.988
1348.344,-632.204,659.532
1337.12,-633.668,698.084
1312.476,-626.592,714.676
1310.036,-618.54,732.244
1292.956,-612.196,738.344
1236.104,-594.872,734.928
1191.696,-545.584,719.312
1155.828,-495.32,668.316
1132.892,-454.816,653.188
1105.564,-449.448,658.556
1053.592,-438.712,638.06
979.172,-401.136,618.784
884.012,-369.66,601.46
891.088,-324.032,596.092
862.784,-267.912,569.008
823.988,-191.784,512.4
749.324,-105.164,470.432
661.728,-32.452,406.748
578.28,53.436,353.312
538.752,128.832,277.184
487.756,200.812,206.668
461.892,283.04,152.256
381.616,320.86,129.564
289.14,409.92,91.988
233.508,431.88,27.084
239.12,486.048,-21.228
309.392,552.66,-33.916
408.456,572.424,-22.204
451.888,597.312,22.692
501.664,612.196,65.392
563.396,599.508,114.68
694.424,586.332,176.9
840.58,581.94,259.616
894.016,576.328,302.072
887.428,548.512,308.172
848.388,533.628,316.712
809.104,556.32,324.032
771.772,623.42,329.4
749.812,684.664,311.832
714.92,719.8,304.268
693.692,744.2,298.9
652.456,784.948,320.372
556.564,836.676,333.792
493.612,868.396,300.852
439.2,884.988,282.552
406.992,903.532,277.184
363.316,942.816,280.844
325.496,978.684,285.968
302.316,985.76,267.668
272.06,974.292,231.8
230.824,972.828,201.056
187.88,969.656,187.148
160.064,988.444,166.896
132.736,993.324,116.632
84.424,993.324,95.16
37.576,1006.988,94.916
28.304,1027.972,109.312
17.08,1040.172,126.88
3.172,1024.312,109.068
-43.188,989.42,82.228
-101.992,963.312,75.64
-140.788,960.14,84.424
-158.112,962.58,92.232
-166.652,960.384,90.28
-185.684,945.744,80.764
-204.716,922.32,64.416
-248.88,916.952,61.732
-268.4,925.248,54.9
-283.772,938.668,33.916
-313.052,935.496,14.152
-322.568,938.424,9.516
-298.656,947.452,6.588
-291.824,945.256,14.152
-298.168,947.452,18.788
-295.972,938.668,4.392
-301.828,940.62,5.368
-305.0,943.304,11.712
-295.728,943.548,14.64
-290.116,936.472,9.272
-314.516,919.88,-4.636
-343.308,914.024,-4.636
-319.884,933.788,-14.884
-315.736,947.452,-21.96
-349.164,949.16,-22.692
-360.388,955.504,-28.06
-346.48,950.38,-37.332
-349.164,936.472,-31.476
-348.188,929.396,-20.008
-340.38,917.928,-22.936
-349.896,903.044,-26.352
-348.676,896.944,-19.52
-331.352,905.484,-10.492
-322.324,925.492,-5.368
-331.108,929.884,-10.736
-343.308,928.664,-6.588
-347.7,921.832,-13.42
-350.628,913.78,-15.372
-348.92,917.928,-16.592
-346.968,923.296,-20.74
-351.848,926.712,-23.18
-349.164,920.612,-30.012
-341.356,917.44,-31.232
-347.7,917.196,-25.132
-347.212,922.076,-21.96
-345.26,926.712,-18.788
-352.58,920.856,-13.664
-343.064,920.368,-6.588
-335.988,919.392,-12.444
-344.772,918.416,-12.688
-351.848,922.808,-18.056
-363.072,924.028,-21.472
-357.216,928.42,-19.764
-342.332,929.396,-24.156
-340.38,933.544,-23.18
-344.04,924.516,-26.352
-345.26,910.364,-21.472
-346.968,906.948,-14.64
-343.796,917.684,-19.764
-344.772,922.808,-25.864
-351.36,915.0,-25.132
-351.604,906.948,-27.328
-354.776,909.632,-27.572
-359.412,920.124,-19.52
-345.016,934.52,-22.204
-337.452,938.424,-26.596
-336.232,932.324,-24.156
-329.156,920.856,-22.692
-330.864,917.684,-15.86
-342.332,919.392,-10.736
-346.968,916.708,-10.492
-350.628,910.364,-12.444
-347.944,906.216,-14.64
-349.896,910.608,-17.812
-342.332,921.832,-22.936
-336.72,930.128,-28.06
-331.84,942.084,-31.964
-329.644,945.744,-33.672
-340.868,941.84,-34.404
-341.356,939.4,-29.28
-339.16,932.812,-22.936
-341.112,915.244,-21.716
-353.556,896.7,-20.74
-359.412,893.528,-19.764
-360.388,902.312,-17.324
-347.7,917.44,-24.156
-349.896,925.248,-31.476
-343.552,926.712,-34.404
-330.62,932.324,-31.232
-325.74,931.836,-21.472
-324.764,927.932,-20.74
-348.188,913.536,-26.596
-371.368,903.288,-46.36
-389.668,900.36,-55.388
-379.42,907.192,-48.8
-346.48,924.028,-37.088
-319.152,939.156,-21.716
-304.024,940.132,-7.808
-302.56,933.056,6.588
-320.86,924.272,12.444
-358.192,921.344,6.832
-384.788,926.468,1.708
-386.252,941.352,-8.784
-391.864,965.508,-5.612
-404.796,1006.988,-9.516
-426.268,1053.104,-12.444
-472.628,1065.06,-14.64
-536.556,1044.564,-11.468
-577.06,992.592,-10.98
-563.64,973.316,-4.392
-511.668,1013.088,4.636
-440.176,1045.54,25.132
-398.94,1026.508,29.524
-368.684,995.276,11.712
-265.96,985.76,10.248
-182.512,937.692,-8.296
-236.436,892.064,15.128
-277.916,886.208,30.012
-196.176,866.444,56.12
-154.452,843.02,84.912
-108.336,831.552,74.42
-110.776,815.448,87.352
-135.176,823.012,90.036
-106.628,814.472,63.928
-56.364,832.528,75.152
3.172,843.508,86.864
88.816,862.784,79.3
107.604,854.244,115.656
85.156,828.868,144.692
120.048,796.416,165.432
219.844,768.112,165.676
246.684,730.292,235.948
281.82,672.952,252.296
422.852,660.508,265.472
600.972,639.28,275.964
683.2,581.208,338.184
651.236,511.424,428.952
820.816,505.324,459.696
912.072,441.152,500.932
884.256,393.328,527.772
957.456,348.432,548.512
999.424,358.924,547.292
926.468,351.848,530.944
840.092,336.72,469.7
794.952,305.732,400.404
707.6,287.188,366.732
593.408,271.816,344.284
493.124,255.224,355.752
414.068,219.112,365.756
433.588,188.612,342.82
487.756,138.836,293.044
511.424,101.26,251.076
559.004,100.04,252.052
550.464,61.0,284.016
512.156,10.98,305.244
580.964,-34.648,323.056
729.804,-122.976,341.112
870.348,-210.328,362.584
895.236,-281.088,400.648
1096.78,-316.712,412.116
1338.584,-360.632,428.952
1454.728,-379.176,453.84
1564.528,-380.396,464.088
1600.884,-381.372,497.272
1645.536,-400.892,515.084
1684.088,-457.012,562.908
1590.636,-478.24,595.116
1488.4,-520.94,619.028
1396.9,-533.14,662.948
1362.74,-547.048,683.932
1313.208,-522.648,710.04
1299.056,-499.468,683.444
1320.528,-478.728,657.58
1332.972,-475.312,687.104
1301.008,-467.992,712.236
1286.612,-497.272,744.444
1260.992,-509.96,754.936
1283.196,-511.668,756.156
1233.908,-486.78,741.272
1197.308,-458.964,738.1
1211.704,-434.564,721.02
1138.504,-397.964,669.78
1038.708,-346.236,610.488
1024.8,-289.384,551.196
918.172,-243.756,508.74
793.488,-166.164,453.352
701.5,-106.384,388.692
597.556,-39.04,328.912
474.092,73.444,265.472
449.692,147.864,226.92
388.204,219.844,199.348
337.696,274.988,145.912
301.584,344.04,86.376
298.412,392.108,41.968
342.088,465.796,27.084
372.832,503.86,39.772
440.908,552.66,54.9
470.676,585.112,80.276
516.792,604.388,103.212
589.016,609.268,150.06
648.552,644.404,205.936
722.484,644.404,226.676
785.192,632.448,259.372
795.684,629.276,283.284
800.564,622.688,311.344
813.984,615.368,311.1
819.84,619.272,304.512
823.5,620.248,300.12
835.456,619.76,296.46
842.532,631.472,306.22
881.328,632.448,315.736
904.264,626.836,334.036
871.324,606.34,341.6
776.408,591.944,323.544
742.248,630.74,302.316
742.248,670.268,304.268
732.0,701.988,310.368
718.58,730.292,301.584
663.192,736.392,309.148
596.336,766.648,315.004
560.956,787.876,280.112
518.256,787.388,260.348
466.284,813.008,252.54
419.924,836.92,224.236
355.996,859.124,208.376
312.076,875.96,192.272
272.06,899.384,173.972
251.32,911.34,152.256
204.716,934.276,151.036
181.536,951.6,151.524
157.38,957.212,116.876
118.096,945.5,61.488
76.616,935.74,40.504
36.356,961.116,54.412
10.248,979.904,59.048
-16.592,995.52,29.036
-21.472,995.764,-14.396
-40.016,991.372,-7.808
-54.412,994.544,19.276
-71.492,998.936,28.792
-85.156,991.128,14.152
-102.968,968.436,2.928
-95.648,961.116,27.572
-77.104,960.872,35.38
-95.648,955.26,21.472
-134.932,949.648,-5.856
-163.48,946.964,-15.128
-161.284,964.776,-9.76
-154.696,984.784,10.98
-159.332,1005.768,35.136
-147.376,1009.672,28.792
-143.716,999.18,17.324
-151.036,995.52,16.104
-155.916,1001.132,25.376
-166.164,1000.888,40.016
-187.636,993.812,43.676
-221.064,983.32,38.552
-249.124,976.976,32.696
-266.692,971.608,40.748
-257.176,970.632,34.16
-243.024,966.24,30.256
-257.42,951.356,29.28
-266.204,943.792,33.672
-263.52,948.184,29.036
-256.444,951.6,18.788
-257.176,960.384,30.988
-247.904,950.136,34.16
-246.928,944.524,41.48
-239.364,934.764,28.06
-240.34,938.912,20.74
-236.192,955.748,21.96
-235.46,971.12,21.96
-238.388,973.56,27.084
-230.092,969.656,28.304
-222.284,964.288,25.132
-240.828,964.532,33.916
-246.684,960.872,32.94
-241.804,955.504,35.136
-226.676,956.236,30.988
-221.064,957.212,31.476
-220.82,965.508,32.208
-230.092,965.996,35.136
-245.22,953.552,36.356
-243.024,949.404,31.964
-242.048,952.332,27.084
-249.856,947.696,26.352
-246.684,945.012,27.328
-232.532,945.988,27.328
-242.048,950.38,38.064
-225.7,965.752,31.72
-228.14,973.072,26.84
-239.608,958.676,23.18
-221.064,957.212,19.764
-220.332,958.188,21.716
-242.048,955.748,23.668
-246.684,956.724,23.668
-243.756,955.748,31.72
-233.264,952.332,32.94
-227.408,956.48,33.916
-233.752,959.164,26.108
-242.048,957.212,28.548
-222.284,959.652,32.452
-213.5,966.484,36.6
-214.476,964.776,43.188
-223.992,956.48,44.896
-236.436,945.744,45.384
-228.628,946.232,36.6
-233.264,958.432,27.328
-238.144,966.972,19.764
-227.896,972.096,18.056
-219.112,972.828,19.276
-217.404,968.192,19.276
-226.676,961.36,26.352
-236.192,957.212,34.648
-240.096,955.016,43.676
-235.948,952.576,46.116
-232.776,955.504,48.8
-233.02,957.7,43.432
-244.488,956.724,41.724
-244.488,959.164,43.676
-233.508,963.8,41.968
-241.072,967.216,40.748
-245.952,965.996,46.116
-237.168,973.804,48.068
-238.388,983.076,43.188
-250.588,983.076,37.332
-260.348,979.172,25.132
-269.864,966.24,23.18
-258.64,965.996,29.524
-243.268,969.656,32.696
-211.548,971.12,36.112
-162.748,976.976,39.04
-172.508,969.412,34.16
-200.568,957.456,22.692
-216.184,954.772,22.448
-219.6,963.556,21.716
-209.108,982.832,31.476
-190.076,999.424,32.208
-190.076,995.032,25.376
-204.96,989.664,21.472
-211.548,993.568,18.3
-221.796,1002.84,20.74
-234.972,1004.06,25.376
-239.364,999.18,21.96
-241.56,999.18,18.3
-250.344,995.52,14.396
-250.832,995.032,16.836
-223.26,995.52,1.22
-210.816,1005.768,8.052
-211.06,1001.376,19.764
-246.684,988.932,18.056
-218.868,980.88,7.808
-170.8,978.928,19.276
-184.708,970.876,35.868
-194.468,970.144,34.404
-117.608,978.684,34.404
-42.944,966.972,58.56
21.472,960.872,69.54
59.536,940.376,88.084
79.3,907.436,157.136
162.504,880.352,185.928
277.672,842.776,195.932
244.976,808.86,214.476
199.348,793.976,245.464
270.84,711.748,304.512
483.608,662.46,337.452
658.8,600.972,358.436
639.036,496.784,461.404
636.596,406.26,526.796
696.864,354.776,548.756
679.296,361.12,535.58
704.184,403.82,474.824
682.956,446.032,414.068
599.996,474.336,380.152
563.396,471.896,330.376
492.392,420.9,310.856
462.136,363.072,297.68
414.312,315.248,312.32
383.08,264.496,305.732
390.644,229.36,307.928
411.872,237.412,316.712
463.844,211.548,309.148
557.54,172.996,327.448
555.1,149.084,377.224
567.788,99.552,393.328
645.38,26.108,431.88
720.288,-81.984,461.648
754.692,-192.272,470.676
882.792,-269.62,433.832
985.516,-302.316,517.036
1058.472,-362.584,574.62
1162.172,-426.268,571.692
1384.7,-533.872,567.544
1569.408,-651.724,628.544
1501.088,-675.88,750.3
1404.708,-666.364,799.832
1420.324,-682.712,758.84
1411.296,-675.88,724.68
1442.528,-612.196,712.968
1442.04,-584.38,745.42
1386.896,-599.752,797.148
1364.448,-616.588,823.5
1286.856,-624.884,832.284
1282.708,-574.376,815.692
1298.568,-522.16,807.64
1247.572,-490.928,799.832
1231.224,-439.2,716.872
1146.8,-398.452,694.18
1121.424,-358.192,699.792
1150.216,-341.112,665.144
1113.86,-348.676,634.4
1070.672,-348.188,653.92
976.732,-321.592,659.776
869.86,-285.968,621.224
815.936,-223.016,581.696
766.404,-160.796,548.756
731.756,-129.32,520.208
691.984,-69.296,499.956
640.744,-42.212,453.352
612.196,10.736,454.572
582.184,56.12,444.568
602.436,89.06,402.6
622.688,147.62,393.328
684.42,183.244,376.004
578.524,218.136,342.332
500.444,295.484,262.788
433.588,361.852,199.104
390.4,441.884,121.756
409.676,535.092,91.5
392.596,600.24,50.264
430.416,669.536,34.404
403.82,712.724,45.872
421.144,765.672,41.48
479.948,784.948,65.148
493.368,794.464,86.864
524.6,805.444,125.172
542.412,795.44,137.128
578.524,779.092,147.132
629.032,773.968,177.876
640.988,772.016,229.36
668.56,748.348,239.364
699.792,733.708,238.876
728.828,728.34,246.928
747.372,737.856,252.54
727.608,744.932,251.808
703.94,740.784,247.172
718.336,739.32,257.664
699.06,746.396,272.548
698.572,771.528,289.14
691.984,774.7,298.9
664.168,775.676,313.296
665.876,777.872,320.86
624.396,767.38,351.116
613.172,763.72,353.068
629.276,787.144,346.48
598.044,790.072,360.388
543.876,775.432,353.556
494.832,779.336,339.648
449.204,776.652,305.976
378.688,743.468,280.844
330.376,758.108,252.54
277.672,814.228,244.732
209.352,856.684,266.204
186.66,896.7,265.228
172.508,926.956,230.336
162.992,931.592,179.584
138.348,937.448,147.132
84.424,958.188,134.932
27.816,983.32,113.704
28.304,1000.888,53.68
15.128,1030.412,32.208
-37.088,1037.976,34.404
-97.844,1041.392,74.664
-100.528,1034.56,88.084
-67.344,1017.236,62.464
-30.012,985.516,23.18
-64.66,957.456,25.62
-120.536,944.524,42.7
-160.796,933.3,48.312
-196.908,933.544,46.848
-215.696,951.112,30.012
-179.096,979.66,5.856
-140.544,1001.376,7.32
-165.188,1006.256,30.5
-208.376,1005.768,51.24
-202.764,985.028,26.108
-174.46,976.0,23.668
-134.444,982.1,40.26
-107.36,993.568,55.144
-108.336,987.712,56.364
-133.224,969.656,50.264
-147.132,965.02,39.284
-163.724,959.652,36.356
-228.628,979.904,30.256
-225.944,994.056,11.468
-206.912,1007.964,-15.128
-187.392,999.912,-29.036
-183.488,996.252,-29.036
-167.628,1003.816,-21.96
-146.4,1010.404,-4.88
-110.776,1010.648,-8.296
-101.26,1008.696,-7.564
-110.288,1002.84,-1.952
-153.476,988.688,12.2
-183.244,978.684,22.204
-180.804,975.024,33.184
-175.436,968.436,41.48
-175.68,957.212,47.58
-176.168,956.724,47.824
-161.772,964.776,47.58
-151.036,971.364,56.364
-137.128,977.708,59.536
-148.84,975.756,59.292
-156.892,978.928,48.556
-162.016,982.344,41.968
-160.552,978.684,33.184
-161.284,977.22,28.792
-162.016,973.56,27.084
-159.332,976.976,29.28
-161.528,972.096,28.792
-150.548,982.344,12.932
-175.924,976.244,5.368
-157.136,979.416,5.612
-137.616,991.128,12.2
-142.252,976.488,16.348
-143.96,983.076,30.256
-168.116,968.924,40.016
-162.504,967.46,42.456
-157.624,967.216,46.36
-168.848,958.92,46.116
-170.556,960.628,41.724
-157.38,971.364,32.696
-150.792,981.856,31.72
-143.96,986.004,27.328
-150.548,983.076,23.912
-162.26,974.78,19.276
-173.728,965.264,19.276
-174.948,964.288,21.472
-171.044,966.24,27.084
-160.064,969.412,29.768
-147.62,976.976,33.428
-153.476,974.78,32.94
-168.36,970.632,29.28
-164.456,974.048,27.328
-170.068,973.072,25.376
-167.872,973.56,21.472
-155.916,976.0,22.448
-155.672,975.268,25.62
-158.844,971.852,27.328
-158.356,972.584,27.084
-152.256,974.048,23.424
-170.068,968.68,21.228
-177.144,967.216,16.104
-166.652,974.78,16.836
-164.7,979.904,21.228
-166.652,981.612,27.328
-161.528,976.488,26.84
-168.848,971.852,24.156
-174.948,973.316,28.06
-172.996,973.56,26.596
-176.656,974.78,28.304
-177.144,975.756,30.5
-166.408,980.392,37.088
-158.844,977.22,45.384
-161.284,974.536,46.36
-166.164,979.904,45.384
-182.268,982.832,39.284
-193.248,995.276,41.236
-190.564,1011.38,46.604
-196.176,1026.264,45.872
-200.08,1032.852,43.92
-207.888,1035.78,34.892
-221.308,1038.464,22.204
-261.568,1034.56,7.076
-320.86,1032.364,-5.124
-351.604,1041.88,-22.204
-358.192,1034.804,-38.552
-342.332,1039.196,-43.432
-336.232,1028.46,-35.624
-350.14,992.104,-33.184
-375.028,962.092,-39.04
-377.468,948.672,-42.456
-350.872,932.08,-25.132
-308.172,915.0,3.172
-231.312,922.076,8.784
-160.308,914.756,10.736
-168.848,892.064,49.044
-209.84,853.268,36.844
-189.588,817.644,34.892
-111.752,760.548,106.872
75.64,697.596,123.22
265.716,671.488,142.252
336.232,677.1,183.732
128.588,599.996,183.0
409.188,551.44,254.248
770.552,390.4,356.484
909.144,270.108,478.24
923.296,208.62,589.992
756.888,158.356,661.24
833.016,128.588,637.084
1012.844,153.232,631.716
1060.18,219.356,571.936
1026.996,259.616,543.876
830.332,255.712,542.168
697.108,276.452,501.664
690.032,294.996,480.192
712.48,277.428,454.816
705.892,252.296,435.052
613.66,199.104,416.02
558.028,154.452,404.064
544.852,128.344,416.264
537.776,107.36,408.456
557.052,73.2,399.916
576.816,20.252,370.636
590.48,-21.96,375.272
616.344,-62.952,401.624
676.612,-89.304,450.912
698.328,-171.532,456.524
780.556,-258.396,467.504
891.088,-323.544,478.24
966.484,-353.312,516.792
1016.992,-338.672,505.568
1137.04,-354.288,469.944
1237.812,-403.82,481.9
1249.28,-444.08,515.328
1293.444,-487.756,560.468
1240.008,-555.832,598.288
1281.488,-571.692,636.84
1280.268,-592.676,649.772
1248.792,-587.552,634.156
1247.084,-587.552,648.552
1303.936,-568.52,654.896
1357.128,-577.548,652.456
1375.428,-614.636,692.716
1427.156,-652.944,695.888
1392.996,-681.98,732.732
1332.24,-670.268,735.904
1289.052,-644.648,734.196
1219.268,-643.672,741.028
1157.536,-617.808,737.124
1127.036,-592.188,717.604
1068.476,-556.564,690.276
1019.676,-512.156,659.776
999.424,-464.088,608.78
959.652,-398.696,570.716
949.16,-366.976,541.68
948.428,-349.164,530.7
874.252,-304.512,492.148
862.54,-247.904,456.768
816.424,-193.492,436.272
774.212,-119.072,387.228
742.736,-42.456,328.912
686.86,33.916,274.988
602.924,106.384,256.688
588.04,167.384,231.556
541.68,218.624,197.396
518.256,275.964,159.576
481.168,312.076,135.664
487.024,347.7,144.448
496.296,403.576,126.88
531.188,452.376,111.996
517.28,474.336,128.588
494.588,485.56,128.588
547.78,547.292,116.632
582.184,606.828,149.328
622.932,623.908,160.308
711.016,612.928,161.04
755.668,621.468,200.324
741.76,629.276,249.612
760.304,611.952,274.256
814.716,578.28,283.772
904.264,565.836,309.392
930.86,568.032,342.088
879.62,546.316,352.092
862.052,542.412,362.34
889.38,529.968,354.776
925.736,534.604,345.504
967.948,534.848,353.068
941.352,537.776,391.376
870.836,514.596,399.672
863.028,529.236,397.72
871.08,558.272,410.164
864.248,588.528,402.356
838.384,604.144,359.656
789.828,614.148,335.988
709.064,650.504,325.008
656.604,686.616,303.536
589.992,722.972,264.984
522.892,748.592,217.16
475.8,762.988,172.264
437.004,789.584,139.324
391.864,820.816,116.632
341.112,860.832,99.796
287.676,877.668,92.232
234.972,898.896,109.556
173.972,919.636,132.248
163.48,935.252,144.692
166.408,945.256,160.552
169.092,961.116,183.244
154.696,967.46,185.196
136.64,970.144,195.2
112.24,985.516,211.792
73.932,970.632,225.212
26.84,989.908,223.26
-1.708,991.86,176.656
-17.324,992.592,122.0
-3.66,999.18,106.14
-19.52,1016.992,138.104
-42.212,1022.604,162.748
-61.0,989.908,187.88
-54.9,951.844,188.612
-28.548,932.324,160.796
-47.092,925.492,135.42
-112.728,929.152,133.468
-143.472,939.888,129.564
-138.348,952.576,135.664
-75.884,968.436,129.564
-50.996,979.416,120.78
-52.46,990.152,108.58
-107.36,1000.4,108.092
-175.436,1001.376,118.34
-203.984,990.64,118.096
-208.62,981.368,108.824
-202.032,968.68,94.428
-207.156,971.364,88.816
-201.788,982.1,96.868
-176.168,989.42,109.312
-152.744,991.128,101.748
-156.404,984.784,88.572
-164.456,972.096,78.812
-185.684,960.872,82.228
-177.876,959.652,81.496
-135.176,974.048,76.616
-130.54,982.1,76.372
-147.132,971.12,78.812
-152.012,966.972,82.716
-157.624,971.364,92.476
-153.476,974.78,100.528
-143.716,973.072,96.624
-140.056,972.096,91.5
-151.524,980.148,89.06
-146.644,986.492,86.864
-142.496,982.1,87.84
-130.54,976.732,81.008
-132.004,972.34,78.324
-133.224,973.316,86.376
-148.596,973.072,92.232
-157.38,970.632,93.696
-152.988,968.436,91.256
-135.664,972.584,95.16
-132.492,967.704,93.208
-146.156,960.14,87.596
-160.308,955.016,86.62
-144.692,962.824,87.84
-126.148,973.804,91.744
-126.636,981.612,95.648
-127.368,985.76,94.428
-145.424,977.952,89.548
-145.424,974.048,84.18
-143.716,976.0,86.864
-132.248,982.832,88.328
-113.704,990.884,86.62
-116.144,983.808,80.764
-140.544,969.9,82.228
-144.204,969.412,89.792
-111.752,984.052,89.548
-91.256,989.176,88.572
-96.624,983.076,81.984
-131.516,978.684,77.836
-152.5,973.804,75.396
-159.576,971.608,79.056
-160.796,971.12,80.52
-155.672,974.048,80.276
-144.448,975.024,83.692
-144.204,974.048,88.084
-149.572,971.608,96.868
-144.692,984.784,106.872
-162.016,1000.644,114.924
-181.78,1007.476,130.784
-193.248,1001.62,141.032
-182.756,987.956,147.132
-165.432,971.12,150.304
-139.568,945.256,140.3
-132.492,932.324,121.024
-136.884,934.764,96.136
-151.28,954.772,89.304
-147.62,985.516,94.184
-108.336,1026.264,98.82
-58.804,1054.568,111.264
-37.576,1055.3,116.632
-66.124,1031.144,116.388
-119.316,1007.232,116.632
-110.532,1010.404,115.9
-57.584,1042.124,112.728
8.296,1067.5,112.484
76.616,1080.92,96.136
84.424,1064.572,70.516
57.828,1046.76,63.196
33.672,1038.22,74.908
105.408,1036.268,97.112
203.252,1017.236,93.208
277.428,1016.016,81.984
216.916,997.96,87.596
106.384,970.632,122.976
102.968,933.056,126.392
173.972,919.636,117.608
281.576,945.5,107.604
280.6,933.544,98.576
238.144,935.008,105.164
208.62,921.832,120.292
195.932,859.612,153.476
273.768,838.384,155.672
391.132,819.352,152.744
302.072,824.232,148.352
310.612,822.28,174.216
326.716,778.36,173.972
311.344,738.832,201.3
395.28,713.456,248.88
455.548,677.1,269.132
556.564,623.908,293.532
575.352,596.824,305.0
589.26,591.212,332.328
627.812,543.632,345.016
726.632,522.16,393.328
819.108,489.22,418.704
871.812,453.84,465.308
840.824,440.42,543.632
882.06,399.428,573.888
945.744,354.532,584.868
893.772,346.236,582.184
826.672,361.364,571.204
812.276,362.584,536.068
767.136,370.148,497.272
740.296,369.172,438.956
655.14,351.36,379.42
538.02,335.012,312.564
506.056,301.096,265.96
394.792,271.816,277.672
306.708,241.804,294.996
308.904,193.98,313.54
370.636,133.712,283.284
428.464,99.796,256.444
515.816,56.852,242.048
503.616,43.432,288.652
622.2,-3.416,315.248
712.968,-140.056,370.148
730.292,-257.42,415.776
834.968,-309.148,403.332
1000.888,-309.88,404.308
1077.992,-354.288,440.42
1210.484,-426.024,518.256
1290.76,-525.332,582.184
1346.636,-578.524,587.796
1459.12,-592.188,565.104
1528.172,-588.04,579.256
1509.14,-535.58,607.56
1599.42,-486.536,627.568
1625.284,-532.164,745.908
1636.508,-601.46,825.208
1626.748,-679.296,944.036
1582.584,-709.796,1020.164
1570.872,-702.72,1003.816
1524.512,-650.26,1014.308
1442.284,-582.428,971.364
1346.88,-520.452,918.172
1273.436,-496.052,857.172
1215.852,-483.364,795.928
1174.86,-463.844,744.444
1063.108,-471.408,715.408
946.72,-455.548,697.596
862.296,-396.988,623.908
741.272,-333.304,564.616
672.952,-256.688,485.56
581.452,-145.424,411.628
542.168,-68.564,324.52
463.844,33.184,260.348
402.356,113.46,190.076
357.704,187.392,114.68
331.84,252.54,74.42
307.196,316.224,51.728
330.864,347.456,53.192
398.696,379.42,74.42
433.832,415.532,100.284
476.044,475.068,120.536
582.428,509.716,133.956
609.756,544.12,164.212
647.82,569.984,198.616
696.376,570.472,205.448
759.084,575.84,232.288
803.248,549.976,279.38
845.704,537.044,324.276
889.868,519.72,345.748
946.964,504.348,347.7
953.064,512.156,355.508
893.528,518.744,340.624
886.208,543.876,339.404
883.036,540.46,354.288
893.772,547.048,346.48
902.312,577.304,332.572
846.192,578.768,295.484
834.236,586.332,290.36
826.184,608.048,321.592
832.772,604.388,313.54
840.824,608.536,306.22
801.052,588.284,302.316
717.36,607.804,305.244
673.44,627.08,288.896
644.648,661.728,271.084
591.944,699.792,245.708
552.416,726.876,219.356
533.384,766.648,192.272
450.18,815.692,203.008
382.836,840.58,194.224
296.948,862.052,176.9
202.764,879.864,168.604
115.9,904.996,173.972
83.448,935.496,154.208
103.7,956.968,117.12
134.2,975.024,88.328
129.076,1005.524,87.352
103.212,1022.36,101.016
67.1,1025.776,97.356
53.436,1016.504,91.744
39.284,996.496,127.612
12.444,960.628,146.888
15.86,935.74,104.676
-7.808,914.756,64.66
-68.564,923.784,56.608
-128.832,955.016,61.488
-158.112,998.936,52.948
-147.62,1029.924,22.448
-149.572,1038.464,-3.416
-152.012,1038.464,-11.224
-154.696,1047.736,-3.172
-184.22,1048.468,7.076
-212.036,1032.364,12.444
-207.888,1027.24,-0.488
-185.196,1004.06,-20.008
-194.468,983.32,-8.784
-213.256,955.748,-4.88
-238.144,937.936,-5.856
-247.172,924.516,-2.928
-242.536,925.736,5.368
-241.56,934.764,14.152
-239.852,946.72,18.788
-248.392,957.7,19.276
-245.952,956.724,4.392
-243.268,965.264,18.056
-224.236,972.096,23.912
-204.96,978.44,24.888
-183.732,986.248,29.768
-183.488,986.492,31.72
-210.084,973.072,27.572
-230.824,967.948,23.912
-252.052,961.848,31.476
-260.592,955.992,36.356
-250.1,946.964,27.084
-254.98,944.768,30.012
-256.2,950.868,24.888
-236.924,955.504,13.42
-224.724,955.504,15.616
-211.792,954.772,11.956
-214.476,955.504,11.224
-227.896,958.432,8.296
-249.368,959.164,6.832
-278.404,950.38,1.464
-286.7,942.084,2.44
-271.328,947.94,5.612
-270.596,953.308,10.004
-247.172,956.48,12.2
-240.584,958.188,19.52
-238.876,961.36,22.204
-241.072,962.092,12.444
-255.468,956.724,17.568
-261.568,950.136,15.128
-267.668,945.012,18.788
-259.86,941.108,16.836
-263.032,938.912,10.98
-257.664,945.256,2.196
-253.272,954.04,-7.076
-253.516,964.288,-2.196
-253.272,972.34,6.344
-245.22,971.852,11.224
-244.244,959.896,17.568
-243.756,946.964,12.688
-251.076,937.204,7.32
-266.692,937.448,9.76
-263.764,945.256,9.516
-250.588,955.26,10.492
-246.196,960.628,9.516
-245.708,960.628,5.124
-252.784,951.356,5.612
-255.712,944.768,2.928
-254.98,947.696,-1.952
-249.856,953.796,-6.588
-249.124,961.116,1.22
-241.804,961.116,0.0
-239.364,954.284,0.976
-256.932,947.452,10.492
-265.228,946.964,1.22
-265.228,949.16,-4.636
-265.228,950.624,-9.028
-257.908,952.576,-6.832
-245.22,956.236,-3.904
-242.78,960.384,-0.244
-245.952,962.092,-0.244
-244.976,964.288,-4.148
-257.664,958.676,-0.732
-262.3,954.04,3.172
-255.468,954.284,-2.44
-260.592,953.308,-4.88
-282.796,953.064,0.488
-291.824,960.872,7.076
-293.776,974.292,12.932
-292.8,981.612,16.592
-294.508,982.832,13.664
-305.0,985.516,18.056
-313.54,991.616,21.96
-338.916,992.104,25.62
-409.92,982.344,23.424
-442.372,973.316,16.348
-428.708,959.164,15.128
-412.116,944.28,13.176
-394.792,957.212,3.904
-383.08,993.568,2.44
-411.872,993.324,16.836
-395.768,976.488,6.1
-361.364,960.628,-23.424
-297.436,977.952,-24.888
-263.764,979.416,3.904
-256.932,956.48,4.392
-191.784,948.184,-4.636
-70.516,953.064,-8.54
-18.544,913.292,-10.492
-89.792,857.416,7.32
-112.484,821.304,47.336
30.988,791.536,105.652
292.556,692.716,91.744
412.36,658.312,131.272
397.964,596.092,229.604
393.328,496.784,315.004
666.852,372.588,389.912
881.816,288.164,461.404
964.776,279.624,536.556
887.428,295.24,558.272
946.964,318.176,568.032
1032.852,359.168,525.088
1049.932,367.708,506.788
1051.152,386.252,521.916
981.124,399.428,539.24
930.616,396.5,524.6
898.652,427.976,508.008
892.064,473.604,485.804
840.824,482.876,449.204
786.412,486.78,432.612
735.416,468.236,419.924
709.064,448.472,397.476
684.176,425.048,367.708
603.412,383.812,319.396
520.452,356.972,265.96
471.652,316.468,248.636
418.704,263.764,233.996
365.024,208.132,210.572
300.364,173.972,210.816
347.944,156.648,218.38
384.3,113.948,241.56
450.668,63.928,239.364
551.44,-8.296,224.48
597.312,-56.12,269.132
603.412,-115.168,334.036
717.604,-177.876,327.204
925.736,-266.936,349.652
1115.08,-364.536,413.092
1156.56,-444.08,500.932
1196.82,-528.748,578.28
1355.664,-587.552,559.248
1412.76,-600.24,540.46
1516.46,-563.64,505.324
1514.752,-512.156,510.936
1495.964,-491.66,515.572
1431.792,-497.76,561.932
1385.188,-521.916,601.704
1362.74,-549.976,641.72
1359.324,-541.436,668.56
1318.332,-520.696,677.344
1302.228,-490.928,687.836
1306.62,-489.464,671.976
1281.732,-457.256,687.592
1264.164,-453.108,682.224
1220.0,-449.692,663.436
1193.892,-443.348,655.872
1215.12,-470.676,657.092
1233.42,-501.908,661.972
1179.252,-481.9,657.092
1131.672,-434.32,624.152
1108.004,-388.448,607.316
1100.44,-345.26,557.54
1127.524,-314.516,515.084
1067.256,-289.14,529.724
1057.252,-250.588,496.296
1036.756,-194.956,448.472
987.956,-152.5,406.016
946.476,-91.256,355.264
884.5,-49.776,296.216
842.288,28.304,261.812
774.456,84.424,225.212
722.728,152.012,189.1
614.636,200.08,161.284
486.78,247.66,63.684
479.704,332.084,46.36
427.0,401.624,5.612
406.26,448.96,-18.056
401.136,488.488,-32.696
368.44,499.956,-34.16
362.828,560.468,-27.084
385.032,587.796,-17.568
463.356,609.512,-14.396
528.992,636.596,6.1
603.412,669.048,38.552
614.636,682.468,91.744
642.94,683.444,135.42
719.556,657.092,144.448
761.036,644.892,172.508
782.752,645.624,193.492
802.76,649.04,209.352
797.636,641.72,212.768
815.204,638.548,212.524
857.66,640.256,203.496
876.692,628.3,205.448
867.42,627.324,217.648
840.58,632.204,221.552
820.084,636.596,225.456
822.524,643.184,228.628
854.976,663.436,244.0
858.148,666.608,264.74
842.288,650.504,272.06
790.072,642.94,273.768
730.292,651.236,273.768
715.896,677.588,278.404
729.072,714.92,267.18
740.784,735.66,253.516
728.828,766.648,251.32
703.452,780.8,247.66
631.472,800.32,239.608
542.9,810.324,237.656
486.78,830.82,235.948
473.604,847.168,222.772
452.62,849.12,220.576
433.344,864.98,220.088
398.696,865.712,231.068
346.724,879.864,225.212
286.944,867.42,187.88
233.508,858.636,153.964
204.716,884.012,138.836
172.508,913.536,127.368
150.06,956.236,112.972
156.892,980.392,76.616
178.852,993.08,59.536
186.904,993.568,50.264
163.48,982.344,45.384
126.636,977.952,27.572
61.0,955.26,-1.22
-36.844,941.84,-5.368
-89.06,950.624,10.248
-97.356,963.312,-0.488
-94.428,954.772,-40.016
-106.628,941.596,-57.828
-144.204,938.912,-47.824
-170.8,931.104,-37.82
-213.744,911.096,-40.748
-255.712,910.364,-81.252
-274.5,915.488,-116.388
-309.88,945.988,-95.648
-328.424,982.344,-79.3
-325.984,1004.548,-84.912
-304.024,1013.332,-111.752
-270.352,1015.772,-123.464
-239.364,1044.32,-100.284
-204.472,1054.08,-76.86
-201.788,1037.0,-45.628
-187.148,1004.06,-30.988
-154.94,984.54,-15.616
-146.4,969.9,4.392
-151.036,958.676,25.376
-138.104,957.212,27.816
-128.588,950.624,22.936
-147.62,949.648,22.692
-169.092,959.652,29.768
-163.48,970.388,21.716
-146.156,976.244,20.008
-137.616,981.368,17.812
-146.4,977.708,7.076
-178.12,967.216,3.172
-187.636,968.436,5.368
-155.672,985.516,1.952
-138.348,989.42,7.808
-157.868,979.416,2.928
-178.12,963.556,-6.344
-179.34,968.68,0.488
-167.628,978.196,6.344
-161.528,976.732,7.808
-176.412,968.192,14.396
-183.732,961.36,8.54
-186.172,955.992,10.98
-181.048,964.532,6.344
-152.012,975.024,-1.708
-140.788,987.224,1.464
-149.816,987.468,8.296
-148.596,983.808,7.564
-157.136,981.612,10.492
-167.14,975.268,14.152
-172.264,964.532,11.956
-176.168,966.728,9.272
-184.22,962.092,4.148
-180.072,967.704,-4.636
-167.14,977.22,-8.296
-175.924,981.856,-12.2
-189.832,970.388,-16.348
-206.18,961.36,-17.08
-199.104,960.628,-15.616
-191.54,965.752,-8.54
-181.78,964.776,-7.808
-179.828,968.68,-1.708
-171.288,977.22,-3.66
-186.172,976.976,-3.416
-199.592,968.924,-0.976
-205.448,958.676,-6.344
-227.652,959.164,-13.908
-250.832,975.756,-7.32
-281.088,995.032,-5.612
-327.204,1005.28,-8.296
-365.268,1000.4,8.052
-412.604,982.588,13.664
-368.44,987.224,20.008
-290.36,999.424,22.448
-254.492,1002.108,29.036
-251.076,980.88,19.764
-292.068,941.108,-7.076
-286.7,940.376,-19.276
-206.668,990.396,-13.908
-59.536,1050.664,20.984
32.208,1055.788,59.78
105.408,1018.212,42.212
107.36,979.416,19.276
74.908,947.208,70.516
96.136,916.22,110.288
217.16,908.9,104.676
341.112,925.736,100.284
238.144,914.024,143.716
132.248,871.812,141.276
196.908,853.268,79.788
291.824,893.284,111.752
341.844,932.568,166.896
408.456,934.032,125.172
350.384,934.764,151.036
364.78,854.0,198.372
345.016,779.336,225.456
560.224,738.588,285.968
706.624,640.256,463.112
902.556,454.816,521.428
1047.98,390.644,515.572
949.404,427.488,515.816
723.948,432.856,517.524
863.516,460.184,436.272
1014.064,514.84,418.704
903.044,551.684,415.532
751.764,531.676,374.296
764.94,513.376,356.728
782.264,487.512,392.352
794.708,483.364,396.256
757.132,484.828,381.128
683.444,477.996,352.824
661.972,470.188,317.444
590.724,461.648,296.216
575.108,438.712,268.156
596.092,398.696,231.312
551.196,342.82,232.288
490.684,272.792,225.7
376.736,174.46,238.876
287.676,101.504,247.904
224.968,43.92,251.808
271.328,35.136,194.224
367.708,40.504,123.952
394.792,37.332,122.0
475.312,-6.588,129.32
542.9,-90.524,144.936
687.104,-141.276,170.068
777.872,-196.908,245.708
947.696,-300.852,295.728
1131.672,-392.352,323.056
1332.484,-470.92,355.752
1498.892,-522.648,400.404
1602.104,-547.292,479.46
1610.156,-554.124,523.624
1636.996,-571.936,513.376
1683.356,-605.608,514.84
1686.284,-613.416,516.06
1634.556,-650.748,560.224
1563.308,-655.384,558.516
1496.208,-614.636,532.408
1453.264,-559.98,485.56
1415.688,-517.28,471.896
1367.62,-509.228,477.02
1370.06,-547.292,492.148
1317.6,-564.616,512.888
1314.916,-555.832,518.012
1269.532,-524.356,518.988
1238.056,-479.704,499.224
1186.084,-466.04,502.152
1149.972,-463.6,515.816
1139.968,-438.224,493.124
1107.028,-402.6,476.044
1053.348,-354.044,439.444
1057.008,-302.804,394.304
1069.208,-260.592,348.92
1054.812,-206.912,329.4
1016.748,-180.072,331.352
976.244,-139.324,309.88
944.036,-75.396,274.744
966.24,-39.04,252.052
932.08,-12.932,214.72
864.492,79.544,179.584
829.844,161.772,190.564
808.128,225.7,175.192
884.5,261.324,135.664
917.684,292.8,119.56
832.04,316.224,97.844
725.9,352.58,76.128
515.816,409.92,68.564
403.332,475.312,20.496
271.816,522.404,-62.22
164.7,649.04,-113.216
135.908,786.656,-63.684
212.524,812.032,-61.976
341.6,811.056,-80.276
304.268,805.444,-80.032
209.108,806.176,-44.408
194.712,809.104,-19.032
283.772,824.232,-21.96
418.216,847.168,0.244
496.052,892.796,22.936
515.328,903.044,11.712
520.94,907.192,18.3
496.54,907.68,37.088
472.872,898.652,40.26
470.92,899.872,50.508
491.416,892.552,59.048
506.056,904.02,65.88
559.98,908.168,56.364
541.68,919.636,78.08
496.54,923.784,80.032
457.256,926.712,90.524
470.676,924.028,85.4
481.168,925.004,68.564
452.864,915.0,66.856
392.352,909.632,83.692
294.508,922.564,96.136
236.436,920.124,83.448
219.6,935.252,93.94
211.06,937.204,84.424
178.852,940.376,91.256
161.528,959.408,79.788
129.32,961.604,51.728
91.5,971.364,59.78
69.54,979.416,78.324
68.076,999.424,71.004
87.84,1006.5,43.676
42.7,1004.548,26.108
-2.44,1001.864,24.156
-28.548,995.52,33.184
-0.488,1003.084,60.024
55.876,999.18,88.084
50.508,978.928,101.504
-24.156,943.06,72.712
-126.148,906.216,47.824
-171.776,902.068,38.796
-112.972,933.3,48.8
-25.864,958.676,44.164
-1.952,987.712,16.104
-17.324,987.712,3.416
-30.5,994.788,6.832
-2.684,999.912,15.128
14.396,1015.284,8.54
24.156,1029.68,8.784
36.356,1037.244,20.252
42.456,1024.312,33.672
45.628,1013.332,49.532
65.88,1011.624,47.58
63.196,1008.696,57.34
40.504,996.74,67.344
40.26,989.42,74.42
39.04,987.712,85.644
22.448,978.928,89.06
30.5,976.976,83.204
26.352,980.148,86.376
31.72,982.1,89.304
25.376,983.808,93.452
37.576,986.736,88.084
36.6,996.496,77.348
23.912,1001.132,77.104
23.18,995.032,76.616
3.66,989.176,79.544
2.44,983.076,83.936
10.98,978.684,76.128
6.832,976.976,71.248
12.688,980.148,70.76
25.132,972.584,76.86
42.212,968.192,86.132
67.832,976.0,73.688
50.752,979.172,66.856
25.376,984.296,63.928
50.508,1005.036,58.316
40.748,1013.332,64.904
36.356,1003.084,71.004
42.456,990.64,64.904
33.672,979.904,69.54
44.408,981.368,74.664
43.676,976.488,84.668
35.38,979.416,85.4
43.92,990.396,71.248
51.484,997.228,69.296
67.588,1006.744,71.492
68.32,1002.596,68.32
54.412,1001.376,72.712
55.388,995.032,76.86
