acc_x[mg],acc_y[mg],acc_z[mg]
-6.1,1037.732,-55.144
10.248,1034.072,-59.292
21.472,1021.872,-58.56
16.836,1020.408,-45.628
25.62,1020.896,-41.724
18.544,1011.136,-33.672
-0.244,998.936,-32.696
-18.056,1006.5,-47.336
-10.248,1003.816,-69.784
-20.496,997.716,-73.932
-53.924,987.224,-58.804
-87.352,979.904,-40.26
-87.352,975.024,-32.452
-53.436,975.024,-32.452
-17.568,988.2,-60.512
-33.184,1006.988,-80.52
-50.508,1012.356,-77.592
-77.104,1019.188,-89.304
-256.2,1058.228,-57.584
-283.284,1047.248,-34.16
-282.308,1015.528,-49.532
-432.124,1032.364,1.464
-565.348,1039.44,-2.928
-953.064,1110.2,48.312
-871.568,682.224,99.064
89.06,37.088,136.884
804.224,-226.92,415.776
1219.512,-261.568,394.304
1951.756,-208.864,-231.312
1835.612,431.392,-1125.816
967.948,649.04,-800.808
368.684,440.664,126.392
880.108,134.444,156.892
1354.932,-78.324,18.3
1307.84,-31.72,131.028
1131.184,50.996,198.128
1062.864,110.532,163.48
1031.388,110.044,166.408
1081.164,148.108,67.588
1118.496,160.552,27.572
1116.544,117.12,93.452
1066.768,142.496,103.944
983.564,232.044,47.336
977.708,254.736,50.752
944.768,230.092,20.496
946.232,237.9,-4.88
908.9,244.488,-21.716
826.184,241.072,33.672
773.724,243.268,28.304
682.224,298.412,-14.396
724.68,281.576,44.652
785.436,267.912,-9.76
649.528,201.544,-5.124
693.448,163.236,72.956
660.02,188.124,15.372
609.268,202.764,-8.784
749.812,141.032,20.252
913.048,90.768,-53.436
716.384,54.656,-76.616
583.648,107.36,-25.62
556.32,127.856,-22.692
595.848,112.728,16.592
868.884,-67.1,27.816
1014.064,-112.24,10.248
685.884,-72.468,-44.164
693.692,-41.236,-2.196
807.152,-122.244,16.348
915.976,-185.928,-9.516
976.488,-250.344,43.92
922.076,-272.792,50.996
960.14,-353.556,86.376
1251.72,-472.872,43.188
1253.916,-458.964,56.364
1263.188,-465.064,120.78
1314.184,-450.912,78.568
1257.088,-530.456,124.196
1330.044,-525.088,163.968
1317.6,-529.724,165.676
1352.004,-538.264,147.376
1403.976,-563.64,103.7
1324.676,-556.564,120.536
1264.164,-551.196,122.244
1237.568,-522.892,78.08
1291.004,-519.964,12.932
1226.588,-531.188,47.092
1154.12,-531.432,100.772
1114.104,-525.088,102.236
1061.156,-502.396,80.032
1027.484,-516.304,127.368
1048.224,-480.924,69.784
1052.616,-485.316,71.736
1069.94,-479.948,44.164
1055.056,-497.272,63.44
1001.376,-506.544,116.632
907.924,-494.1,168.604
926.956,-495.564,183.488
1129.72,-492.392,77.104
1191.696,-508.74,84.18
1315.648,-526.796,69.784
1324.432,-666.852,274.012
1496.208,-835.212,278.404
1582.34,-812.52,249.124
1459.364,-725.9,233.996
1392.508,-535.092,76.128
923.54,-120.292,-29.28
245.708,444.324,-14.884
699.06,858.88,-380.884
453.596,839.116,-266.692
335.744,797.88,-363.56
482.632,659.776,-262.056
212.524,486.536,26.352
118.828,516.792,8.296
86.62,627.568,-133.224
63.196,709.064,-193.004
185.684,772.504,-299.876
217.648,772.504,-171.776
338.184,734.928,-97.6
427.244,737.612,-58.56
510.204,764.208,-71.492
563.884,786.412,-73.688
621.468,819.596,-156.648
600.484,853.512,-161.772
640.012,787.632,-57.096
688.812,775.432,-58.072
704.672,788.852,-108.336
697.84,847.168,-154.94
678.808,860.1,-136.64
624.152,835.7,-117.608
713.7,853.024,-187.148
669.78,860.588,-121.512
663.924,874.496,-106.872
620.248,827.892,-83.204
621.712,829.356,-111.02
588.04,830.332,-102.968
625.372,840.824,-138.348
651.724,895.724,-135.908
677.1,905.728,-123.952
660.264,883.28,-90.768
653.188,889.38,-103.456
687.592,933.056,-120.048
742.98,935.74,-134.688
712.724,932.812,-100.528
658.556,925.248,-44.896
618.784,941.108,-69.296
600.24,958.432,-102.724
613.172,946.72,-122.0
579.5,959.164,-152.5
482.144,957.944,-89.304
456.524,952.332,-55.632
498.248,965.508,-120.048
472.628,952.82,-99.308
425.292,935.008,-49.532
440.42,922.808,-64.172
436.76,909.876,-97.6
284.504,914.756,-16.348
313.784,932.812,-53.436
345.992,945.5,-32.208
268.644,902.068,26.84
240.584,876.448,53.68
264.496,881.572,-3.172
231.312,870.836,-7.564
232.776,906.704,-29.524
175.68,902.556,-52.216
153.232,983.076,-82.472
201.788,887.428,-132.98
127.124,910.364,-91.012
85.4,937.692,-28.304
85.888,956.236,-8.784
106.14,881.328,-3.172
91.5,917.44,-2.684
89.06,964.532,-12.688
137.372,1008.94,-53.924
147.376,1006.256,-58.56
201.056,1025.044,-86.864
63.44,1028.216,-20.252
31.964,1026.508,26.84
13.42,1029.924,31.476
20.984,968.192,24.644
-0.244,1008.696,-30.744
10.004,994.3,-30.256
4.636,967.704,-52.948
-103.456,970.144,48.556
-8.54,919.148,35.624
179.584,826.184,-5.856
-16.348,886.208,80.276
-69.784,895.236,127.856
-50.996,898.652,75.884
9.028,856.928,30.744
116.632,834.724,-59.292
-27.816,867.664,-0.732
-58.56,846.68,79.3
-81.252,855.708,98.088
-78.08,875.96,79.3
-29.036,885.232,23.424
-20.496,878.4,-12.932
-69.052,870.592,38.064
-81.496,900.848,28.548
-87.84,935.252,14.64
-52.216,923.54,-20.252
-39.04,940.864,-29.036
-50.02,949.404,-7.076
-50.752,967.704,7.808
-47.824,968.436,18.788
-46.848,975.512,13.908
-21.228,999.18,-10.98
-14.396,994.3,-17.324
10.004,990.396,-21.472
-45.872,1013.332,-0.976
6.344,1015.04,-18.056
-19.032,1003.084,6.588
-3.416,982.344,16.836
8.052,987.712,1.952
-18.544,1010.892,-5.368
-29.768,1012.356,-3.66
-50.264,1018.7,-15.86
-100.772,1014.552,23.912
-101.016,1014.552,6.1
-114.68,1011.868,-8.296
-127.856,1006.744,-18.788
-136.152,1002.108,-33.428
-190.32,1014.796,-39.772
-296.46,997.716,-23.668
-323.3,974.292,-0.732
-364.78,956.724,18.544
-441.396,966.972,24.888
-619.516,997.96,9.028
-667.096,971.364,2.196
-736.148,900.36,-81.984
-1114.348,720.044,-107.116
-276.208,-22.448,170.312
604.388,-400.404,412.116
1287.344,-495.808,563.64
1998.36,-456.28,108.336
2070.584,324.276,-742.736
1176.324,468.968,-364.536
476.288,371.124,163.724
863.028,98.82,221.064
1504.504,-276.208,206.18
1578.68,-281.332,244.0
1295.152,-129.076,328.668
1153.144,-53.192,356.728
1190.72,13.664,230.336
1242.448,85.888,134.688
1124.596,132.004,88.816
1137.04,124.928,67.1
1179.008,136.884,26.108
1128.5,165.188,8.54
1070.672,159.332,91.012
1031.388,161.528,106.628
967.216,148.108,160.308
1087.508,134.932,79.3
1011.868,142.008,102.48
1000.644,175.436,89.06
969.656,188.368,55.144
923.54,209.352,61.244
869.372,224.48,74.664
897.676,217.16,85.4
925.736,192.028,73.2
892.064,168.848,76.372
942.084,131.028,111.752
849.12,144.936,43.188
910.364,139.08,91.988
866.2,177.876,5.368
854.244,198.86,5.368
884.744,146.644,15.372
814.96,71.004,18.3
821.304,83.936,123.708
837.652,74.908,130.784
657.336,109.8,40.748
703.208,140.3,111.996
868.152,81.496,85.4
661.24,48.312,-29.768
671.0,68.32,88.572
825.696,-40.748,180.804
977.952,12.444,32.696
887.916,-9.028,89.06
754.692,5.612,42.456
626.104,-52.948,58.56
594.872,-119.072,150.548
834.48,-140.544,101.748
988.688,-134.932,-21.228
999.18,-150.06,-27.572
992.104,-204.228,26.352
1022.604,-216.916,56.12
953.308,-225.7,92.964
782.752,-242.048,236.192
877.424,-309.392,272.304
1112.396,-381.616,200.568
1243.424,-424.804,167.384
1201.456,-399.184,166.164
1060.424,-413.092,272.304
999.668,-410.652,300.12
1138.26,-422.364,185.196
1251.964,-446.764,107.36
1307.596,-465.796,93.696
1256.356,-482.388,161.04
1224.148,-500.2,241.56
1294.42,-501.908,218.38
1292.956,-485.56,218.38
1314.184,-481.412,205.448
1284.172,-486.78,214.476
1224.148,-490.44,250.588
1198.528,-472.628,226.676
1186.572,-449.692,189.344
1189.5,-435.296,149.084
1130.696,-448.716,197.64
1090.192,-456.28,223.748
1030.9,-452.376,239.608
998.204,-444.812,224.724
975.268,-432.856,200.812
951.844,-433.1,191.784
930.128,-429.44,189.588
928.664,-447.496,202.276
957.456,-448.228,193.98
965.508,-445.544,200.568
954.04,-434.564,196.176
951.356,-439.932,204.96
949.892,-419.68,186.66
943.792,-410.408,186.416
909.632,-420.656,270.108
1055.788,-448.96,258.396
1237.568,-490.196,254.004
1322.724,-549.732,368.44
1512.068,-561.444,390.156
1646.756,-599.264,365.268
1722.396,-692.472,412.116
1583.56,-599.996,415.776
1217.804,-301.096,317.2
527.284,195.688,282.796
1041.148,492.148,-121.024
989.664,500.932,-169.824
991.86,563.152,-319.884
820.816,498.98,-116.144
637.328,486.048,157.38
436.028,462.624,144.692
467.992,465.308,-68.808
379.908,533.872,-84.424
215.94,659.532,-104.432
274.256,669.78,-143.228
294.508,743.468,-176.656
106.14,725.656,-48.312
115.656,702.232,-85.156
95.404,679.296,-37.576
149.328,688.812,-56.852
245.464,749.568,-131.028
284.016,832.772,-133.224
335.256,856.44,-87.352
334.036,868.884,-17.08
316.956,835.212,33.916
497.516,818.62,-52.46
437.004,833.748,37.576
463.6,829.356,10.736
478.972,884.744,-21.96
345.26,878.644,52.216
445.544,841.556,-60.024
523.868,853.024,-99.796
387.716,858.636,81.008
365.268,862.54,67.1
476.044,854.732,-47.092
629.032,909.876,-178.364
482.144,912.56,-13.664
574.132,905.728,-47.58
560.224,931.592,20.74
548.512,904.508,34.404
556.808,928.176,-36.356
495.32,905.972,-19.52
509.472,913.292,-40.016
509.96,914.756,-24.888
572.18,929.884,-65.88
490.928,933.544,-5.124
462.38,919.636,-1.22
454.328,936.96,-9.516
512.4,918.172,-61.732
475.312,938.18,-40.992
500.2,936.472,-28.06
607.316,950.136,-118.584
546.072,981.612,-59.048
453.596,946.476,15.616
446.032,934.52,-6.588
483.608,951.6,-39.04
493.612,954.772,-32.452
483.12,936.228,-38.796
462.38,965.508,-51.728
450.668,934.276,-40.504
461.892,954.772,-63.928
448.472,934.52,-41.968
506.788,986.004,-127.368
477.996,959.896,-93.208
450.668,1006.012,-83.204
410.408,1012.6,-35.868
390.156,1024.556,-30.988
499.956,1023.336,-64.172
547.536,976.0,-84.424
421.144,972.584,-33.916
275.72,928.176,30.256
203.496,984.54,2.44
317.932,971.12,-120.292
322.568,939.644,-160.796
256.932,931.836,-47.824
256.444,915.976,-10.98
219.356,913.292,-8.54
164.212,887.916,6.1
104.432,923.052,5.612
82.472,919.148,-7.564
77.104,937.204,-45.384
79.788,927.932,-40.504
73.444,934.032,-15.86
60.756,964.044,10.98
92.72,955.748,-6.588
107.36,960.14,-24.888
94.916,975.756,-2.196
107.116,997.472,9.028
92.964,999.18,2.684
160.552,953.552,-15.128
184.952,916.952,-23.424
87.596,923.052,23.424
90.768,933.056,23.912
107.604,935.008,-6.588
52.704,940.864,-2.928
-1.708,938.912,27.084
10.248,935.74,-7.076
42.7,895.236,-8.784
50.508,891.82,-19.764
24.156,912.56,9.272
18.3,901.092,21.96
12.444,902.556,17.324
61.244,879.62,3.904
53.924,894.992,20.984
12.932,907.436,33.916
32.208,934.032,-8.784
15.86,951.356,-31.72
-5.368,941.596,-0.244
-3.904,934.52,10.004
-39.772,935.008,40.504
-16.104,940.864,24.4
-29.28,976.244,-7.564
7.32,1003.084,-60.268
-1.952,1004.06,-58.316
-21.228,998.448,-34.404
-55.388,997.472,-3.172
-87.352,996.984,7.808
-145.668,994.056,5.856
-304.268,987.956,11.224
-434.564,1076.04,-50.996
-541.68,1138.016,-153.232
-600.484,1133.624,-188.612
-642.94,1102.636,-214.72
-949.404,1052.86,-227.408
-650.504,606.096,-158.844
-212.036,21.472,251.076
408.456,-440.908,666.608
1115.812,-580.476,559.736
1771.196,-396.256,-52.46
2183.068,61.976,-630.252
1529.148,283.528,-608.536
811.788,41.724,6.832
892.552,-103.456,260.104
1376.404,-242.048,24.888
1653.588,-319.884,-30.988
1368.108,-251.808,162.992
1154.852,-167.384,318.42
1033.584,-79.544,268.4
1040.904,2.928,214.72
1120.692,11.956,169.824
966.484,12.444,122.244
992.592,62.708,127.856
973.804,96.624,48.312
977.708,93.208,122.976
951.844,83.448,122.244
959.408,85.156,140.788
963.068,96.136,115.656
1025.044,82.96,86.864
915.244,86.132,87.84
1078.236,99.796,40.016
1052.86,102.968,15.372
1049.444,91.744,69.784
1068.476,59.048,71.492
998.936,53.192,136.884
979.172,57.828,143.472
927.932,59.536,141.032
931.836,67.1,133.224
976.0,66.368,92.232
858.88,87.352,71.98
857.172,106.628,63.928
912.072,124.44,24.888
841.8,128.832,39.528
847.168,99.308,100.284
654.652,97.6,53.436
564.616,121.024,7.808
546.072,112.972,61.244
594.14,106.628,112.484
609.268,125.416,39.528
467.26,152.012,-24.644
455.792,139.08,-53.68
514.84,90.524,12.444
611.708,105.652,-84.912
599.996,24.888,40.992
691.252,-71.98,93.208
634.644,-111.996,170.8
700.036,-66.124,88.572
828.38,-107.604,20.008
882.548,-166.408,65.392
891.332,-201.544,161.772
905.484,-278.648,287.188
970.876,-343.064,381.128
996.008,-296.704,239.364
1060.18,-368.196,208.864
1132.892,-409.676,158.844
1212.924,-533.628,273.036
1386.896,-634.156,285.968
1507.92,-718.58,338.428
1529.636,-729.56,400.404
1496.696,-708.82,421.388
1549.156,-672.952,386.496
1548.668,-646.6,380.64
1492.792,-632.204,368.684
1485.472,-598.288,296.704
1395.436,-531.188,264.008
1327.116,-496.784,235.948
1263.432,-463.356,190.808
1115.08,-436.028,191.296
1083.36,-426.512,160.552
1018.944,-402.356,150.304
953.552,-434.808,182.512
995.52,-459.452,175.436
986.248,-446.52,135.664
957.7,-454.572,162.748
968.68,-448.96,138.836
896.456,-445.3,188.368
865.224,-452.132,217.16
867.908,-442.128,201.3
881.084,-450.668,194.468
911.584,-454.084,184.22
923.296,-450.912,166.896
946.476,-458.964,183.732
939.888,-440.176,177.388
943.06,-438.956,191.54
942.328,-458.72,248.88
1010.648,-457.988,236.192
1078.968,-469.7,223.992
1204.14,-488.244,249.856
1344.928,-496.784,323.3
1663.104,-609.268,413.824
2001.776,-888.404,465.552
2010.072,-898.896,476.776
1277.096,-457.744,443.836
1279.048,-133.468,305.244
1776.076,12.688,28.548
1442.772,90.28,-42.944
1293.932,328.18,-324.276
757.62,387.716,-227.164
583.404,446.52,-313.54
302.804,423.584,-161.284
75.884,368.928,-137.372
-188.368,510.692,-171.532
-358.436,557.784,-181.048
-262.788,604.388,-349.896
-135.176,697.108,-366.732
-213.256,664.9,-106.384
-230.336,601.46,92.232
-27.572,647.332,-12.688
178.364,768.844,-107.36
285.236,806.908,-92.476
529.48,906.948,-52.46
439.932,919.636,172.996
435.052,856.684,152.988
429.196,831.552,71.004
426.512,829.356,-12.932
386.984,870.592,-42.456
416.996,921.344,-122.976
358.68,943.792,-85.644
293.776,853.756,45.872
371.368,815.204,23.424
429.928,869.372,-66.124
381.372,916.464,-44.652
436.272,930.86,-77.836
385.52,921.1,-3.172
485.56,890.356,-36.356
502.396,933.788,-58.56
395.036,912.56,23.668
533.872,915.976,-41.724
526.796,949.16,-11.712
519.232,931.348,21.96
486.78,927.688,42.456
480.68,927.2,10.736
431.636,948.428,-4.636
421.388,941.108,-36.356
419.436,926.712,-59.292
527.772,917.196,-156.892
484.828,951.6,-88.084
470.676,943.548,-27.572
487.756,975.024,-49.044
494.832,978.196,-50.02
579.988,952.332,-97.844
503.616,930.128,-20.252
499.468,888.648,32.696
514.352,894.016,14.396
443.836,929.152,11.468
442.616,951.844,-37.088
508.984,956.48,-124.928
484.584,992.836,-138.592
360.876,1003.328,-48.068
358.68,986.248,-39.284
371.124,946.476,-38.796
389.668,921.832,-14.152
356.728,949.648,-36.6
321.104,927.932,-20.496
346.724,969.168,-46.604
329.4,971.852,-45.872
338.916,986.492,-41.236
370.392,935.74,-91.988
287.92,944.28,-34.404
261.812,926.224,-24.644
197.884,916.464,-2.684
152.744,958.676,-13.176
158.356,936.96,35.868
191.296,930.86,23.424
250.832,958.432,-51.484
218.38,960.14,-26.596
248.88,952.576,-37.82
184.22,948.184,-8.296
131.272,1000.156,-11.224
164.7,961.604,-44.896
165.432,949.404,-50.264
171.044,963.556,-51.972
137.372,959.896,1.22
133.712,949.648,13.664
91.988,967.216,15.616
84.912,973.072,-4.88
128.1,965.264,-40.016
184.952,969.168,-83.936
118.828,952.576,-24.888
69.54,984.784,-8.784
119.072,966.24,-16.836
117.12,959.164,14.884
132.98,959.408,26.596
152.988,947.452,15.128
118.34,951.844,40.748
103.944,957.944,52.216
112.972,991.128,11.224
91.744,996.008,15.372
175.192,997.96,-27.816
134.2,985.272,-0.976
147.864,969.656,-4.636
129.808,967.46,3.904
114.68,953.796,36.356
145.424,960.628,14.884
153.232,983.076,-17.812
71.004,1032.364,2.196
71.736,1064.816,-0.488
142.252,1042.124,-39.528
93.696,1048.956,9.028
75.64,1079.7,41.724
47.336,1114.836,30.256
38.796,1126.548,11.712
-29.524,1153.144,9.76
-38.308,1230.248,-72.468
-54.412,1251.72,-67.1
-119.072,1210.972,-29.524
-78.324,1101.904,23.668
-6.1,1046.028,54.9
12.688,1051.152,111.264
-36.356,1131.184,73.444
-213.744,1171.688,-51.972
179.828,1039.684,-96.136
355.752,867.664,-15.128
-147.132,948.916,19.032
-169.824,962.336,31.476
-675.88,840.58,-8.052
-715.164,442.372,71.004
421.632,-50.996,150.792
1108.98,-248.148,75.64
1269.044,-156.404,-1.708
1033.096,-173.484,-15.86
864.736,-187.392,-33.672
1105.32,-335.012,-119.072
1240.74,-387.716,-54.656
1341.268,-556.808,175.68
1254.404,-481.168,485.072
1042.368,-371.612,611.464
978.928,-328.18,489.708
1123.864,-254.98,330.864
1155.34,-216.428,225.944
1097.024,-188.612,279.868
1008.696,-130.052,268.644
969.168,-93.452,254.004
956.236,-68.808,205.692
961.604,-26.596,181.292
979.172,-6.588,161.284
911.096,19.52,132.736
924.272,67.344,146.888
844.24,88.816,138.592
782.996,95.648,103.212
795.196,110.532,46.36
807.396,111.264,-8.784
786.656,47.58,89.304
773.724,29.28,140.544
791.78,16.348,132.736
601.704,33.916,101.26
701.744,33.916,153.232
638.304,14.64,71.248
451.888,-3.172,37.82
633.18,-41.724,143.716
612.44,-5.124,17.568
714.92,-54.9,22.448
798.368,-59.536,-94.672
719.068,-65.392,-105.652
708.332,-123.708,131.516
786.168,-209.84,256.688
822.28,-239.608,227.408
664.9,-254.736,170.068
710.04,-295.484,202.764
720.532,-292.8,236.924
829.356,-325.984,294.996
934.032,-356.972,207.4
992.836,-374.296,60.268
944.28,-403.088,67.832
866.688,-463.844,243.024
893.284,-549.0,370.392
1056.52,-619.028,422.364
1220.0,-595.604,302.804
1209.752,-532.408,188.124
1117.032,-547.536,214.964
1305.644,-604.144,238.876
1512.556,-689.544,334.28
1487.18,-737.612,516.548
1371.768,-683.932,502.396
1287.832,-652.944,488.732
1269.532,-634.4,444.568
1226.344,-609.024,342.088
1207.312,-584.38,254.004
1273.436,-579.256,190.564
1209.996,-572.424,166.896
1148.264,-596.092,215.94
1077.016,-614.636,303.292
1087.02,-606.34,299.144
1094.096,-610.732,291.58
1085.068,-606.096,268.4
1011.868,-577.548,223.748
1005.036,-577.304,223.016
1004.548,-599.508,281.332
1011.624,-590.236,286.944
1002.352,-599.996,309.636
1075.552,-607.56,304.756
1122.4,-650.504,370.392
1271.728,-719.8,430.904
1363.228,-787.632,460.916
1442.772,-775.92,440.664
1545.984,-820.328,461.892
1657.98,-906.46,467.748
1339.804,-713.456,570.472
1006.5,-351.848,345.26
948.672,-59.536,93.696
1406.904,106.628,-113.704
1239.276,206.912,-152.744
985.028,354.532,-124.196
816.424,286.456,30.744
381.86,353.312,91.5
233.752,509.228,-133.224
-36.6,587.796,-178.608
-193.004,614.148,-280.112
-366.488,660.752,-238.144
-458.232,670.512,-203.496
-329.156,690.276,-303.292
-340.868,744.932,-268.888
-270.108,786.9,-267.18
-129.564,824.476,-268.156
-80.276,823.5,-117.852
-60.024,796.66,15.616
74.42,840.58,-70.76
123.952,912.072,-167.872
112.728,967.216,-197.152
212.28,936.716,-154.696
342.82,1003.328,-217.648
264.984,945.988,-49.044
440.176,951.356,-100.04
349.652,969.412,-28.548
322.324,968.924,-70.272
287.676,994.056,-128.832
158.356,956.968,-60.024
158.844,866.2,-69.784
233.264,864.004,-127.368
144.936,844.24,-50.752
252.296,845.948,-139.324
313.54,940.376,-156.16
323.3,991.616,-119.804
425.048,1017.724,-200.08
362.34,1015.04,-131.516
289.872,972.096,-41.968
391.376,911.584,-106.872
376.98,946.964,-121.024
264.008,960.14,-55.632
236.924,938.668,-97.844
302.804,947.94,-194.956
249.124,979.904,-185.196
311.588,990.884,-197.884
320.86,983.808,-162.016
337.452,948.184,-71.004
325.252,937.204,-23.912
371.612,958.92,-90.036
376.736,987.956,-159.82
339.16,1032.852,-182.756
282.064,1026.996,-146.4
306.22,1002.352,-133.224
376.736,996.74,-169.824
406.504,991.86,-168.848
430.416,1015.772,-160.796
442.616,1012.844,-145.18
429.928,1008.452,-106.628
378.688,986.248,-77.592
331.84,990.64,-75.884
316.224,1042.368,-124.928
294.264,1079.944,-157.624
254.492,1063.596,-130.052
291.824,1063.84,-149.328
294.508,1054.08,-156.404
302.56,1033.096,-147.132
304.268,963.556,-72.224
321.104,1003.328,-89.304
338.428,1022.116,-110.044
369.172,990.396,-108.58
319.152,968.68,-62.708
304.512,981.612,-51.728
270.596,938.424,-38.064
212.524,933.3,-18.056
198.616,952.82,-4.148
278.16,1010.16,-139.812
207.888,949.648,-91.012
158.6,948.428,-70.028
174.948,948.916,-72.224
199.348,946.964,-113.704
196.42,959.164,-138.348
138.348,925.248,-63.44
213.988,918.172,-72.956
190.32,950.624,-119.072
106.14,967.704,-78.812
64.66,955.504,-37.088
28.06,960.384,-8.052
73.2,959.896,-53.436
76.128,933.3,-50.996
88.816,926.468,-54.656
64.172,940.132,-90.036
31.72,1000.156,-91.012
71.248,986.98,-73.2
148.108,972.34,-95.404
127.612,945.5,-54.168
77.104,962.092,-18.3
34.16,959.408,-4.636
27.328,963.556,-22.448
80.52,949.16,-67.588
94.184,947.208,-97.844
92.964,945.256,-100.04
106.628,947.696,-107.116
101.016,939.888,-103.212
59.048,928.908,-41.968
70.272,916.952,19.032
62.952,938.912,19.52
18.544,958.432,11.468
-11.956,953.796,1.22
17.08,957.944,-19.764
0.976,975.512,-51.972
-71.736,977.22,-33.916
-50.02,930.86,-29.524
-58.56,924.76,-48.556
-46.604,936.472,-99.064
-55.388,943.06,-155.916
-122.976,949.404,-135.664
-129.076,967.46,-138.348
-117.608,993.812,-164.456
-182.024,1027.972,-134.932
-298.9,1054.568,-87.84
-198.128,1043.1,-115.9
-230.58,1135.82,-122.0
-343.552,1260.748,-117.364
-320.86,1362.496,-176.412
-243.756,1229.516,-88.572
-297.192,1194.136,65.392
-287.676,1172.42,109.312
-176.168,1194.624,126.636
-252.052,1230.004,141.764
-97.356,1194.38,22.692
-120.536,1194.868,-81.252
-743.712,1155.584,-126.148
-177.388,544.608,184.952
402.112,188.124,368.44
146.4,163.236,407.724
585.6,119.316,-73.688
1323.456,-138.104,-361.852
1316.868,2.44,-585.112
790.316,-11.712,-467.748
510.936,-28.304,-65.636
1007.72,-241.804,-151.036
1350.784,-613.904,-23.912
1212.924,-616.344,183.732
1096.78,-476.776,383.568
1016.504,-460.428,562.42
1004.304,-373.808,682.224
1121.424,-312.564,461.892
1053.348,-269.132,290.116
1097.756,-161.772,176.412
1073.844,-34.404,119.316
900.116,-8.784,115.168
909.388,0.0,160.064
906.948,20.984,125.172
820.816,26.352,146.4
814.96,38.796,69.052
782.264,79.056,-1.952
820.084,105.164,-1.464
687.104,101.016,22.692
649.772,109.8,13.176
699.06,81.252,132.492
625.616,100.04,99.552
436.516,127.612,4.88
675.88,66.856,54.9
573.156,60.512,-26.352
647.82,76.372,73.932
787.632,-7.076,166.408
826.672,-41.968,24.156
443.592,47.336,-32.452
449.448,132.248,123.708
597.312,7.32,214.476
659.288,-59.292,128.1
689.788,-34.16,92.964
615.612,-10.736,5.856
725.656,-45.14,14.152
883.036,-148.352,-13.42
961.848,-158.356,48.556
860.1,-131.272,111.02
807.152,-185.928,160.796
799.344,-224.724,120.292
940.864,-286.7,54.412
1066.768,-285.236,32.452
994.056,-333.548,169.824
942.816,-388.936,238.388
1090.192,-437.98,264.496
1287.1,-491.172,149.816
1219.268,-572.424,239.364
1192.428,-638.06,369.904
1239.276,-686.372,358.192
1321.26,-754.936,369.904
1412.028,-777.384,372.832
1564.772,-760.06,310.124
1593.564,-735.416,269.132
1531.344,-710.528,284.26
1451.556,-693.204,315.004
1369.084,-644.648,275.232
1297.836,-608.78,251.564
1242.936,-598.776,232.776
1138.016,-599.02,262.056
1075.308,-599.02,276.696
1128.744,-589.26,183.976
1089.216,-550.708,109.312
1029.192,-538.264,110.044
985.028,-542.9,161.528
958.92,-558.028,202.52
922.564,-574.376,257.176
956.236,-558.76,204.716
939.156,-553.636,193.736
934.032,-566.324,230.824
968.436,-566.08,238.632
996.252,-542.656,201.544
978.44,-543.144,260.836
1001.62,-571.204,340.868
970.388,-536.8,318.908
969.9,-447.984,223.26
1006.012,-477.508,232.776
1129.72,-436.516,181.78
1359.08,-387.472,54.412
1461.316,-324.764,-0.732
1281.976,-284.26,127.368
1416.908,-277.184,151.28
1293.932,-162.748,221.064
1240.252,-42.944,238.632
1484.496,-9.76,128.344
1536.712,123.952,-81.496
1456.68,138.104,8.052
1317.844,264.496,-44.408
1073.6,319.396,147.376
745.664,387.228,301.096
724.68,367.708,44.408
1110.932,347.456,-255.956
877.668,624.396,-99.308
466.284,745.176,71.004
131.76,714.92,-50.752
-123.708,636.352,-160.308
-212.036,545.096,-266.204
-328.424,658.312,-240.34
-441.884,541.436,-153.232
-478.484,650.016,-151.28
-640.012,679.784,-39.528
-506.3,724.68,-183.244
-329.644,727.852,-189.588
-155.916,813.984,-263.276
-280.6,888.404,-32.208
-35.136,878.644,-66.124
60.512,934.764,-15.128
45.384,906.46,55.876
229.116,892.796,-39.772
115.9,923.784,52.948
208.62,925.248,-47.092
327.936,1047.492,-233.264
144.204,1026.02,-44.164
132.248,953.552,-25.132
354.776,982.1,-178.364
198.86,996.252,-29.036
247.416,999.424,-97.356
233.752,1028.704,-141.276
125.66,980.392,-37.088
148.352,961.36,-94.428
69.296,947.696,-70.516
183.488,956.236,-161.772
122.0,957.944,-87.84
146.156,958.676,-79.544
178.364,1000.4,-88.084
196.664,1004.548,-61.976
251.808,1028.704,-121.756
269.864,1044.32,-109.556
273.524,1027.484,-93.452
243.024,1037.0,-74.908
256.932,1027.484,-117.608
262.544,1070.672,-157.624
214.964,1081.408,-125.66
243.512,1054.568,-143.228
224.48,1033.828,-126.636
198.86,1028.948,-108.336
186.172,987.712,-104.188
167.384,970.388,-102.968
190.076,1004.304,-113.216
183.488,1031.876,-136.884
200.324,1042.368,-145.18
204.716,1018.212,-155.672
198.128,995.032,-100.772
242.78,1015.772,-81.496
266.448,1043.588,-152.744
194.712,1032.12,-136.396
144.936,1032.12,-50.264
162.016,1024.312,-51.972
200.568,1022.604,-76.86
206.18,1041.392,-152.256
96.136,1032.608,-84.668
71.98,1057.984,-61.244
102.48,1108.98,-95.648
240.34,1133.38,-218.38
171.288,1078.724,-130.296
95.404,1083.848,-38.552
117.12,1033.584,-10.492
97.6,996.74,16.592
63.196,991.372,71.736
142.74,937.448,71.492
332.328,874.252,-9.76
224.236,912.804,-0.732
110.776,947.452,13.42
68.808,991.128,19.764
122.976,979.172,0.244
78.812,1006.256,-29.524
110.532,968.68,-27.084
95.16,955.016,6.588
67.832,968.436,17.568
78.324,1017.48,-2.928
209.108,991.128,-48.556
155.428,1023.336,-26.108
124.44,996.496,32.94
109.8,992.836,68.076
76.128,1018.7,31.232
120.78,987.468,14.884
109.8,1013.088,-82.228
-12.444,1016.016,-37.088
-30.256,976.488,54.412
11.956,962.824,89.304
74.908,1030.412,-18.544
89.548,1025.288,-4.392
7.32,1040.904,16.592
19.52,1014.064,21.716
40.26,954.772,38.796
66.124,949.16,6.344
8.052,982.832,30.012
85.888,1022.36,-107.848
23.18,1008.208,-96.136
71.736,944.036,-23.912
52.216,871.324,114.924
34.16,844.972,131.028
130.54,850.34,47.58
64.416,887.184,81.74
41.724,869.128,90.28
30.012,859.856,63.196
-24.644,879.132,69.784
10.492,869.616,52.704
1.952,902.8,-2.44
-0.244,901.824,-29.768
-27.816,893.284,17.08
-86.864,911.096,45.628
-113.704,926.956,30.012
-103.944,942.816,4.88
-41.724,968.68,-84.424
-14.64,971.852,-128.832
-122.244,1017.48,-129.564
-159.088,1004.548,-85.4
-219.6,1009.184,-73.2
-205.448,1036.512,-132.736
-71.248,1002.108,-137.128
-37.088,1053.104,-198.128
-212.28,1107.516,-133.956
-473.604,1095.072,27.084
-417.24,965.02,125.416
-265.228,895.48,66.856
-42.212,732.244,-21.472
-45.384,583.648,-87.352
-192.516,381.128,83.936
173.24,-54.412,294.02
1190.232,-317.932,304.024
1542.08,-317.932,58.804
1753.628,-65.148,-189.588
1421.544,105.652,-222.528
1076.04,75.152,-82.228
1196.576,-26.596,92.476
1365.912,-146.156,115.656
1366.888,-110.776,130.54
1235.372,-58.072,213.5
1114.836,-3.172,194.712
984.54,67.832,162.992
1002.352,127.856,152.744
1002.596,162.748,112.484
1023.824,152.012,105.164
977.22,160.796,152.5
881.572,205.448,86.864
965.508,244.488,54.9
977.464,161.284,110.044
910.608,136.64,128.344
807.64,172.752,135.176
847.9,133.224,142.496
859.368,119.56,66.124
839.604,116.144,53.924
800.808,119.804,61.244
695.644,94.672,96.136
645.868,78.08,99.796
715.896,93.94,87.108
704.916,90.768,61.732
691.74,105.896,34.892
715.408,48.8,80.276
735.66,15.616,81.008
705.404,43.92,19.764
575.596,74.664,-4.636
610.732,91.256,-7.32
720.044,71.248,8.784
838.872,34.648,-45.872
703.208,20.496,-103.944
552.172,24.888,-78.812
602.68,39.528,-22.448
673.684,16.836,50.02
761.036,-38.796,66.856
849.12,-90.036,23.912
863.028,-144.692,50.508
815.692,-153.232,150.304
819.84,-170.312,246.928
864.004,-181.048,225.212
842.532,-142.74,249.856
955.748,-233.508,277.184
1120.448,-308.416,306.952
1272.704,-418.704,276.696
1405.196,-443.348,211.548
1503.772,-457.988,256.2
1539.884,-475.8,342.332
1501.576,-518.5,437.004
1437.892,-568.764,567.788
1405.196,-563.884,576.328
1424.716,-519.964,429.196
1499.38,-503.86,305.0
1517.924,-510.448,303.048
1340.048,-514.596,398.452
1195.356,-533.872,484.34
1207.068,-548.756,449.204
1332.484,-557.052,324.52
1353.224,-498.98,236.68
1248.792,-488.976,270.84
1138.504,-486.78,300.364
1093.12,-499.468,330.62
1047.492,-477.508,323.056
1000.888,-455.792,298.168
986.004,-430.66,255.468
950.136,-424.316,260.592
963.556,-427.0,263.032
1004.792,-422.852,262.544
1043.1,-448.96,275.72
998.936,-426.268,389.912
973.072,-504.104,514.108
996.252,-471.896,545.584
1126.06,-467.504,526.064
1254.16,-470.92,533.384
1424.472,-478.728,452.132
1546.96,-474.092,377.956
1624.796,-444.324,390.4
1832.44,-526.064,413.58
1592.588,-450.424,381.86
1331.02,-222.04,277.672
805.932,174.704,295.972
1102.392,425.536,325.74
1420.568,412.848,123.22
759.572,396.256,149.572
482.144,472.872,-30.744
422.364,493.368,-205.692
172.508,488.488,-90.036
66.368,481.656,-164.944
33.184,612.44,-330.132
-277.184,638.792,-101.748
-379.176,547.78,7.076
-313.296,539.24,-56.608
-306.708,515.572,-82.96
-228.872,545.096,-157.136
-270.84,658.556,-125.66
-193.492,690.764,-134.444
-117.364,780.068,-144.204
-144.448,806.908,-41.968
83.448,832.528,-171.776
115.168,926.468,-207.888
85.4,983.564,-148.108
219.844,960.628,-221.796
170.556,997.96,-179.34
106.872,983.076,-91.988
260.592,959.652,-172.264
255.224,990.152,-179.34
204.228,1017.236,-90.524
209.596,994.056,-36.112
206.912,988.932,-48.556
271.328,1011.136,-112.484
221.552,990.884,-66.612
240.34,964.776,-50.996
325.984,964.288,-100.284
281.82,999.912,-68.808
286.7,951.356,28.304
280.6,965.02,16.348
245.952,994.056,-25.376
253.272,985.272,-75.64
234.728,983.32,-94.916
264.74,986.492,-126.392
164.212,973.804,-52.216
115.9,950.38,2.684
191.052,943.548,-58.804
243.268,957.7,-110.776
194.712,986.492,-48.556
141.276,996.496,1.22
202.52,1012.844,-45.14
223.016,1019.188,-55.144
244.244,966.728,56.608
269.376,920.612,72.712
176.9,930.86,89.304
216.184,975.024,-1.464
210.328,1037.732,-30.012
264.008,1017.968,-22.204
247.172,1001.62,39.04
251.32,998.448,45.14
291.092,1025.288,31.72
270.108,1008.208,125.904
229.36,970.632,237.168
230.336,946.476,195.932
219.112,978.684,66.124
206.668,1063.108,-55.876
198.372,1095.072,-90.524
241.804,1073.6,-124.44
193.492,1010.648,-41.48
185.684,986.736,22.204
186.904,981.124,59.536
224.724,953.552,67.832
210.328,911.828,111.264
224.724,904.508,43.676
208.62,979.66,-93.452
126.392,1058.472,-217.16
122.488,1074.82,-282.308
109.312,1006.012,-190.076
114.68,913.048,-46.36
116.144,898.408,15.86
116.632,945.744,3.172
90.768,1008.452,-51.24
108.336,1060.912,-157.624
105.652,1052.372,-167.384
63.44,1090.68,-99.552
30.256,1100.196,-2.44
148.352,1080.188,10.736
184.708,1124.596,12.2
77.104,1197.552,76.616
36.6,1185.108,81.008
6.588,1165.344,71.492
-15.616,1125.572,62.952
-61.0,1109.712,51.728
-49.776,1108.492,4.392
-65.148,1130.452,-77.348
-47.58,1091.412,-24.156
-2.44,1037.0,80.032
13.664,1028.216,94.184
49.776,1015.04,61.244
2.44,1037.976,23.18
-32.696,1066.768,-25.132
-98.088,1111.42,-102.724
-97.844,1076.284,-110.532
-54.656,958.188,-12.2
26.84,913.536,35.868
14.884,966.484,16.836
-47.092,1005.036,3.66
-93.208,992.348,13.176
-108.336,919.392,109.556
-50.508,877.912,108.824
-22.448,929.152,43.188
-73.444,958.676,6.1
-159.576,973.316,11.712
-186.66,978.196,9.76
-26.596,877.668,-40.504
-34.16,832.528,1.22
-61.244,833.992,39.772
-31.476,858.392,10.492
-56.608,896.456,-44.896
-49.288,907.68,-118.34
-63.196,843.996,-50.264
-38.552,775.432,50.02
-71.736,788.608,104.676
-114.924,866.2,70.516
-74.42,935.252,-65.392
-4.392,962.336,-228.14
-20.496,960.14,-241.072
-97.356,891.332,-38.796
-148.352,879.132,87.596
-135.664,902.556,77.348
-164.456,905.24,53.924
-174.704,968.192,-97.6
-268.4,1132.404,-306.464
-373.076,1117.764,-369.172
-583.404,1024.556,-185.196
-896.944,972.34,62.464
-752.74,920.856,182.756
-794.464,894.016,183.488
-819.596,771.04,43.188
-872.788,217.404,123.22
-112.972,-473.116,137.128
904.508,-1081.164,422.364
1886.12,-884.988,159.82
1643.584,-544.364,35.136
1441.552,-187.88,-236.68
1334.924,-193.248,-269.864
1445.7,-321.836,-97.844
1742.16,-504.836,156.648
1717.76,-471.896,140.788
1255.136,-367.708,175.436
1070.184,-181.78,171.288
1008.696,-109.556,151.768
923.296,-18.544,147.864
881.084,-4.148,162.016
999.668,-8.54,134.932
982.588,62.464,80.032
954.528,83.936,36.112
941.84,58.072,40.748
850.096,68.076,16.836
784.948,51.24,94.672
752.496,40.504,87.108
821.548,1.22,71.736
663.192,-19.764,36.6
637.816,8.54,42.944
634.156,39.772,39.04
617.808,98.088,-6.832
497.76,51.728,80.764
432.612,22.936,50.752
677.832,5.856,69.54
648.552,-15.616,76.128
685.884,9.272,90.28
505.08,55.632,117.364
569.74,-17.812,196.664
835.944,-145.912,174.948
900.604,-189.1,66.856
790.804,-145.424,72.956
712.968,-112.972,251.32
593.652,-145.912,392.84
773.236,-256.688,350.384
1085.068,-311.1,229.36
969.168,-301.34,185.196
922.808,-296.948,186.904
1031.876,-378.688,215.696
1100.928,-431.148,266.204
1239.032,-458.232,356.24
1136.796,-532.408,353.556
1029.924,-532.408,314.76
964.532,-493.856,322.568
1062.132,-539.972,356.972
1117.032,-632.936,574.376
1169.736,-767.38,693.204
1327.604,-747.372,602.924
1304.18,-697.108,525.576
1267.824,-663.68,476.288
1289.784,-696.132,489.464
1307.108,-692.472,406.504
1336.632,-696.376,366.488
1265.872,-691.984,373.076
1199.748,-666.608,321.348
1074.332,-622.688,284.504
1052.128,-584.38,272.06
984.54,-589.992,326.716
980.392,-593.896,359.656
911.584,-599.752,366.732
803.248,-579.012,346.236
823.5,-570.228,361.364
836.188,-571.204,368.44
797.88,-582.672,379.908
830.332,-596.58,400.648
837.896,-587.796,386.252
832.04,-586.332,392.108
840.336,-589.504,408.212
833.748,-594.628,419.192
819.108,-575.108,420.9
814.472,-566.324,428.708
823.256,-547.78,442.128
874.984,-552.904,444.812
888.892,-551.44,434.32
929.152,-556.32,433.1
1002.352,-581.208,476.776
1287.1,-633.668,499.468
1169.248,-698.816,626.836
966.484,-681.004,737.856
1106.296,-549.976,595.36
1705.56,-682.224,350.384
1798.036,-848.144,430.66
1386.164,-997.472,788.364
922.564,-726.876,877.912
472.384,-313.54,686.616
223.992,334.28,455.06
1095.072,577.792,-245.952
515.328,514.352,43.188
495.32,681.98,-50.508
380.64,584.868,41.48
202.52,547.048,56.364
156.892,506.788,40.504
-3.172,577.792,79.788
-7.32,655.14,-83.448
-0.244,801.54,-244.488
-122.732,845.46,-151.524
57.34,848.144,-211.06
9.028,831.796,-75.64
186.66,843.264,-128.1
107.36,843.264,-9.028
220.332,817.156,-50.752
398.208,876.692,-173.972
245.22,871.08,33.184
355.508,854.244,-42.7
542.656,941.596,-173.972
442.128,929.152,30.012
543.632,913.78,-29.036
537.044,928.42,-7.564
425.536,884.5,84.668
575.352,828.136,-50.996
650.016,911.584,-104.432
415.044,910.608,111.508
431.392,884.744,38.308
379.42,852.536,31.72
605.12,870.592,-175.192
509.228,931.592,-74.908
533.384,987.956,-59.536
519.72,966.972,-12.932
461.648,956.48,12.2
504.104,920.856,-28.304
609.268,937.936,-113.46
528.992,977.708,-36.356
541.436,976.488,-51.484
540.46,959.164,-80.276
563.884,955.504,-156.648
470.676,956.724,-123.952
500.444,948.184,-147.62
467.748,965.02,-136.64
470.92,973.804,-101.26
475.068,965.02,-97.6
429.928,930.616,-28.06
358.192,936.228,-22.692
379.664,972.584,-120.78
303.292,980.636,-111.508
329.888,979.904,-148.352
241.072,949.648,-102.236
262.788,970.144,-155.916
244.488,972.584,-154.94
182.268,946.232,-99.796
100.772,919.392,-5.124
163.724,889.624,-25.376
190.32,875.228,-31.232
134.444,880.84,41.968
125.172,914.024,25.376
117.12,952.088,-17.08
103.456,947.452,-62.952
149.572,931.592,-86.62
155.184,932.08,-90.768
174.704,933.056,-46.116
160.064,936.716,-22.692
91.012,957.456,33.184
102.724,937.936,51.484
102.968,912.072,86.132
128.1,917.684,106.384
93.452,922.32,113.948
120.78,925.98,65.392
114.924,956.48,8.54
10.248,947.94,55.388
-15.86,928.42,96.38
51.24,969.412,85.156
63.196,992.592,82.472
83.936,979.66,68.808
182.512,998.204,-59.536
120.048,989.176,-18.3
88.328,1003.816,-22.692
21.96,1021.14,44.408
35.136,998.936,86.376
23.18,966.24,108.824
95.404,985.028,40.748
51.972,1027.24,13.664
75.152,1047.248,-22.204
37.576,1109.956,-43.676
11.468,1185.352,-83.448
14.396,1238.056,-101.26
-9.272,1187.792,-34.648
54.168,1153.388,-52.46
18.544,1175.592,-30.5
-31.476,1207.068,-8.784
-10.736,1180.472,-6.832
-60.268,1170.712,-14.64
-75.152,1158.268,-39.772
-102.236,1129.476,-32.696
-87.352,1087.508,-14.884
-50.508,1074.088,-40.016
-78.568,1106.296,-22.692
-45.628,1077.504,1.464
4.148,1025.044,21.716
35.38,975.268,37.088
-45.14,1022.116,29.768
-13.42,1025.288,-10.248
50.508,998.204,-5.856
10.736,977.22,68.808
57.096,935.008,73.444
92.72,905.972,57.828
21.472,929.884,69.784
3.904,929.64,64.416
51.484,906.46,25.376
71.736,922.564,-26.352
4.392,914.756,38.308
46.36,864.736,93.94
42.7,863.516,54.412
-48.8,899.628,12.444
-79.056,951.112,-44.164
-98.82,975.756,-99.064
-97.112,957.944,-128.588
-228.872,983.564,-106.628
-253.028,929.64,-17.568
-308.66,915.244,50.996
-361.364,958.676,33.184
-427.244,999.912,-82.472
-566.812,973.072,-170.556
-1152.412,1098.976,-145.668
-1025.776,1103.612,-208.864
-649.284,807.64,-154.208
-1486.936,776.164,28.06
-818.132,206.424,217.404
-500.932,-245.708,538.02
68.564,-491.416,629.032
1135.332,-504.592,149.084
1835.612,-415.532,-259.616
1058.472,22.448,-239.608
731.756,-128.588,-326.228
1101.416,-427.976,-147.864
1711.904,-853.268,163.48
1770.464,-821.06,297.924
1330.288,-552.904,390.156
1205.116,-334.28,280.356
1149.484,-311.344,181.78
1357.372,-345.504,64.416
1374.696,-298.656,72.956
1131.916,-233.508,187.636
1019.432,-112.24,280.356
891.332,-16.592,207.888
1014.796,25.132,211.304
1052.128,12.688,56.852
1145.824,5.612,32.696
1084.824,-12.688,42.456
1031.388,-24.4,61.488
1018.456,12.2,58.56
976.0,1.22,108.336
1035.048,-8.54,75.64
999.18,-43.432,112.728
930.128,-45.14,166.164
887.916,-18.544,116.876
852.048,21.716,108.092
808.86,64.904,9.76
851.316,57.096,12.932
820.572,48.312,21.472
709.796,47.336,23.424
728.584,43.432,85.644
743.224,-10.248,95.404
673.928,5.856,44.652
591.7,45.14,80.52
667.584,12.444,7.32
693.936,-56.364,-8.052
754.936,-46.604,-41.48
669.78,36.356,58.804
663.68,-24.156,120.78
756.888,-52.216,-12.932
723.216,-61.0,-106.628
660.264,-68.564,19.52
652.212,-82.228,91.012
569.984,-140.3,168.604
728.34,-194.224,234.728
951.844,-255.224,133.956
1064.328,-315.98,100.284
765.428,-302.804,131.516
870.104,-282.308,248.636
862.54,-316.468,214.232
796.416,-365.512,197.152
918.904,-450.668,290.116
939.888,-438.224,259.616
635.62,-394.304,181.536
698.328,-419.924,200.08
945.256,-501.42,158.356
1152.9,-723.704,110.044
1178.764,-817.156,132.248
1144.604,-784.216,191.784
1162.172,-778.36,280.6
1333.46,-783.972,302.072
1437.892,-810.324,310.612
1354.688,-783.24,322.08
1275.632,-733.22,381.372
1230.248,-731.268,470.432
1230.98,-745.42,459.208
1325.408,-707.6,283.528
1279.292,-653.676,165.188
1243.424,-653.432,230.092
1127.768,-652.456,299.876
1142.652,-648.064,253.76
1135.576,-634.4,194.712
1081.652,-607.804,171.288
1099.22,-586.576,153.476
1056.032,-595.116,187.148
1020.164,-609.512,245.952
1010.648,-590.236,260.348
926.224,-557.052,235.216
846.436,-544.852,238.876
892.552,-566.324,288.164
1013.576,-555.344,261.08
1073.356,-561.932,277.184
1178.276,-503.616,206.424
1271.484,-612.684,286.7
1490.108,-719.068,453.596
1762.656,-810.08,547.048
1807.796,-790.316,509.472
1902.224,-883.524,537.532
1644.56,-883.524,593.164
964.288,-648.552,533.384
666.852,-243.512,395.524
1193.648,-106.872,130.296
889.868,178.364,53.192
636.352,245.952,50.264
313.296,354.044,-42.456
175.192,371.612,16.836
161.772,448.228,-71.98
52.948,464.332,-123.952
43.188,585.112,-219.844
-64.904,744.2,-163.724
-89.548,714.188,-194.468
-39.04,792.024,-280.6
-74.908,815.204,-201.3
189.344,844.728,-327.204
228.384,937.204,-214.476
91.988,938.424,6.344
240.096,851.072,17.812
454.084,964.044,-20.984
285.724,977.708,68.564
108.824,921.344,103.212
89.06,914.268,-6.344
35.38,888.16,-19.764
107.36,878.156,-69.052
183.732,885.232,-105.408
131.76,937.692,-91.012
115.9,979.172,-114.68
70.272,961.116,-101.992
304.024,873.032,-200.08
297.436,954.528,-123.22
250.1,982.588,-10.736
225.212,973.56,1.464
335.5,912.804,-60.268
314.028,955.992,-23.424
240.34,955.992,31.72
325.252,901.58,-33.916
274.988,931.592,-59.048
217.16,937.936,-45.384
255.712,906.46,-81.74
301.34,949.648,-109.312
285.724,973.072,-59.292
271.572,965.996,10.98
247.416,959.164,54.168
433.344,891.82,-65.636
412.116,963.068,-67.588
325.74,990.152,2.928
296.216,952.82,20.008
356.24,931.104,-45.14
329.156,936.472,-64.416
415.288,1004.792,-126.392
347.456,1011.136,-62.22
401.38,999.424,-96.38
375.76,1029.68,-84.668
338.916,1022.604,-11.956
419.68,1085.068,37.576
544.12,1141.432,-1.22
572.912,1158.268,-63.928
536.8,1138.016,-94.428
448.716,1087.508,-68.808
434.32,1081.652,-142.008
353.8,1050.908,-130.54
384.3,992.592,-155.672
326.716,954.772,-91.744
245.22,914.268,-22.936
242.048,890.112,-6.344
219.6,918.904,-12.2
207.644,949.404,0.976
172.752,940.132,12.932
88.572,906.948,32.208
71.98,917.196,9.516
-13.176,933.056,1.708
-17.568,940.132,-19.764
28.06,924.028,-118.584
70.272,922.564,-110.044
98.088,942.572,-120.292
-28.304,974.292,-26.108
14.152,950.868,-20.008
-40.016,945.744,40.992
12.2,932.08,76.372
86.132,875.716,77.592
5.612,946.72,61.976
-16.104,983.32,48.312
44.896,993.568,-17.324
32.94,1013.332,-30.012
66.856,996.252,-70.516
15.128,1024.068,-46.604
-8.784,1049.444,-53.192
-85.644,1100.684,-22.448
32.696,1045.784,-0.488
29.768,1009.672,21.96
-33.916,1005.524,27.816
73.932,1000.644,-101.504
6.344,1033.828,-67.832
30.988,1007.476,-47.824
-18.3,1016.016,-1.464
-29.768,1021.872,20.252
-45.628,1009.672,17.324
11.712,993.08,3.904
56.12,1008.696,14.396
21.228,1019.92,87.84
-29.524,1026.752,96.868
-137.86,1038.952,116.388
-88.572,1025.776,71.98
-97.6,1070.184,-21.716
-100.04,1086.288,-103.456
-154.452,1086.044,-100.528
-121.756,1044.076,-86.62
-74.42,1034.316,-133.468
-115.656,992.592,-59.048
-141.276,941.596,47.092
-121.024,892.552,82.96
-115.412,876.692,72.468
-133.712,896.456,46.848
-168.848,903.044,37.088
-203.008,915.244,-26.108
-241.316,886.94,4.636
-214.232,864.492,28.06
-167.384,851.804,5.856
-156.404,876.692,-25.864
-152.744,881.084,-24.156
-181.78,892.552,-23.18
-145.668,910.608,-98.576
-136.396,911.34,-114.68
-147.864,899.384,-97.6
-208.62,905.484,-54.412
-172.264,896.7,-61.732
-146.156,917.684,-109.8
-139.324,934.032,-134.688
-195.444,956.724,-116.632
-203.496,940.132,-95.648
-181.536,936.716,-89.304
-187.636,944.036,-65.148
-175.192,960.628,-75.396
-243.756,966.728,-50.996
-241.072,958.432,-60.756
-229.604,962.824,-98.332
-287.676,970.144,-84.18
-319.152,960.628,-82.716
-396.5,987.468,-57.828
-402.6,994.544,-45.14
-368.684,998.692,-93.208
-415.532,1016.748,-128.832
-514.108,1020.896,-80.764
-721.264,1066.28,-71.248
-961.604,1072.136,-127.124
-1163.148,1052.128,-127.368
-1165.832,1034.316,-91.5
-1185.108,977.952,-69.052
-1043.344,888.648,-163.968
-1316.136,677.344,-124.684
-1191.208,195.932,-8.052
-479.948,-484.828,322.324
169.336,-928.42,579.256
734.196,-1023.336,468.724
1753.14,-929.152,50.508
2314.096,-509.228,-531.676
1339.316,-95.404,-800.564
707.844,-253.272,-226.92
1068.476,-524.844,-84.424
2071.56,-844.728,38.064
1981.524,-878.4,392.596
1356.152,-628.788,640.5
1077.504,-317.2,412.116
1216.828,-151.768,196.42
1248.304,-112.24,48.068
1251.72,-46.116,-8.052
1151.436,7.808,-52.948
1057.008,64.416,-57.34
1034.316,101.26,0.244
933.3,95.892,65.148
594.14,122.976,41.48
790.56,103.456,144.448
789.34,93.452,64.904
702.232,101.504,20.496
784.46,89.304,7.808
772.992,72.712,15.86
736.636,74.908,-3.66
687.348,101.016,30.988
518.5,103.212,-88.084
596.58,82.228,36.356
621.224,92.476,32.452
724.436,61.0,48.312
849.364,-13.664,132.248
707.844,7.808,30.5
344.284,33.672,19.032
681.98,-15.86,38.308
899.628,-114.68,0.244
1011.624,-176.412,-0.488
875.716,-175.924,139.08
552.172,-159.576,172.752
709.308,-172.02,237.412
924.516,-226.432,143.228
897.676,-242.048,101.26
764.696,-243.024,212.036
697.84,-218.136,204.228
785.68,-287.432,238.876
947.696,-348.92,189.344
979.66,-403.82,175.68
962.336,-449.448,203.74
957.7,-450.424,265.228
1014.796,-470.188,271.328
1124.596,-507.032,238.144
1199.016,-610.488,274.5
1262.456,-676.124,300.608
1296.86,-668.804,283.284
1244.4,-648.796,257.42
1214.876,-643.672,254.248
1237.08,-628.788,257.176
1248.792,-610.976,269.376
1212.68,-622.444,305.244
1223.172,-611.464,267.668
1303.692,-574.864,167.872
1316.868,-603.412,144.448
1306.864,-584.868,118.096
1282.22,-597.068,140.788
1209.752,-615.124,196.176
1174.128,-607.072,259.372
1102.636,-619.516,295.484
1111.908,-609.268,241.072
1136.552,-623.908,211.304
1115.324,-622.932,201.3
1074.576,-615.124,225.456
994.3,-608.78,254.248
904.264,-596.58,292.312
866.444,-585.6,299.876
854.488,-585.356,298.656
891.576,-583.892,241.316
926.956,-586.576,207.644
907.436,-588.04,221.796
907.68,-559.736,210.084
949.16,-576.816,245.708
1022.604,-606.828,293.776
1176.568,-674.416,360.144
1107.028,-664.412,452.132
1423.74,-701.5,295.24
1726.056,-716.872,149.328
1978.596,-968.68,224.48
2150.86,-1179.74,335.988
1224.88,-1075.552,831.308
541.68,-279.868,549.976
1054.08,210.816,74.664
1579.412,203.984,-250.1
1154.12,356.24,-207.644
893.772,424.804,-247.172
425.536,433.344,8.052
270.108,385.52,-115.412
182.512,439.2,-270.108
65.636,580.232,-272.548
-127.124,703.208,-233.264
-302.316,676.368,-126.88
-290.36,698.572,-170.8
-353.556,623.176,-125.416
-355.508,622.932,-144.936
-513.132,603.168,45.384
-425.292,609.756,-0.244
-370.636,668.072,-67.1
-221.064,643.428,-106.384
79.788,750.056,-234.24
61.488,860.344,-71.004
37.332,885.232,-3.904
363.56,896.212,-191.784
391.376,963.556,-87.596
318.908,1001.62,19.032
299.876,1014.796,-68.076
331.352,1009.184,-174.948
227.408,1018.456,-132.248
150.304,957.944,-87.108
285.724,943.548,-237.656
153.232,954.04,-131.76
221.552,1041.88,-182.268
215.452,1082.872,-142.252
204.716,1027.484,-90.28
305.732,1020.652,-180.804
212.036,981.124,-69.784
269.864,946.232,-57.34
247.904,956.48,0.732
295.728,949.648,10.004
418.46,981.612,-56.608
316.956,1009.428,33.184
364.78,1046.028,-38.308
319.884,1046.76,-22.448
265.472,999.424,51.24
388.448,979.904,-0.244
285.724,970.876,78.324
187.148,939.644,127.856
131.272,923.052,127.612
204.228,911.34,26.596
298.412,988.2,-139.812
253.76,1067.256,-147.864
222.284,1082.628,-85.156
192.272,1036.512,-17.812
144.692,981.368,53.436
132.248,912.804,99.064
168.604,898.408,41.236
177.632,954.04,-28.06
219.356,1035.048,-130.54
144.448,1059.448,-61.732
153.232,1013.088,9.272
177.876,982.344,21.96
207.888,990.64,19.276
215.94,1024.312,-0.732
175.192,1058.472,-4.88
212.768,1081.896,-117.608
154.208,1082.628,-124.44
143.472,1063.596,-77.348
148.596,1041.636,-72.468
150.304,1004.792,-64.172
159.576,1006.5,-71.004
70.76,987.956,-13.908
97.112,959.408,-40.748
120.292,925.004,-100.04
89.06,918.172,-108.824
51.728,926.712,-90.768
48.312,919.636,-78.08
40.26,911.096,-69.784
21.472,933.056,-56.608
11.468,939.4,-29.524
21.228,928.176,-19.764
21.96,953.064,-22.204
15.86,985.028,-15.128
-15.372,1030.412,-12.932
-32.452,1069.452,-4.392
3.416,1113.128,3.172
-10.98,1138.992,37.576
-24.888,1151.924,51.728
22.692,1150.46,9.76
-25.132,1153.144,15.372
-57.828,1159.244,-1.464
-60.512,1174.128,-40.26
-70.516,1155.34,-24.644
-35.136,1117.52,1.22
-11.956,1095.56,8.784
-30.256,1149.484,-34.16
-77.104,1173.396,-59.048
-117.12,1132.404,-27.328
-144.204,1097.268,16.836
-98.82,1028.948,45.14
-63.684,1002.352,45.14
-106.628,1011.136,71.248
-168.36,997.228,97.356
-233.264,976.0,103.212
-202.764,884.5,108.824
-131.028,849.852,60.268
-213.5,863.028,78.08
-252.54,864.004,45.14
-244.488,834.724,-2.684
-234.972,801.052,-52.46
-261.812,768.112,-78.812
-252.052,713.456,-45.628
-327.448,700.768,48.068
-350.872,716.628,37.82
-369.172,730.78,4.392
-363.804,750.056,-36.356
-402.6,784.948,-72.468
-498.98,788.12,-53.924
-530.944,820.572,-74.176
-610.488,850.096,-65.392
-655.872,851.072,-40.992
-672.22,859.368,-9.272
-687.348,886.208,-2.44
-691.984,900.116,-24.888
-746.64,943.548,-78.568
-720.776,915.976,-86.62
-763.476,912.56,-71.248
-784.46,896.7,-27.328
-788.12,856.196,12.2
-1105.076,911.584,29.036
-1378.844,740.784,-48.068
-977.464,126.392,-64.172
-103.7,-525.82,81.984
485.804,-786.656,390.4
920.368,-854.244,465.796
1761.924,-796.416,211.792
1872.944,-447.008,-311.588
1657.248,-223.26,-271.084
1339.316,-319.152,-29.28
1457.9,-363.316,-56.852
1758.508,-354.532,-14.64
1593.808,-322.812,170.312
1080.432,-231.312,357.216
823.012,-58.072,505.08
793.976,-7.564,350.628
999.18,-10.248,242.048
1136.064,25.132,111.02
1095.316,60.756,59.292
1022.848,157.38,-23.424
1003.816,154.94,81.74
887.916,113.704,94.184
1062.864,70.272,142.008
1056.276,14.396,159.088
1026.752,-8.052,130.54
1011.38,18.788,158.356
846.924,73.444,105.164
879.132,101.016,35.136
886.208,101.992,10.492
773.48,113.948,4.148
664.168,53.436,38.552
821.792,-27.084,24.888
789.828,-23.424,-9.76
573.644,38.552,25.62
489.22,94.916,57.584
469.7,80.764,74.664
605.852,52.948,60.268
643.184,-39.04,8.54
546.316,2.684,-43.676
498.98,13.664,73.688
557.784,2.684,143.228
624.396,-44.408,114.68
703.94,-63.684,61.488
685.396,-26.596,50.02
618.296,-8.052,180.56
724.436,-123.464,209.352
771.772,-204.716,172.508
858.636,-213.988,103.7
862.052,-246.196,104.676
1058.716,-319.152,138.348
1220.0,-330.376,108.824
1266.116,-332.572,109.068
1254.16,-331.352,127.368
1092.632,-376.98,193.004
994.3,-465.064,315.004
1129.72,-569.496,412.36
1302.228,-674.416,382.348
1369.816,-760.792,396.988
1321.26,-740.54,412.604
1289.784,-651.48,355.996
1249.524,-625.616,348.432
1265.872,-630.74,315.736
1326.872,-661.972,307.44
1350.296,-683.2,314.76
1349.564,-665.388,308.172
1277.828,-627.08,316.468
1181.204,-608.292,349.408
1172.908,-607.316,375.76
1263.676,-604.144,335.744
1249.036,-563.396,268.644
1185.84,-523.136,230.092
1124.84,-500.2,220.82
1090.68,-490.684,258.152
1019.676,-496.54,307.684
1045.052,-512.4,353.556
1213.9,-577.304,408.456
1453.996,-672.708,466.284
1584.536,-705.404,358.192
1580.632,-679.784,400.16
1405.928,-759.084,673.196
1342.0,-736.392,755.424
1463.024,-545.096,587.796
1145.824,-313.052,559.248
1248.548,-65.636,489.22
1150.948,40.748,575.352
1102.392,188.856,498.248
1120.692,202.764,544.12
1370.548,376.98,291.58
937.692,408.456,345.992
571.204,500.932,344.772
195.932,360.632,212.036
92.232,331.596,-71.492
-161.04,556.076,-173.972
-354.044,454.816,-137.372
-356.484,495.564,-175.192
-375.76,641.476,-184.464
-395.524,609.268,-180.072
-417.484,697.84,-168.848
-378.444,721.752,-133.956
-305.0,773.724,-134.932
-329.888,814.716,-72.468
-230.58,846.436,-70.516
-113.704,951.6,-108.824
-59.048,941.108,-79.056
136.64,1006.744,-142.008
41.236,1012.356,-25.132
104.432,917.44,16.836
213.5,989.908,29.036
121.512,986.248,156.648
19.276,968.68,160.552
108.336,888.404,110.532
237.412,943.06,-3.172
56.608,972.584,57.828
91.5,907.192,74.176
290.116,951.6,-75.884
167.628,1044.564,-36.844
142.252,1000.888,-25.62
204.716,1014.308,-27.816
250.832,961.36,30.744
314.272,954.528,17.568
231.8,968.924,88.816
311.588,991.128,59.048
232.532,1011.136,95.648
239.12,1013.82,93.452
239.12,983.808,78.08
125.66,982.832,112.972
254.004,949.16,52.948
182.512,962.824,55.876
93.696,953.064,92.476
129.076,942.572,61.488
191.784,939.644,-3.172
104.188,957.456,0.976
78.568,951.112,6.344
219.844,943.06,-15.128
319.64,1009.428,-58.56
281.82,1029.924,-31.72
293.776,1007.232,3.416
241.316,990.152,60.756
250.1,958.188,88.328
240.828,953.552,101.016
198.128,973.56,110.288
245.22,970.876,47.092
254.492,1011.624,-6.344
227.408,1008.94,10.492
233.752,969.412,36.6
207.4,956.724,55.876
207.156,952.576,45.628
198.86,957.212,39.528
234.728,998.692,-10.492
151.28,981.612,21.96
191.54,961.604,-7.808
