acc_x[mg],acc_y[mg],acc_z[mg]
-8.296,1005.28,-15.616
1.708,1002.108,-10.736
-3.904,996.984,-6.832
8.296,992.348,-7.076
-10.98,995.52,-4.88
-12.932,992.104,-0.732
-4.636,994.3,-8.052
-7.32,990.64,-7.076
-9.272,990.396,0.244
-27.572,990.396,5.124
-24.888,986.492,-2.928
-18.3,984.784,3.416
-26.108,986.98,3.66
-7.564,993.568,-8.296
-0.244,999.18,-13.176
-7.564,997.472,2.684
-9.516,994.056,-2.44
-9.76,989.176,-14.396
-12.688,994.056,-10.98
-12.932,996.74,-18.3
-19.52,997.96,-9.028
-19.032,994.544,-6.1
-13.42,986.004,-7.32
-20.496,981.124,5.368
-22.448,984.784,13.908
-3.416,984.784,-10.492
-7.808,994.544,-19.52
-5.124,999.912,-11.468
-1.464,995.032,-20.496
-4.392,992.348,-21.716
-11.712,999.18,-16.348
-15.128,998.204,-10.736
-9.028,996.252,-25.62
-12.688,999.18,-13.664
-11.956,993.08,-10.004
-7.808,1001.132,-9.028
-9.516,1002.108,-1.708
-8.784,995.52,4.148
-9.76,988.688,0.488
-5.612,979.904,-8.784
3.172,984.052,-9.76
12.2,991.128,-16.348
2.684,993.324,-11.956
-6.832,987.712,-10.98
-10.004,981.368,-10.004
-10.736,980.148,-11.224
-19.764,986.98,-3.66
-7.808,988.688,-14.152
-7.564,995.764,-14.396
-6.344,998.448,-18.544
-8.54,1002.352,-18.544
-11.956,1002.108,-11.712
-9.272,997.228,-10.492
-11.224,994.056,-8.296
-6.1,996.74,-3.66
-1.464,994.544,-1.22
-11.712,992.836,2.44
-16.592,992.592,3.904
-10.736,987.712,-10.98
-2.196,992.836,-11.224
-5.612,993.812,-7.32
-4.636,987.224,-4.148
1.22,991.616,-0.732
-1.708,984.54,0.976
-12.932,983.32,3.416
-16.104,981.856,-1.22
-15.128,981.612,-5.124
-19.764,990.152,-7.564
-20.496,991.372,-14.396
-13.908,991.616,-10.736
-17.08,985.516,-6.1
-12.932,987.468,-10.004
-14.396,995.764,-14.396
-12.2,1001.62,-4.636
-6.344,1001.376,-3.66
-5.124,1000.156,-5.124
-2.684,997.472,-7.564
-0.732,994.788,0.976
-2.928,992.592,5.124
-2.928,990.64,6.832
-0.732,991.86,-0.244
0.488,992.104,-1.952
-5.124,994.3,-5.856
-11.468,996.252,-6.344
-9.272,993.08,-4.636
-7.808,990.64,-2.196
-11.224,989.42,-3.172
-9.516,986.492,4.148
-11.712,988.932,-3.172
-8.296,991.616,-3.66
-0.244,997.716,-2.684
-4.148,996.252,2.44
-8.296,991.616,14.396
-3.904,992.592,0.488
-9.516,994.056,0.244
-9.028,991.616,1.708
-12.444,997.472,0.244
-4.392,996.74,-15.372
2.928,995.52,-7.32
6.588,996.496,5.856
0.244,994.056,6.832
-8.052,993.568,0.244
-7.076,991.128,-0.244
-5.368,997.472,2.928
-10.736,995.764,4.636
-10.98,989.176,13.176
-12.2,983.808,2.928
-17.08,982.832,4.392
-9.272,988.932,10.98
-7.808,986.248,14.396
-10.492,988.932,13.664
-14.152,990.884,6.588
-10.736,992.348,12.932
-13.176,994.788,7.564
-7.32,994.544,4.636
-2.44,993.812,0.976
2.928,996.496,2.196
1.708,997.228,3.416
-1.952,991.372,9.272
-10.492,988.2,4.392
-8.052,992.592,2.928
-11.712,997.96,7.564
-21.96,999.424,7.076
-21.228,998.936,7.808
-20.984,1000.644,5.856
-26.108,1004.792,10.492
-29.036,1009.428,9.272
-37.576,1019.92,-5.124
-81.984,1038.464,15.86
-131.272,1046.028,-4.392
-96.136,1050.176,-9.028
-97.844,1057.008,-21.472
-107.604,1063.352,-44.408
-133.712,1081.896,-36.844
-349.164,1091.412,-21.472
-308.416,1053.104,-0.976
-121.756,998.936,-44.896
-162.504,912.56,-11.712
-66.856,877.668,-8.784
165.432,775.188,59.536
155.184,552.904,128.1
551.196,574.132,261.08
962.824,517.524,325.496
914.756,261.812,-14.152
1052.372,242.048,-248.392
935.984,260.836,11.956
1071.648,263.764,109.312
1111.42,198.372,5.856
1269.044,157.38,-6.344
1214.876,87.352,-10.004
1231.712,100.284,32.452
1126.792,120.292,23.912
988.444,181.292,29.036
1012.356,224.968,82.228
945.256,195.688,47.58
886.208,196.664,40.26
805.932,225.212,19.52
698.816,265.472,-11.224
630.252,276.208,-10.98
613.416,245.22,11.468
542.168,210.328,23.668
397.72,154.696,47.336
559.98,207.888,42.212
505.812,166.164,-52.948
549.976,204.716,-60.512
644.648,199.104,-29.768
558.76,135.908,-45.14
465.308,88.572,-38.308
770.308,173.24,0.488
800.564,120.78,-33.184
874.74,99.308,-28.06
562.908,-20.496,-39.772
718.824,50.508,-19.276
1035.536,-2.928,77.104
1076.04,-81.496,11.468
955.26,-183.732,-41.968
1097.512,-164.944,30.256
1121.18,-224.724,122.732
1275.632,-295.484,168.36
1164.612,-322.812,113.216
1329.312,-239.608,33.672
1536.712,-224.724,2.928
1494.744,-211.548,-8.296
1364.204,-153.72,37.088
1437.648,-173.728,105.164
1526.952,-196.664,85.4
1564.772,-225.944,67.588
1468.148,-222.772,89.304
1402.268,-176.412,112.728
1362.252,-152.988,97.844
1353.224,-176.412,87.352
1350.052,-187.636,38.796
1322.48,-182.756,14.884
1285.636,-188.368,38.552
1181.204,-192.516,83.936
1106.296,-210.328,126.392
1153.388,-246.928,147.376
1337.364,-293.044,100.772
1466.196,-322.812,53.436
1502.552,-343.308,26.352
1255.136,-324.52,183.0
1342.976,-278.892,207.4
1427.156,-252.296,82.96
1533.296,-125.904,-26.108
1183.644,22.936,-12.444
636.352,447.496,258.64
1064.328,695.644,-50.752
1020.896,710.04,-50.996
923.784,799.1,18.544
912.072,875.228,-50.752
783.484,801.296,-139.08
514.84,760.06,-65.392
275.232,699.548,-49.776
92.476,662.216,-111.264
-19.764,671.244,-116.388
-69.052,649.284,-101.26
-88.328,632.936,-144.692
-158.844,653.188,-94.672
-120.048,654.408,-101.26
-60.024,693.692,-116.388
-40.748,741.76,-101.016
23.18,813.008,-120.78
61.0,873.764,-137.86
135.908,901.336,-108.092
185.196,898.652,-88.328
225.212,916.708,-79.3
268.644,908.9,-33.916
331.596,930.372,-72.224
327.936,961.848,-75.884
293.532,980.148,-77.592
281.088,982.344,-90.036
279.624,980.636,-108.336
269.864,991.86,-109.8
270.108,989.908,-105.652
248.392,967.46,-80.276
249.612,966.972,-122.976
231.068,981.124,-103.456
229.848,966.728,-82.472
238.876,943.792,-101.748
233.02,961.848,-97.112
239.12,972.584,-114.924
236.192,969.656,-111.752
233.02,951.356,-97.356
253.028,957.456,-111.02
237.412,977.708,-94.184
256.688,979.904,-95.892
253.516,975.756,-93.94
274.988,973.316,-100.528
259.128,982.588,-95.404
246.196,969.168,-80.52
223.26,945.988,-68.808
224.48,932.812,-85.4
224.724,950.38,-70.516
249.856,968.924,-95.648
253.76,977.952,-90.768
260.592,981.612,-96.38
265.716,979.66,-106.872
271.816,975.024,-87.596
274.744,962.58,-67.1
270.108,955.748,-80.276
257.176,958.676,-67.1
241.804,947.208,-69.54
241.316,934.52,-80.032
237.656,940.864,-83.936
228.384,944.28,-77.348
238.632,943.792,-85.644
247.416,952.332,-91.5
261.08,957.212,-95.648
252.296,962.58,-81.252
269.132,959.896,-89.792
264.008,964.044,-92.232
254.492,964.776,-76.372
263.032,966.24,-98.576
237.656,965.02,-79.3
254.248,961.604,-94.428
263.52,974.048,-102.968
252.54,976.244,-94.184
238.388,965.996,-78.324
237.168,948.428,-84.424
242.292,951.6,-78.568
257.908,965.02,-74.176
283.04,986.736,-69.296
298.168,1003.328,-62.464
312.076,1034.316,-29.28
322.812,1063.108,-2.196
314.272,1107.272,16.836
315.248,1135.088,51.728
315.98,1153.876,77.348
317.2,1151.924,66.612
303.292,1144.116,67.832
278.648,1138.016,61.488
239.12,1132.648,78.812
229.116,1125.084,82.96
217.648,1110.688,90.524
207.4,1100.684,119.072
218.624,1094.34,113.948
206.668,1096.536,92.232
175.68,1118.496,82.472
150.06,1155.096,67.832
136.884,1158.268,40.016
155.916,1142.408,-1.708
130.784,1130.696,6.832
133.956,1109.224,14.152
102.724,1105.076,20.984
95.404,1091.9,57.584
87.108,1092.144,52.704
126.392,1044.076,43.676
169.58,1008.208,29.036
190.808,1007.72,-6.588
100.284,1033.096,31.964
45.14,1023.336,44.408
60.268,990.152,-9.272
53.436,1002.84,-17.812
61.488,995.276,-25.376
32.452,990.152,-27.816
-27.328,959.164,49.776
3.172,916.708,33.428
15.128,918.904,11.712
38.308,910.852,54.9
32.696,881.572,61.976
19.276,850.34,7.32
-4.88,864.004,-25.62
6.832,868.396,-45.628
-11.712,827.16,50.02
51.972,772.992,-5.856
-14.884,754.448,32.452
-13.664,772.748,47.824
-29.768,788.12,48.8
-57.096,798.368,36.356
-59.536,805.932,-11.956
-92.476,833.504,-17.812
-86.376,853.512,-12.688
-99.796,862.784,3.172
-121.268,871.568,40.504
-124.44,886.696,30.744
-162.748,915.976,45.14
-206.912,956.968,59.78
-251.076,979.904,109.8
-282.308,971.12,150.304
-207.644,971.364,151.768
-162.504,982.832,128.344
-159.088,968.436,100.528
-135.908,989.176,81.252
-148.108,960.872,26.108
-73.932,961.116,28.548
141.032,873.764,21.716
199.592,781.532,-22.936
172.02,666.364,6.588
238.144,488.976,12.2
449.204,316.712,46.848
1008.208,239.852,77.104
1156.804,156.648,29.524
1198.04,67.1,127.856
1239.276,125.172,-67.344
1070.672,126.88,-84.424
1218.048,133.468,-11.468
1319.064,69.052,-45.384
1389.092,18.3,-22.692
1179.252,-37.576,92.232
1033.34,-15.86,104.188
1066.524,57.34,95.16
1061.4,38.552,71.98
1089.704,46.848,-1.464
1022.604,45.872,20.74
911.34,49.776,41.48
809.836,71.004,69.784
731.756,87.596,45.872
720.532,145.424,38.308
663.68,142.496,37.576
577.792,161.284,77.836
555.344,125.172,37.576
551.928,71.98,31.232
590.724,33.428,-10.736
691.496,62.22,-6.832
590.236,-32.452,2.196
516.548,-47.824,50.02
491.904,-5.368,132.492
565.348,-59.048,43.188
771.528,-71.004,10.492
728.34,-91.012,27.328
712.236,-55.632,92.72
686.128,-105.896,122.488
917.928,-136.64,72.956
1114.348,-200.324,25.132
1060.912,-255.224,114.924
1103.368,-239.364,244.732
1077.26,-333.06,198.128
1253.916,-369.172,115.9
1326.14,-320.128,80.764
1269.288,-322.324,32.696
1173.152,-331.352,29.036
1148.264,-328.424,16.592
1199.504,-238.632,83.692
1185.84,-271.816,116.144
1138.26,-320.86,120.292
1259.04,-295.972,116.876
1342.244,-329.644,76.372
1395.68,-394.792,104.92
1443.748,-448.228,139.324
1312.72,-499.224,177.388
1325.896,-480.192,202.032
1301.984,-471.408,160.552
1227.564,-457.012,180.072
1207.556,-450.18,192.272
1193.892,-457.5,147.376
1176.324,-467.016,144.448
1146.556,-451.156,160.796
1135.332,-455.792,117.852
1024.556,-465.552,149.816
1016.504,-443.348,137.372
1062.132,-435.296,98.576
1079.7,-441.64,128.344
1189.012,-453.84,156.16
1236.592,-495.564,148.352
1100.684,-525.088,229.848
1158.756,-498.492,269.62
1165.344,-484.828,207.156
1258.552,-423.828,147.62
1165.1,-368.196,192.272
1311.5,-314.516,96.868
1265.628,-325.252,70.272
1201.456,-252.784,147.62
1066.768,-128.344,184.952
918.66,124.928,172.508
621.712,383.08,177.876
569.496,653.188,-60.024
900.848,906.216,-31.476
613.904,851.56,133.468
135.42,761.524,152.012
198.128,740.296,-23.18
118.584,745.664,15.616
99.552,745.664,-31.72
92.232,752.252,-99.064
3.172,762.012,-89.792
14.152,790.804,-103.456
108.58,857.66,-203.008
107.848,918.66,-152.256
134.932,929.396,-162.016
119.072,913.048,-136.884
137.86,914.268,-145.668
170.556,924.272,-90.524
210.816,925.248,-75.64
253.028,931.348,-108.092
209.108,955.992,-56.364
252.54,924.028,-80.276
274.744,950.136,-134.932
221.796,960.628,-34.892
243.512,951.356,-71.98
207.156,946.72,-13.176
279.624,961.848,-74.908
263.032,956.724,-56.608
287.188,962.092,-85.156
305.976,970.388,-129.32
246.928,973.56,-95.892
237.656,954.528,-93.696
330.132,953.064,-170.556
294.752,981.612,-129.808
258.884,976.0,-84.912
271.084,955.504,-101.504
268.156,931.592,-104.432
256.2,929.64,-62.952
279.136,919.392,-76.128
292.556,922.076,-94.672
265.716,935.74,-60.512
269.132,933.056,-72.712
287.432,941.596,-77.348
310.856,945.744,-89.792
323.056,948.428,-97.112
301.584,958.188,-61.0
301.34,950.868,-63.196
309.392,952.82,-91.5
295.972,967.704,-81.252
315.004,963.312,-91.744
345.504,972.828,-144.204
308.904,988.688,-96.38
294.264,965.02,-88.084
292.068,942.084,-112.484
306.952,951.844,-123.952
288.652,952.82,-88.328
277.428,936.716,-88.328
306.708,938.668,-101.748
287.432,942.328,-58.072
311.1,931.592,-66.856
366.732,935.984,-117.608
335.012,951.112,-72.712
333.548,954.772,-85.644
291.336,951.356,-63.684
297.436,938.424,-76.616
285.724,937.692,-80.52
300.12,945.012,-87.596
330.864,948.184,-132.492
290.116,962.824,-97.112
304.268,948.672,-99.308
322.324,954.772,-129.564
295.728,952.82,-79.056
307.928,945.256,-90.768
322.568,952.82,-112.972
308.904,962.336,-84.668
320.128,967.46,-110.044
310.124,976.244,-111.264
298.412,977.22,-108.58
304.756,984.296,-130.54
302.56,1002.84,-147.62
298.168,1026.264,-158.844
275.964,1047.736,-162.748
274.744,1070.428,-182.268
252.296,1089.216,-188.612
244.244,1119.716,-220.576
256.2,1144.848,-248.148
267.912,1167.296,-240.828
259.128,1190.476,-262.3
235.46,1195.356,-243.024
232.288,1193.892,-242.048
226.188,1218.292,-300.12
216.916,1200.48,-272.304
225.7,1168.028,-227.408
232.288,1134.844,-196.664
224.968,1110.688,-148.108
265.96,1090.68,-125.904
247.66,1095.56,-118.828
249.368,1108.004,-125.172
223.016,1114.348,-116.388
195.2,1071.648,-80.52
209.84,1010.404,-78.568
165.92,984.54,-82.228
151.036,982.588,-91.988
146.4,983.808,-62.464
154.208,995.032,-93.696
140.056,980.636,-54.168
131.272,948.184,-34.648
113.46,927.444,-22.204
69.296,915.0,48.312
96.136,916.708,43.432
111.264,905.728,59.292
134.688,894.992,49.288
130.784,885.72,92.964
128.588,880.352,96.136
159.82,872.788,82.472
100.04,898.164,108.824
69.296,884.012,84.912
69.052,862.296,72.468
116.632,861.076,45.384
98.088,873.032,55.144
119.316,858.88,28.792
89.304,843.264,44.652
96.624,822.768,62.464
63.684,824.232,96.624
55.388,816.912,79.544
65.148,804.468,52.948
45.628,822.036,41.48
35.136,846.436,20.496
39.772,866.932,2.196
0.488,891.82,15.616
-16.104,910.364,8.54
-22.936,919.636,7.808
-53.436,935.984,1.22
-98.576,950.624,5.856
-141.52,980.636,24.888
-137.616,990.64,8.54
-160.064,1013.332,17.568
-176.656,1025.532,48.312
-192.028,1017.968,43.188
-109.312,1007.72,-7.564
9.272,971.852,-30.012
17.08,973.072,10.004
-8.052,954.528,-20.74
123.22,857.416,-19.276
262.056,774.7,8.54
316.956,662.46,-10.248
389.668,527.772,57.584
644.404,416.752,-19.52
1188.768,388.204,-269.62
1215.608,260.104,43.432
1173.396,243.268,167.628
1073.112,153.964,107.604
923.296,98.088,198.616
1076.284,119.56,99.796
1297.348,146.888,-82.472
1134.6,104.676,92.964
996.252,96.136,185.44
1028.948,55.632,159.088
1137.772,40.016,149.328
1111.908,38.064,85.888
937.692,61.976,90.768
920.612,107.116,74.176
869.372,85.888,60.512
845.46,109.068,65.148
675.636,98.332,40.26
561.2,125.416,91.256
498.004,129.32,154.208
510.692,109.8,135.176
572.18,102.968,105.896
485.56,100.528,38.552
493.124,158.356,56.12
574.864,99.308,-16.104
714.676,54.656,-84.912
745.664,24.4,-42.944
531.92,21.472,36.6
592.676,72.468,75.396
673.44,-57.584,30.744
970.388,-123.952,-108.336
1045.052,-140.788,-80.032
718.336,-113.948,190.808
416.996,-117.852,286.456
914.024,-98.576,79.788
1129.476,-138.104,-56.364
1026.752,-94.184,1.22
1027.484,-54.9,89.548
995.276,-134.2,149.572
1162.172,-220.576,206.424
1322.968,-234.728,95.16
1450.092,-204.716,38.064
1356.396,-167.14,110.532
1254.404,-204.716,142.252
1335.656,-225.944,134.932
1482.056,-223.26,30.744
1518.412,-217.16,-38.552
1507.432,-160.308,33.184
1434.964,-209.84,22.204
1427.156,-231.068,29.036
1467.172,-236.924,93.696
1418.372,-247.904,65.88
1408.856,-262.544,110.776
1321.992,-290.604,118.584
1232.932,-284.992,131.516
1311.988,-279.624,91.744
1309.792,-287.188,111.02
1367.376,-286.456,118.096
1253.672,-316.468,114.68
898.164,-311.588,147.864
1107.516,-197.64,100.284
1184.376,-225.456,59.536
1333.948,-242.536,23.18
1423.984,-300.608,1.952
1344.44,-344.284,100.772
1175.592,-359.9,221.064
1050.908,-306.708,318.176
1191.94,-220.332,153.964
1310.036,-144.692,50.264
1211.46,-69.052,126.148
1216.096,-4.88,80.764
1010.648,32.94,56.608
805.444,157.868,193.004
454.084,362.096,210.572
285.236,732.488,181.536
691.496,825.696,-35.38
534.848,878.156,-61.976
418.704,856.928,-32.452
405.772,825.208,-103.7
251.32,820.328,-22.936
131.516,765.672,-14.152
186.66,793.732,-76.372
193.98,817.644,-48.8
145.912,813.252,-46.848
178.12,821.548,-80.032
173.972,861.564,-48.8
187.636,859.612,-45.384
222.772,890.6,-54.412
273.768,892.308,-61.488
311.344,896.7,-119.56
217.648,911.34,-12.932
318.42,880.108,-93.696
249.124,916.22,-30.256
349.408,929.884,-84.668
437.004,989.176,-134.444
334.768,1011.38,-48.312
320.128,955.016,-21.228
312.564,906.704,38.064
345.016,881.328,19.764
332.328,882.792,35.136
359.412,895.236,-20.008
406.26,945.012,-65.88
401.38,971.852,-58.804
395.524,955.992,-49.288
419.436,934.764,-90.524
379.908,927.932,-24.4
420.412,890.112,-33.916
444.812,912.804,-86.132
406.992,944.28,-32.696
389.18,941.596,-26.84
354.044,927.932,-40.748
340.624,903.044,-25.132
394.548,903.776,-59.536
378.932,918.66,-30.5
418.704,920.856,-61.0
420.656,947.94,-78.812
393.572,937.692,-35.624
443.104,927.932,-81.008
405.528,945.744,-44.164
395.524,924.028,-22.204
369.66,905.728,-33.672
383.324,900.36,-62.952
390.888,900.116,-47.58
477.02,940.376,-126.88
428.952,974.292,-58.316
389.668,953.552,-45.14
349.896,937.936,-45.14
357.216,905.24,-42.7
384.544,909.876,-70.272
382.348,919.88,-72.224
391.864,924.76,-92.476
377.224,943.304,-75.152
383.568,932.08,-70.028
370.88,941.596,-67.1
386.496,930.86,-77.836
376.492,929.152,-44.652
421.388,920.856,-79.544
368.684,942.084,-38.552
389.668,946.476,-46.36
376.492,968.924,-52.216
380.64,976.488,-40.26
440.908,1006.256,-99.064
432.368,1047.248,-67.1
409.188,1049.2,-39.528
409.676,1079.7,-35.136
421.144,1097.024,-22.448
409.92,1110.932,-8.052
435.784,1111.176,-19.52
409.676,1121.912,8.052
398.696,1141.188,29.768
448.716,1155.096,-0.732
393.572,1168.272,34.16
390.4,1175.836,31.72
308.904,1166.076,85.644
350.384,1138.992,36.356
367.464,1146.8,17.568
350.14,1137.772,82.716
359.412,1121.912,105.164
352.336,1098.732,90.036
386.008,1095.56,-13.664
257.908,1096.048,59.048
266.204,1062.62,78.324
255.224,1072.136,64.416
264.984,1080.188,56.852
300.364,1074.088,31.476
265.716,1075.308,18.788
261.324,1036.512,21.716
260.104,1005.036,14.64
311.588,978.196,-20.496
273.036,972.096,11.224
221.552,957.944,63.44
178.364,935.008,56.12
97.6,894.26,49.532
181.048,850.828,-2.928
189.344,834.48,-5.124
192.028,808.128,-46.116
208.864,868.64,-121.512
155.184,867.176,-84.18
190.076,821.304,-69.54
179.828,777.384,-66.368
125.66,758.596,3.416
117.852,755.912,-28.06
83.692,741.76,-3.66
92.232,751.032,-34.648
90.768,761.768,-64.416
45.872,771.772,-52.704
21.472,752.496,-3.66
-16.836,775.432,16.104
-35.136,798.124,12.2
-20.252,834.236,-8.296
-80.032,885.72,8.296
-89.792,904.752,10.004
-116.876,938.668,23.912
-44.652,924.76,3.172
-39.528,956.724,31.232
-40.748,939.4,44.164
-48.068,935.252,80.032
-74.42,901.824,96.38
43.188,852.292,101.992
97.112,823.744,110.044
165.188,760.548,81.496
141.764,672.22,70.76
193.004,562.908,143.228
806.908,514.84,56.364
839.36,305.0,53.924
705.404,252.54,205.692
924.272,205.204,186.416
1122.156,98.82,-50.996
1283.928,92.476,-31.476
1286.612,47.58,-106.872
1238.788,70.272,-90.28
1295.152,49.288,-49.532
1298.324,20.496,-38.552
1199.992,-11.956,15.616
1185.84,-7.076,-1.952
1130.208,-16.104,-6.344
1067.744,-25.132,4.636
1030.168,-3.66,9.516
945.744,47.824,31.476
813.252,87.108,66.368
779.092,122.0,28.548
724.192,115.656,69.052
692.716,125.172,80.764
706.38,122.244,66.856
720.532,80.032,44.164
784.704,83.936,14.396
764.452,92.964,7.32
733.708,80.032,-4.392
805.932,71.248,-44.408
838.14,20.008,-45.872
792.024,66.856,-44.652
787.144,72.224,4.392
730.048,55.388,32.696
758.596,30.012,20.008
787.876,7.076,39.284
740.54,-5.856,90.28
778.36,-3.66,37.088
735.172,-14.884,88.084
617.076,-10.004,166.896
913.048,-39.284,-7.32
983.076,-90.768,-70.516
1012.112,-22.204,-22.204
855.464,-20.496,158.6
974.048,-74.908,212.768
965.02,-213.988,109.312
1227.808,-173.972,-27.084
1147.532,-84.668,64.904
1016.016,-63.44,206.424
1167.784,-177.632,168.604
1243.668,-241.072,102.48
1152.656,-269.132,110.044
1258.552,-214.72,117.364
1304.18,-222.772,78.08
1258.552,-225.944,53.192
1247.328,-168.604,65.88
1245.62,-203.008,85.888
1331.752,-220.82,75.152
1273.68,-244.0,99.552
1255.624,-263.764,51.728
1263.676,-250.1,-1.708
1266.604,-208.864,-10.004
1325.164,-228.872,-15.128
1163.392,-284.26,-0.244
1117.032,-255.712,76.372
1134.356,-264.74,81.496
1229.516,-276.94,53.68
1180.96,-298.9,27.328
1142.652,-274.5,38.064
1092.388,-264.496,65.636
1089.948,-281.332,96.868
1077.992,-307.928,89.792
1083.36,-317.688,56.12
1031.632,-317.2,88.328
1010.16,-317.444,87.596
1039.684,-339.404,76.372
1033.828,-358.924,102.236
1014.308,-365.268,123.708
998.204,-367.22,96.136
992.348,-363.804,104.92
1034.072,-366.244,115.168
1082.628,-379.908,102.968
1153.144,-396.988,136.64
1230.248,-416.02,164.456
1375.184,-417.728,81.74
1284.904,-437.492,128.344
1171.932,-389.668,248.392
1366.156,-344.04,118.584
1424.472,-301.828,7.808
1053.348,-240.828,224.48
1114.104,-90.768,143.96
1179.984,-30.5,95.892
1193.892,50.264,34.404
848.388,247.66,124.684
608.536,477.02,205.692
624.884,592.432,75.884
567.788,763.476,25.376
625.372,809.104,-25.62
645.38,805.688,-90.036
626.104,792.024,-52.948
503.372,721.508,-0.732
321.592,711.992,-6.1
273.036,720.532,-45.14
282.064,757.62,-60.512
265.716,790.316,-139.568
249.124,827.16,-132.492
240.828,855.22,-112.484
227.408,865.956,-117.12
246.928,879.62,-92.476
246.44,903.044,-80.276
290.116,911.34,-103.944
265.472,928.42,-58.804
305.244,913.78,-63.44
243.268,924.76,-23.424
292.312,916.708,-90.28
246.44,931.104,-29.524
194.956,895.48,-16.348
282.308,883.28,-85.644
266.448,947.696,-45.14
265.228,952.332,-35.868
149.084,933.3,-17.324
220.088,890.112,-87.84
243.024,944.524,-122.976
317.688,978.196,-148.596
332.084,1011.136,-110.532
296.216,980.636,-47.336
284.26,947.452,-15.616
283.284,919.392,-19.276
309.392,913.292,-34.892
309.392,929.152,-27.572
292.8,945.744,-27.328
267.424,936.716,-6.832
313.784,928.908,-46.36
315.248,954.04,-45.14
341.844,945.988,-50.264
362.34,964.776,-85.644
338.672,966.972,-47.824
353.068,963.8,-48.068
376.004,981.612,-73.688
345.504,976.0,-45.384
296.948,954.772,-21.96
311.832,927.932,-47.58
304.756,946.72,-37.332
292.068,947.94,-12.932
313.296,947.696,-55.144
264.252,940.62,-13.908
278.404,921.832,-10.248
349.408,926.224,-78.568
320.616,942.084,-47.336
347.944,958.676,-68.564
324.764,970.144,-62.464
295.24,955.992,-30.256
313.052,950.136,-58.072
310.124,950.624,-40.26
328.424,937.692,-48.312
337.696,945.012,-46.604
329.644,943.06,-25.132
327.692,958.188,-42.212
315.736,953.796,-31.964
334.036,952.82,-65.636
309.148,957.944,-45.14
320.86,945.744,-46.116
310.368,956.236,-63.196
285.724,938.18,-26.596
327.936,923.052,-70.272
315.492,945.256,-50.996
299.388,939.644,-34.648
294.752,943.792,-58.316
311.832,946.72,-76.372
291.58,946.476,-35.136
327.936,948.184,-76.372
323.544,957.7,-55.144
318.176,939.156,-30.988
346.968,944.036,-76.128
298.656,946.476,-19.276
297.68,942.816,-16.592
303.78,944.28,-37.82
310.612,939.156,-13.176
335.988,948.428,-49.288
334.036,949.404,-44.896
306.22,952.576,-19.52
296.46,947.696,-28.792
307.928,952.82,-29.28
335.5,966.484,-25.864
340.38,978.44,-15.372
339.648,1001.376,-10.98
337.208,1038.952,25.132
308.904,1100.44,53.192
316.712,1154.608,103.212
332.816,1186.572,104.92
351.604,1203.164,100.772
389.668,1234.64,79.544
387.472,1268.556,74.908
361.12,1285.636,82.716
347.944,1288.32,88.816
332.084,1265.384,104.432
336.964,1222.928,95.16
308.416,1198.284,104.432
282.796,1185.84,97.6
232.288,1159.732,86.132
180.56,1134.112,59.78
122.244,1123.864,61.488
183.244,1088.728,2.684
169.58,1070.428,-16.592
204.96,1039.196,-16.836
190.808,1036.756,20.252
217.16,1016.748,-12.688
185.928,1020.408,-34.892
137.86,1049.444,-86.132
79.056,1061.888,-91.256
37.82,1051.396,-73.932
58.804,1018.944,-105.164
65.148,1000.644,-124.44
46.36,998.204,-99.308
56.852,957.7,-112.972
13.176,929.64,-63.196
90.036,875.228,-146.156
18.3,852.048,-116.144
9.272,832.04,-146.156
-43.432,798.856,-98.82
10.492,756.644,-127.612
-30.012,727.852,-80.032
-14.152,706.136,-72.712
-62.952,691.984,-56.608
-101.504,678.076,1.22
-94.184,713.212,39.772
-141.764,750.056,73.2
-203.984,799.588,79.544
-161.772,822.768,31.964
-240.096,877.424,51.728
-281.576,911.828,53.436
-286.456,960.14,40.748
-291.336,972.828,64.172
-228.872,1001.376,46.36
-95.648,1011.624,-46.36
-65.88,996.008,-14.64
-47.824,982.344,45.872
141.764,918.904,5.368
151.036,841.556,-31.72
272.06,852.536,104.188
481.168,700.524,152.012
395.28,532.408,102.968
656.604,472.872,112.972
661.728,351.848,183.732
818.376,279.868,123.22
1107.028,199.592,93.696
966.728,156.892,163.48
1026.752,150.304,113.704
956.48,88.816,79.3
990.64,92.964,0.732
877.424,90.036,12.444
838.384,150.548,10.004
710.772,112.728,-9.028
739.808,129.564,28.304
526.064,106.384,48.312
512.888,138.836,77.836
440.664,139.812,130.052
345.26,144.936,173.484
433.1,168.604,158.356
558.76,60.512,125.66
645.868,7.808,61.0
688.568,88.084,105.164
549.0,47.824,128.832
762.012,38.552,48.556
963.068,-15.86,0.244
996.252,-33.672,27.572
867.908,-72.224,34.648
930.616,-68.808,-50.752
846.192,-54.9,43.188
878.644,-44.652,120.78
1040.66,-173.972,64.416
1046.516,-202.52,65.392
979.904,-166.164,182.268
1121.424,-201.788,79.544
1127.28,-235.948,27.572
1179.74,-239.608,23.18
1109.956,-201.788,137.616
911.584,-250.832,230.58
1071.16,-287.188,170.068
1251.964,-383.812,73.2
1379.332,-426.024,-36.356
1311.988,-413.58,25.376
1143.872,-365.268,158.844
958.432,-427.976,277.672
1283.684,-471.652,170.8
1394.46,-491.416,78.568
1410.076,-456.524,118.096
1381.284,-448.472,150.06
1345.66,-510.448,247.66
1249.28,-557.296,274.5
1223.904,-563.884,261.568
1283.684,-522.892,210.572
1418.128,-509.96,141.276
1393.24,-520.696,190.32
1370.792,-542.168,249.856
1269.776,-584.38,327.692
1406.416,-536.068,206.18
1265.628,-481.412,233.752
1317.112,-442.372,261.324
1424.716,-426.024,94.916
1333.46,-367.952,217.16
1301.984,-299.388,148.108
1234.396,-173.24,30.256
1151.68,7.32,30.256
835.212,246.44,96.136
593.408,508.74,136.884
688.568,723.46,129.564
621.956,785.436,87.352
507.52,719.8,15.128
610.0,735.416,-71.248
505.324,673.44,-99.308
376.736,729.072,-98.332
311.344,732.732,-69.296
183.488,780.068,-149.816
81.984,827.16,-132.736
66.612,843.752,-131.76
129.808,845.46,-142.252
92.476,835.212,-88.572
101.26,805.2,-7.076
122.244,797.148,8.54
205.204,822.768,37.332
199.592,861.808,27.572
237.168,908.168,-7.808
247.416,953.796,-30.988
251.564,970.876,-94.184
249.124,935.008,-56.608
258.884,916.464,-47.58
288.164,930.616,-37.088
314.516,993.568,-98.332
348.188,1014.796,-107.604
333.304,1000.4,-67.588
315.492,965.508,-39.772
303.78,949.648,11.224
333.06,948.428,-36.112
333.548,996.984,-44.408
335.988,988.932,-56.364
343.796,968.68,-62.464
325.252,964.776,-13.42
326.716,937.692,-13.42
333.792,948.428,-60.024
321.348,946.72,-12.688
348.432,933.544,-62.708
322.568,946.476,-18.3
312.32,935.984,0.732
336.964,947.94,-70.76
306.952,961.604,-38.308
265.472,941.596,-49.288
242.78,911.096,-44.164
276.452,923.296,-77.348
269.376,942.816,-62.708
251.808,923.784,-68.564
308.904,927.688,-107.848
347.212,960.384,-105.652
353.556,988.2,-92.964
379.176,990.152,-46.36
365.512,962.824,-15.372
360.388,941.352,-12.444
345.748,945.012,-29.28
330.132,957.212,-46.604
313.784,964.288,-69.052
297.436,966.972,-85.644
289.872,964.532,-102.968
295.484,970.632,-112.728
286.7,965.752,-122.488
297.924,981.612,-145.912
308.904,1002.596,-152.5
310.124,1009.672,-152.012
310.612,1027.972,-147.62
342.576,1055.056,-161.772
341.112,1075.308,-171.044
343.552,1075.064,-165.188
330.376,1069.94,-175.68
308.416,1090.192,-201.056
293.288,1113.616,-230.092
288.652,1134.356,-261.568
280.844,1131.672,-261.568
285.724,1127.28,-240.828
315.004,1126.792,-274.256
268.156,1144.604,-235.46
270.352,1137.772,-222.04
260.836,1111.664,-197.396
264.496,1092.632,-185.196
263.52,1104.832,-192.028
255.468,1095.56,-162.748
280.6,1075.552,-165.92
252.296,1070.184,-131.272
215.94,1061.888,-88.328
215.208,1066.28,-125.416
193.492,1067.988,-131.272
226.188,1054.812,-112.972
267.668,1046.76,-106.384
289.872,1060.912,-138.592
246.684,1064.084,-82.96
236.436,1023.336,-50.752
201.3,987.468,-12.932
212.524,982.1,-27.572
181.78,971.608,10.736
172.02,946.72,47.824
148.352,931.592,44.164
60.024,955.26,113.216
16.836,939.4,84.668
32.208,888.16,93.452
119.804,844.728,61.976
114.436,864.004,59.292
86.132,881.816,82.228
75.396,853.756,101.016
45.628,839.36,108.336
16.348,822.768,159.088
15.128,820.084,161.772
1.22,833.016,118.34
-10.248,811.3,126.148
-1.708,772.016,150.304
14.64,751.032,159.332
34.404,777.628,134.932
-26.84,798.368,185.196
24.156,793.488,138.836
-8.54,798.612,143.228
-13.908,817.4,155.428
-32.452,848.144,116.632
-38.064,866.688,111.02
3.904,867.176,54.656
-18.788,884.988,85.4
-57.584,908.9,120.292
-120.292,951.844,129.564
-187.636,994.3,121.512
-239.12,1046.516,60.756
-275.72,1151.924,-20.008
-333.304,1228.784,3.66
-452.864,1260.504,101.992
-531.188,1274.168,105.896
-323.3,1243.912,47.58
-224.724,1208.532,17.08
-10.492,1087.996,-34.648
145.912,891.332,-101.016
232.288,633.668,-29.768
669.292,476.776,-21.96
587.552,303.292,229.116
1162.172,171.532,368.928
1049.444,-98.82,260.836
1035.536,-42.456,228.872
827.16,-29.524,212.768
885.964,49.776,139.324
910.608,6.1,81.496
769.82,-97.844,66.612
578.036,-139.08,66.124
350.872,-204.716,62.952
111.508,-256.444,150.304
-23.912,-180.56,237.168
-218.624,-156.892,206.424
-49.288,-122.244,117.12
183.244,-133.224,-68.564
117.364,-97.356,-18.544
234.728,32.696,48.068
291.58,83.204,5.856
621.712,158.844,115.168
698.816,80.276,-45.14
1057.74,162.748,-12.932
1247.816,84.912,82.716
1318.332,-99.308,56.12
1196.088,-211.792,21.472
1389.58,-197.64,72.956
1278.56,-251.076,195.688
1387.384,-281.82,304.024
1413.004,-356.24,198.372
1203.652,-341.356,139.324
1481.324,-226.188,9.272
1504.26,-237.9,-10.004
1606.496,-276.696,21.228
1407.392,-326.716,11.712
1322.236,-281.088,54.168
1473.76,-294.264,30.744
1561.6,-296.704,12.932
1572.336,-306.464,16.104
1479.616,-294.996,13.664
1300.52,-255.956,0.976
1385.92,-224.48,-30.256
1477.42,-217.648,-102.724
1490.352,-217.648,-121.268
1164.124,-255.712,0.732
1181.936,-248.636,66.368
1186.816,-300.364,95.404
1257.332,-323.544,88.816
1224.636,-313.296,62.464
1160.22,-299.388,68.808
1034.316,-276.696,44.408
1102.636,-261.568,19.032
1204.384,-273.524,-39.772
1221.22,-311.344,-45.628
1072.38,-298.656,14.152
1154.364,-307.44,38.552
1114.104,-323.056,93.94
1176.324,-349.896,105.408
1346.88,-325.496,29.036
1253.916,-340.624,141.764
1211.46,-335.012,117.608
1168.76,-304.512,77.836
1275.388,-273.28,143.228
1399.096,-304.756,103.7
1418.616,-284.26,20.74
1297.592,-185.684,17.324
1060.668,-25.62,188.612
1028.704,93.696,-75.152
305.488,433.588,203.496
555.832,731.756,20.008
523.624,745.42,69.052
344.284,705.404,-71.004
376.98,791.048,-110.532
436.028,755.18,-80.764
338.672,720.288,-106.628
224.968,719.312,-94.672
146.156,707.6,-67.588
118.828,725.656,-39.528
103.7,768.6,-60.024
106.14,770.796,-23.424
108.336,781.288,-52.46
139.812,826.672,-87.596
152.5,837.408,-53.192
239.608,861.564,-93.696
257.664,907.192,-90.524
327.448,961.36,-147.376
335.256,983.076,-128.832
381.372,966.24,-147.62
418.704,994.056,-172.02
423.828,997.472,-132.492
440.176,994.544,-109.556
422.364,962.092,-77.592
402.356,934.764,-85.644
384.3,941.352,-88.572
382.592,924.76,-76.372
378.932,926.468,-80.032
341.356,895.236,-56.364
403.332,943.792,-145.668
358.924,982.832,-133.224
360.388,962.58,-123.952
350.384,907.436,-99.064
357.948,904.508,-107.36
332.084,904.996,-75.64
328.912,910.364,-91.988
313.296,922.564,-111.508
297.68,921.344,-120.78
325.496,915.0,-139.812
340.624,922.076,-131.028
355.752,937.936,-132.004
380.396,961.116,-124.928
380.152,954.772,-91.5
413.824,956.236,-120.292
383.08,958.432,-114.924
395.768,951.6,-123.952
361.12,939.4,-107.848
341.6,923.296,-103.212
354.532,915.244,-130.784
346.48,921.1,-125.66
336.964,913.536,-110.532
339.16,901.58,-112.728
333.548,892.796,-78.812
354.044,883.28,-98.332
379.908,901.824,-106.14
373.564,906.46,-91.5
407.968,938.18,-115.656
376.492,933.544,-71.248
400.16,945.256,-103.456
381.86,977.464,-72.712
362.828,988.2,-42.7
401.868,1007.72,-72.956
376.492,1041.148,-37.82
382.348,1074.576,-30.256
407.48,1113.616,-47.092
398.94,1160.22,-59.78
413.092,1192.184,-59.292
403.088,1196.332,-10.004
393.572,1178.276,15.128
392.352,1166.32,41.236
388.692,1162.416,60.024
398.696,1184.62,52.216
399.184,1198.528,35.624
382.104,1204.872,60.512
413.58,1204.14,21.716
403.332,1210.24,25.864
378.932,1197.308,26.352
315.004,1210.24,7.32
278.16,1187.06,16.348
302.072,1131.672,-20.008
304.024,1097.024,-26.596
290.604,1052.86,36.844
241.804,1008.208,106.14
204.228,992.836,107.604
201.788,999.668,14.64
255.224,1000.156,-26.352
240.34,973.804,-17.08
213.256,976.976,-9.028
180.56,995.764,-25.62
173.484,991.372,-4.88
229.36,964.044,-20.74
208.132,927.2,-5.124
215.208,886.208,9.028
186.416,875.472,15.616
177.144,858.88,58.804
120.78,821.792,43.188
44.652,791.536,50.752
67.832,757.62,29.524
42.944,774.456,-1.708
127.368,792.756,-75.884
62.952,811.544,-41.724
40.016,788.852,-23.912
16.836,758.84,-16.348
15.372,744.688,-22.448
32.452,765.184,-43.432
0.488,777.14,-34.16
-55.632,793.244,-3.66
-112.24,801.54,35.38
-184.22,823.5,54.168
-229.848,851.316,45.384
-176.656,895.236,-8.784
-99.796,918.172,-77.104
-163.48,952.088,-51.24
-104.188,973.072,-31.232
-109.312,990.152,-4.88
-159.82,995.764,55.632
-99.308,998.936,29.036
98.088,971.608,8.54
203.74,905.972,-41.968
202.276,840.824,-7.564
239.12,720.532,-42.944
438.224,587.308,131.76
805.444,351.604,43.188
1018.456,316.956,-10.248
883.28,270.596,148.596
1148.264,267.668,-89.548
1080.92,225.944,14.396
1051.152,181.048,109.556
961.604,91.5,88.572
982.344,89.304,123.952
998.936,108.824,46.36
1145.092,132.004,-2.684
1013.576,24.4,3.172
875.96,6.832,75.152
823.988,35.868,60.268
681.736,111.02,112.484
615.856,145.424,52.216
544.852,161.04,70.516
455.792,170.312,85.4
493.856,123.464,68.076
527.284,65.148,84.668
549.244,20.74,54.412
490.684,139.568,135.908
476.532,90.768,118.584
523.868,6.344,86.132
779.824,-28.06,-19.764
882.548,5.368,-106.14
604.144,135.42,171.532
445.3,64.172,134.688
689.056,38.064,61.976
885.232,-22.448,-72.956
985.76,118.096,-68.808
767.38,132.736,124.196
873.032,28.548,72.224
1128.256,-35.38,-18.788
1335.168,-34.16,-50.02
1265.14,2.684,136.884
894.748,-123.22,240.828
1055.544,-115.412,257.908
1266.604,-169.092,73.444
1439.356,-135.176,-67.1
1371.524,-74.176,-23.18
1139.236,-108.336,35.624
1157.292,-121.268,87.596
1164.368,-178.608,162.016
1300.032,-236.924,175.192
1413.98,-280.112,175.68
1454.728,-308.66,155.672
1093.364,-306.708,155.672
1520.608,-144.692,140.056
1819.996,-284.016,29.036
1920.768,-314.028,63.44
1842.2,-317.444,268.644
1702.876,-331.596,272.304
1615.768,-224.724,206.424
1714.832,-161.528,82.228
1359.812,-63.44,225.456
1299.056,67.832,200.568
1641.876,62.708,-111.996
1565.016,17.568,-28.06
1408.612,88.084,224.968
1037.0,276.208,143.96
632.204,531.676,198.372
377.956,766.16,159.82
468.236,815.448,127.124
231.068,764.208,-73.932
202.52,757.132,-86.132
145.912,711.748,-98.088
126.88,690.032,-80.032
30.988,700.524,-128.588
50.996,810.568,-128.1
56.608,834.724,-116.876
93.452,835.944,-119.316
137.128,838.628,-69.296
122.488,833.26,-16.104
137.616,808.372,-0.976
196.42,866.444,-57.828
264.008,983.32,-119.072
262.056,1001.376,-70.76
262.788,995.276,-82.228
239.852,952.088,12.2
231.312,911.584,-12.2
198.372,919.88,-17.568
178.852,924.028,-26.596
144.204,907.436,-35.136
207.888,931.348,-120.292
169.092,996.74,-99.064
172.02,988.2,-120.048
135.42,928.664,-105.164
224.48,949.404,-133.956
228.628,962.824,-61.488
221.796,933.056,-50.508
309.148,935.984,-96.136
312.564,991.372,-50.02
301.34,989.42,-65.88
262.544,965.02,-75.152
259.372,974.292,-109.068
200.812,964.532,-91.744
235.704,966.728,-137.372
250.344,989.664,-129.564
287.432,1005.768,-129.32
281.576,1009.916,-99.064
277.428,990.152,-72.956
250.1,972.828,-46.36
236.436,945.744,-47.092
234.24,948.184,-79.544
206.912,941.84,-81.008
188.124,930.372,-91.5
230.336,954.04,-155.428
216.672,977.708,-138.836
217.648,972.584,-136.152
239.852,958.676,-122.976
250.588,955.016,-113.948
241.804,938.18,-67.344
269.864,923.784,-45.628
327.936,952.088,-76.86
315.736,968.924,-49.044
283.528,972.584,-58.56
269.376,979.416,-95.648
235.46,980.636,-90.28
215.452,963.556,-104.676
254.98,974.292,-143.228
236.192,973.56,-94.184
226.432,957.456,-93.94
243.756,956.968,-128.832
271.572,971.364,-126.88
306.22,1007.232,-140.788
271.328,1011.136,-129.808
255.224,1012.112,-128.832
244.488,1030.412,-154.452
243.268,1074.576,-177.632
240.096,1115.812,-212.28
222.04,1124.596,-211.792
212.28,1120.936,-211.304
201.3,1118.984,-200.812
193.492,1123.864,-201.544
175.68,1129.964,-184.22
163.236,1159.488,-204.716
129.564,1165.344,-210.572
140.544,1143.872,-183.732
138.348,1096.292,-154.452
159.088,1071.648,-115.656
193.492,1071.648,-106.384
244.0,1107.272,-144.204
256.2,1174.372,-162.748
229.848,1224.148,-169.336
253.516,1206.58,-121.756
286.7,1193.404,-133.468
264.984,1204.384,-70.516
278.16,1189.256,-34.648
353.8,1163.636,-71.248
355.508,1169.492,-50.264
335.5,1191.208,-56.608
260.348,1163.88,-27.816
208.62,1093.608,36.112
207.644,1032.12,63.928
233.996,994.788,48.556
220.332,966.972,62.22
182.512,961.848,77.104
128.832,951.6,71.98
137.616,929.396,29.28
153.476,930.86,37.82
137.86,930.128,43.92
82.472,909.388,93.452
15.128,879.62,151.28
56.852,842.532,89.06
7.564,828.868,78.324
1.952,797.636,136.152
6.1,767.38,148.352
-5.856,750.3,164.212
-13.176,754.936,141.764
-38.796,727.608,130.54
-51.484,706.624,116.632
-42.7,683.2,79.056
-18.056,715.408,75.396
-32.696,732.976,58.56
-60.268,738.344,6.1
-96.624,736.88,50.264
-121.756,740.296,66.856
-76.86,769.332,18.056
-88.572,829.356,0.976
-145.424,851.072,47.58
-161.772,852.536,46.36
-163.236,871.812,67.344
-149.328,887.672,90.036
-154.94,917.196,72.468
-136.152,979.416,24.4
-201.3,1032.608,28.304
-225.7,1104.588,26.352
-280.112,1135.088,58.804
-318.664,1152.656,78.08
-340.868,1211.46,106.872
-389.18,1240.496,124.928
-327.936,1259.284,116.388
101.504,1186.572,-30.012
197.64,1124.352,-100.284
169.092,1123.132,149.084
323.3,1002.108,156.648
343.308,851.56,170.312
625.128,760.304,74.176
820.816,725.412,-132.98
911.096,620.98,-224.968
654.652,490.196,-76.128
721.996,458.232,167.872
1166.32,312.808,17.568
1155.34,196.908,-68.32
934.52,193.492,79.3
874.984,161.528,86.376
918.172,251.32,50.02
904.752,234.972,-5.856
802.76,228.14,9.516
686.128,272.304,29.524
665.876,288.408,47.824
407.236,176.9,97.844
527.528,225.212,58.804
454.084,231.068,52.46
457.988,236.68,102.724
432.124,167.628,126.636
368.44,132.98,145.424
406.992,162.26,81.252
436.76,127.124,-13.42
417.972,154.452,7.808
287.188,108.336,101.016
361.608,17.08,185.196
640.988,-19.276,50.264
724.192,36.6,7.32
572.912,88.084,69.784
472.628,135.664,166.652
548.756,96.38,125.172
776.164,22.692,11.468
1011.868,32.94,-108.58
789.828,13.664,102.724
852.536,-8.296,68.076
1019.188,-125.66,47.824
1314.916,-193.004,-79.788
1181.448,-125.416,138.104
992.348,-202.764,228.628
1173.396,-243.024,235.948
1480.104,-274.988,122.488
1544.276,-297.68,68.808
1598.688,-315.248,73.932
1532.076,-352.824,136.396
1509.872,-369.66,196.664
1552.084,-400.404,117.364
1483.764,-438.224,117.608
1438.868,-406.504,132.98
1311.988,-408.7,150.304
1380.796,-417.728,155.428
1345.416,-493.368,175.436
1354.688,-495.564,170.556
1377.38,-480.924,118.584
1422.764,-474.58,33.916
1494.744,-462.136,-18.544
1450.58,-496.296,131.516
1548.912,-493.368,149.816
1567.944,-559.248,205.692
1461.316,-591.944,216.672
1281.244,-567.544,248.148
1227.808,-471.652,195.932
1287.344,-380.396,106.384
1300.52,-292.8,108.092
1109.468,-251.564,134.932
867.176,-80.276,170.556
842.044,113.948,186.172
786.656,283.528,155.428
336.964,522.648,205.204
125.416,765.916,254.98
400.892,837.652,127.856
316.956,817.4,53.68
133.956,763.476,106.628
148.352,730.292,22.448
133.468,744.932,-30.012
134.444,775.432,21.472
151.036,830.088,-13.42
188.368,876.448,22.936
182.268,901.58,-1.708
120.536,905.728,60.268
234.728,906.46,-25.62
201.3,925.004,-6.588
251.808,924.516,35.868
298.9,924.272,-18.3
306.708,946.232,-4.636
325.252,976.488,-48.068
323.3,979.416,-37.82
307.684,969.168,19.032
311.1,954.528,-5.856
336.232,951.356,-18.788
340.38,955.504,-9.272
383.08,934.276,-20.74
363.804,939.644,-10.98
382.836,941.596,-25.132
395.768,967.216,-42.456
422.12,981.368,-73.688
433.588,967.46,-65.636
429.684,961.848,-65.636
377.956,953.064,-25.864
427.0,919.392,-44.652
373.076,916.708,-10.98
376.492,897.676,2.196
402.356,905.972,-24.888
354.532,906.216,14.396
402.6,903.532,-9.516
369.416,915.488,-2.928
381.86,899.628,-7.808
414.8,902.8,-35.136
395.28,918.172,-0.244
414.068,931.836,4.88
442.616,965.752,20.496
437.98,992.348,71.98
431.148,1004.304,105.652
431.636,1036.268,140.056
454.084,1109.224,170.8
486.536,1195.356,159.088
480.68,1241.716,143.716
506.056,1253.184,124.44
518.012,1250.012,119.804
532.164,1216.584,130.54
520.208,1190.476,133.468
517.28,1156.804,150.304
496.052,1114.348,181.78
463.112,1067.744,173.484
456.524,1045.784,150.792
412.848,1051.396,148.108
376.004,1057.74,98.332
344.528,1080.676,64.172
360.876,1089.704,25.132
355.752,1089.46,14.152
325.74,1082.14,19.032
290.848,1075.308,54.168
281.576,1078.724,71.492
231.8,1059.448,78.568
169.58,1055.544,46.848
156.404,1089.704,42.944
217.16,1071.404,17.568
210.084,1045.54,10.98
229.36,1026.752,-11.712
208.376,1016.748,50.996
207.4,1021.384,50.02
211.548,1009.672,12.2
248.636,966.972,-32.94
256.688,912.804,-76.616
183.732,880.352,-30.5
185.928,837.896,-23.912
214.232,842.288,-35.624
241.072,875.716,-105.164
101.26,875.472,-27.328
84.18,801.784,-16.104
122.0,731.268,-21.716
122.0,711.016,18.3
162.26,703.94,-31.232
68.808,753.228,-51.484
-16.348,743.712,-36.6
-16.836,702.72,-10.004
-4.148,684.664,4.88
-3.416,718.092,34.892
-31.476,751.276,48.312
-60.512,782.264,10.492
-94.184,821.304,9.272
-169.336,853.756,49.044
-152.744,879.376,45.14
-105.408,904.264,44.164
-122.244,934.52,71.736
-146.4,926.224,111.996
-46.848,934.52,53.192
50.752,972.096,-35.38
28.548,976.244,42.456
151.524,927.444,51.972
247.66,828.38,31.232
325.252,836.676,-45.628
518.012,746.884,16.836
610.0,656.604,54.656
478.24,333.06,77.592
810.812,185.44,377.224
1168.272,61.0,163.968
1150.46,30.256,89.548
1046.516,231.556,37.82
1146.312,297.924,-131.028
1230.492,274.012,-209.352
1151.436,193.492,-161.772
941.84,156.404,-86.62
909.876,162.26,-58.56
732.244,142.008,-38.064
404.064,193.248,13.42
424.316,214.476,54.9
388.692,142.74,65.148
361.12,95.404,61.732
400.404,108.824,8.54
263.032,182.024,75.396
278.404,172.508,100.284
529.48,119.56,36.356
677.588,-25.62,-23.18
672.22,-16.592,-94.916
597.312,160.552,-39.284
595.604,150.06,71.004
852.78,55.388,-75.64
1047.004,19.276,-85.888
890.6,46.116,-5.612
757.132,30.988,143.472
716.384,-10.248,166.652
977.464,-85.4,134.932
1355.664,-138.348,-107.36
1454.728,-121.268,-202.764
1041.392,1.464,115.9
882.792,-25.62,250.832
905.24,-135.176,222.528
1454.24,-150.304,42.944
1697.02,-194.224,-159.332
1390.556,-96.136,-11.468
1132.16,-9.028,305.732
1100.928,-137.372,471.652
1321.26,-237.412,328.912
1566.236,-295.484,132.736
1634.556,-206.424,-1.464
1467.416,-89.548,105.652
1321.26,-85.156,289.14
1305.644,-229.116,384.544
1420.324,-312.564,312.808
1629.676,-296.704,211.792
1671.888,-269.62,161.528
1478.64,-230.824,117.852
1443.016,-156.648,215.696
1365.668,-205.692,307.196
1429.352,-279.868,345.504
1616.256,-323.3,226.676
1446.92,-327.448,246.684
1339.316,-250.588,193.98
1434.232,-152.5,79.788
1324.676,-118.096,125.904
1281.732,-67.588,138.348
1236.592,-86.376,92.72
1006.5,16.104,159.82
757.864,164.212,338.184
803.492,290.36,223.26
564.616,406.016,83.448
-3.172,711.26,364.048
415.776,762.988,144.448
369.172,774.7,37.576
229.116,772.016,59.78
244.976,788.608,-10.248
237.412,813.74,-96.624
186.416,846.436,-75.152
115.9,845.948,-76.372
83.692,843.508,-75.396
133.712,882.06,-152.5
159.576,928.176,-111.264
184.708,949.16,-124.928
144.936,942.084,-71.492
159.576,948.672,-109.068
183.732,963.068,-36.6
210.572,961.848,-15.86
184.22,949.404,28.304
231.312,952.088,-14.884
208.62,966.728,34.16
251.808,974.78,-47.824
241.072,1000.156,-32.208
216.916,1006.256,9.028
246.684,988.2,-45.872
275.476,942.084,-36.356
315.736,932.324,-106.384
276.452,929.152,-36.844
275.232,905.24,9.028
273.036,897.676,-26.352
258.884,925.004,-26.352
294.752,932.324,-17.08
301.34,935.74,-41.48
300.364,944.768,-53.68
307.44,971.364,-66.856
266.204,974.536,-46.604
294.996,981.124,-77.348
288.652,990.884,-93.696
234.728,970.144,-47.58
250.344,934.032,-54.656
306.464,949.892,-107.36
264.984,968.68,-46.604
329.888,972.34,-71.248
362.34,986.004,-103.212
339.16,983.564,-52.948
356.24,962.824,-68.32
305.976,958.432,-49.044
296.216,951.356,-45.628
283.284,955.26,-57.096
298.656,964.044,-82.472
276.696,978.196,-81.984
285.48,979.416,-95.404
301.096,990.64,-159.332
286.212,1007.476,-143.716
284.26,1013.088,-134.932
270.84,1007.476,-121.756
272.06,985.516,-115.412
308.904,974.292,-132.98
346.968,1000.644,-178.12
347.456,1009.916,-151.768
334.524,998.692,-162.504
303.048,1002.352,-201.3
272.304,1019.188,-201.056
246.196,1042.612,-198.86
286.456,1047.736,-252.54
284.016,1063.108,-254.736
255.956,1090.192,-235.216
285.724,1078.48,-204.228
294.264,1043.588,-194.712
262.544,1008.208,-150.792
272.792,973.316,-111.508
257.908,942.816,-72.956
262.544,945.744,-58.804
294.02,956.48,20.496
331.352,953.308,5.612
300.608,936.716,12.2
314.76,905.484,28.792
370.88,869.372,7.32
303.78,851.316,49.532
283.772,848.144,66.124
281.82,843.996,27.572
254.736,864.736,82.228
256.2,890.112,93.696
249.612,922.808,71.736
260.592,927.444,98.088
254.004,930.86,142.252
282.796,912.56,105.652
216.184,933.056,98.332
210.816,1008.696,22.204
204.716,1034.56,35.868
206.18,1012.112,26.84
192.028,983.076,-5.368
175.68,1007.476,-58.316
209.108,1083.116,-182.024
201.788,1114.592,-152.988
244.732,1091.412,-111.264
247.416,1073.844,-56.364
214.72,1055.056,12.444
179.584,1033.584,23.18
145.424,1039.684,-15.616
123.952,1082.384,-34.892
167.628,1115.08,-59.292
219.112,1102.148,-45.628
224.48,1068.964,-28.304
277.672,1024.556,-31.72
232.288,1014.064,-50.02
207.888,1016.016,-103.456
97.356,968.924,-3.66
131.76,943.304,16.836
157.624,934.764,-11.712
175.68,959.652,-50.508
193.248,991.616,-58.804
169.092,1025.044,-67.344
122.488,1036.756,-46.116
130.784,999.424,-21.96
125.172,941.352,65.392
197.152,911.34,60.756
208.132,915.0,81.496
246.684,890.844,104.92
237.9,886.208,138.104
251.808,872.788,139.08
257.176,885.72,118.828
214.964,873.032,138.348
212.28,855.464,131.272
162.26,850.828,142.984
149.084,847.412,123.22
85.644,868.64,148.596
64.416,871.324,104.676
-1.952,881.084,85.888
-32.452,896.456,61.0
18.544,904.752,66.368
17.568,912.316,99.064
69.296,901.824,100.284
97.112,912.804,66.856
70.516,939.4,40.748
65.636,973.56,16.348
108.824,1030.168,-63.196
40.992,1064.816,-45.384
55.632,1039.684,-8.296
25.62,1031.876,25.864
46.848,1020.896,-9.272
56.852,1039.684,3.172
21.472,1024.556,63.928
-33.672,1039.196,54.168
112.484,1006.744,19.52
88.328,1004.548,25.376
163.236,955.748,38.796
453.84,799.1,-69.296
465.796,645.624,16.592
802.272,558.272,130.296
1075.308,397.232,91.5
1086.288,250.344,107.604
1252.452,195.688,-17.324
658.068,117.12,359.168
680.272,38.552,435.54
1099.708,-69.54,70.028
1428.132,-86.864,63.928
1258.552,-157.38,257.176
1080.188,-204.472,207.156
945.5,-162.748,255.468
852.292,-96.624,198.372
749.568,-30.744,59.536
699.06,0.976,57.584
610.244,-4.636,72.956
487.512,-0.244,30.256
367.464,44.164,15.616
338.184,83.692,-31.72
298.168,96.38,-3.172
212.524,74.42,50.752
66.856,10.004,4.88
294.508,64.904,28.06
485.316,111.996,45.872
590.236,58.56,66.124
552.66,-67.832,70.76
658.068,-139.324,-27.084
861.076,-104.92,152.988
832.04,-118.584,200.568
880.84,-176.9,95.404
1018.944,-181.048,105.652
1170.468,-197.152,108.092
1356.152,-211.792,188.612
1391.288,-234.728,55.876
1357.372,-217.404,20.252
1216.584,-213.744,46.116
1250.5,-238.632,177.632
1574.044,-254.492,17.812
1731.912,-278.648,-23.424
1438.136,-199.592,67.344
1211.216,-255.224,140.544
1338.096,-296.46,146.644
1588.44,-315.004,56.608
1613.328,-293.532,63.684
1496.696,-287.92,86.376
1409.344,-298.9,85.644
1327.36,-292.556,152.744
1311.988,-290.848,200.568
1355.664,-312.808,180.072
1440.332,-327.204,155.672
1499.868,-334.036,145.18
1499.624,-352.58,176.9
1513.288,-398.94,210.816
1655.54,-466.284,159.82
1571.36,-459.696,247.66
1646.512,-432.124,248.636
1597.468,-460.184,213.5
1359.324,-306.464,244.0
1088.24,-103.944,161.284
674.66,365.756,112.972
854.244,671.732,151.036
923.784,601.216,0.0
632.692,722.728,69.296
688.08,756.888,85.156
572.424,655.872,-70.516
349.896,637.816,-120.292
290.604,636.352,-110.532
213.988,676.612,-163.724
60.756,715.164,-179.828
-9.272,654.652,-212.28
-64.172,622.932,-136.396
-96.624,606.828,-121.268
-30.256,671.0,-110.044
47.092,733.22,-107.116
47.336,738.588,-44.408
31.232,689.788,-28.304
67.832,718.336,-77.348
107.116,815.448,-131.76
203.008,927.444,-203.496
282.796,1008.452,-255.224
272.304,1012.6,-177.876
298.168,999.912,-182.268
328.912,1051.884,-187.148
368.684,1052.128,-152.988
370.148,1040.172,-141.032
342.332,1015.04,-132.004
319.152,1007.476,-123.464
365.268,1067.988,-177.388
351.604,1046.76,-151.768
283.284,992.836,-127.612
272.304,971.852,-128.344
257.42,951.6,-86.376
249.124,928.664,-67.344
333.548,945.988,-120.292
321.348,956.724,-52.948
318.664,945.988,-40.016
308.66,950.868,-25.864
293.044,954.284,8.296
345.992,1017.48,-31.476
333.548,1048.468,-29.768
334.768,1071.892,-53.924
303.048,1071.16,-82.96
273.036,1039.684,-87.352
243.268,989.664,-90.768
213.5,956.236,-117.364
192.272,925.98,-103.456
229.848,917.196,-125.172
263.52,929.396,-165.188
275.964,928.908,-151.768
266.936,899.872,-114.192
257.908,882.548,-114.436
262.788,884.744,-114.192
295.972,916.22,-142.252
293.776,915.244,-132.492
278.648,914.512,-145.668
259.616,913.048,-142.008
251.564,937.448,-183.732
254.004,943.548,-162.992
232.288,935.252,-136.396
235.704,924.516,-140.3
240.828,932.812,-112.728
240.34,927.444,-102.968
233.508,918.416,-84.424
238.144,894.992,-61.976
244.732,906.948,-98.088
213.256,912.072,-62.952
260.592,934.276,-98.088
249.368,974.78,-123.952
233.508,965.752,-95.404
266.204,972.34,-139.812
244.488,973.56,-101.26
235.704,958.676,-86.376
283.772,974.292,-138.836
251.808,984.784,-84.912
228.384,968.436,-76.616
239.364,958.432,-94.672
