acc_x[mg],acc_y[mg],acc_z[mg]
-72.956,982.1,49.044
-61.244,987.468,47.824
-69.052,987.712,58.56
-87.352,990.396,47.092
-116.144,993.324,42.944
-98.82,996.496,30.988
-83.692,989.42,20.496
-71.248,1000.888,16.836
-79.544,996.252,28.06
-60.512,988.2,29.28
-48.8,978.684,24.156
-43.432,977.708,23.424
-43.676,974.78,39.04
-42.212,966.972,46.604
-42.944,964.288,52.46
-25.132,964.044,41.724
-21.96,964.044,47.092
-21.716,969.412,53.436
-34.404,973.072,54.168
-40.992,977.22,41.724
-47.092,984.54,42.944
-52.948,991.616,44.652
-51.972,991.372,43.92
-48.312,994.544,35.136
-35.38,994.544,26.84
-26.352,994.788,31.72
-30.988,988.688,39.528
-39.772,985.272,35.624
-48.312,982.344,44.164
-57.828,986.736,48.8
-59.292,989.664,48.312
-49.044,990.396,39.284
-37.332,991.128,35.136
-32.452,995.764,24.644
-22.692,992.592,30.744
-14.396,984.54,29.524
-19.276,982.588,33.916
-30.5,984.54,34.16
-33.916,986.248,43.676
-32.452,987.224,41.968
-40.992,986.248,51.24
-43.92,987.712,41.724
-42.456,990.396,43.188
-43.188,989.176,42.212
-48.8,991.616,40.504
-50.02,993.568,30.012
-46.848,1006.744,29.768
-45.628,1000.4,43.432
-36.844,993.812,40.748
-41.236,991.86,38.308
-35.868,983.808,39.772
-34.648,983.32,42.7
-36.844,981.612,35.624
-41.236,983.076,35.136
-35.38,982.1,40.504
-39.772,980.636,40.504
-39.284,977.22,45.384
-41.236,976.0,49.776
-48.068,978.928,46.36
-42.212,985.028,44.164
-42.944,986.492,42.944
-41.968,988.932,30.744
-47.58,989.908,35.136
-39.04,983.564,30.988
-35.624,985.272,28.792
-34.892,988.2,31.476
-30.744,990.64,30.012
-33.428,986.736,39.284
-33.672,984.052,38.552
-41.236,983.076,43.92
-41.236,984.296,41.968
-43.188,985.516,43.676
-44.408,988.932,34.16
-41.724,990.64,32.94
-39.772,992.348,33.184
-45.14,990.64,32.696
-47.824,987.712,31.964
-49.044,989.176,33.184
-51.972,989.42,39.284
-43.676,985.516,41.236
-39.04,985.76,43.92
-37.82,987.468,44.652
-34.16,983.32,49.776
-30.012,985.272,49.044
-38.308,985.516,46.848
-43.676,989.908,50.508
-40.504,988.932,55.632
-36.356,984.052,49.776
-40.504,987.956,44.652
-37.576,987.956,46.604
-30.5,986.98,37.576
-36.844,988.2,34.16
-38.552,989.908,33.184
-37.82,993.324,34.16
-38.064,992.592,31.232
-38.796,993.08,38.552
-43.432,989.908,41.236
-37.332,990.396,40.016
-39.284,989.664,40.504
-37.332,988.688,42.212
-35.624,985.516,45.872
-39.772,986.736,47.58
-40.504,982.588,48.8
-37.82,979.66,44.652
-38.796,979.904,40.26
-45.872,984.784,37.332
-40.992,983.076,37.82
-40.748,981.124,38.064
-40.748,982.344,34.648
-43.676,987.224,37.332
-38.064,986.492,35.868
-38.796,984.296,43.188
-33.428,988.444,42.212
-34.404,991.86,41.968
-34.892,987.224,49.776
-39.04,987.956,48.556
-37.576,986.492,45.872
-38.552,988.444,51.972
-37.576,988.688,45.628
-46.116,988.2,47.58
-41.968,990.152,49.288
-42.7,987.956,49.532
-39.04,984.54,55.144
-34.648,984.296,50.508
-31.476,986.248,40.26
-30.988,988.2,44.408
-37.088,992.836,48.556
-37.088,990.64,46.848
-33.672,986.004,43.188
-31.476,983.32,40.26
-37.82,987.712,37.088
-31.964,987.712,39.284
-30.256,987.956,38.796
-30.744,987.468,42.212
-31.964,986.736,39.04
-33.916,991.372,44.164
-35.868,990.396,45.872
-39.772,987.224,48.8
-40.992,987.468,46.848
-42.7,990.884,44.652
-44.408,994.056,40.992
-39.772,995.52,39.284
-46.36,997.228,44.652
-40.992,999.668,42.212
-44.652,1000.644,49.776
-39.284,997.716,55.144
-39.04,997.96,53.436
-45.384,1004.06,41.236
-63.684,1014.796,27.572
-50.264,1017.724,24.888
-65.148,1027.972,10.492
-40.26,1018.7,23.18
-15.86,1008.696,14.884
-81.008,1026.752,8.296
-123.952,1034.804,10.736
-280.844,1061.156,12.444
-470.676,1087.996,-3.416
-324.276,1054.568,-27.816
-350.628,1034.316,-101.26
-188.124,1011.868,-105.652
-183.244,919.88,-146.156
66.368,878.644,209.108
306.708,839.36,629.764
660.02,433.832,694.18
914.512,110.044,-140.788
953.552,652.7,-128.832
605.852,614.636,212.28
821.06,405.528,204.716
949.16,102.236,211.792
1189.988,-42.7,13.176
1294.908,-69.296,45.14
1229.272,-30.256,89.304
1095.56,93.696,16.836
900.36,243.268,-71.004
614.392,298.656,25.62
521.428,274.744,18.056
294.752,202.52,165.92
163.724,118.096,249.368
225.456,141.764,56.364
238.632,167.872,90.524
237.168,130.296,113.948
267.912,15.128,220.088
264.252,-98.332,122.244
750.788,-95.16,10.736
282.308,-247.904,129.32
439.2,-114.192,138.104
935.008,-248.148,157.136
1090.436,-323.3,56.608
959.652,-346.968,104.432
678.076,-306.952,191.54
1001.132,-319.152,201.788
1128.744,-291.336,130.296
1189.5,-374.784,190.564
858.392,-400.892,306.952
711.26,-354.532,247.416
1210.24,-415.288,144.448
1303.692,-533.14,163.724
1448.14,-643.428,216.672
1434.964,-705.648,237.656
1261.968,-623.664,240.096
1503.528,-599.264,178.608
1762.412,-632.936,154.696
1683.6,-654.896,214.476
1595.76,-651.48,209.596
1518.168,-612.684,209.108
1557.94,-561.444,144.204
1598.444,-549.488,91.988
1443.992,-561.444,164.456
1242.692,-553.636,168.116
1202.432,-523.624,102.48
1203.896,-511.668,118.584
1117.032,-557.784,211.792
1014.796,-605.12,231.312
943.304,-592.432,222.284
933.544,-530.212,170.312
943.304,-504.348,155.184
927.932,-529.724,168.848
935.008,-571.692,220.576
857.66,-595.604,238.388
849.364,-561.932,231.8
846.924,-552.904,213.744
894.26,-581.696,212.28
942.084,-596.092,221.064
930.616,-590.724,208.62
902.8,-556.808,190.32
931.348,-530.7,161.04
1005.524,-568.764,185.44
1056.52,-674.172,339.892
1110.932,-697.108,316.712
1103.612,-585.356,205.204
1210.24,-466.772,43.188
1465.22,-370.392,-94.428
1849.032,-404.796,-199.348
1618.208,-593.408,131.272
1346.88,-527.284,572.424
1271.972,-381.128,356.24
1141.92,-207.4,-207.888
1268.312,166.164,-331.84
1385.432,498.004,-67.344
1248.792,738.588,61.244
1035.292,650.504,-198.372
795.196,658.556,-268.644
646.6,646.112,-40.016
683.2,565.836,-109.312
579.256,552.66,31.964
558.028,487.024,22.448
363.072,512.888,65.88
591.7,706.136,-26.596
565.836,629.764,-101.26
238.632,613.904,-54.412
-19.276,586.576,-5.612
9.028,620.98,-34.648
-13.176,620.98,-190.076
-250.832,699.06,-50.996
-305.0,719.312,-28.304
-376.492,742.98,21.96
-158.6,832.528,-110.776
-243.024,732.0,-41.968
-510.204,639.524,90.036
-338.428,769.088,-29.524
-48.312,877.912,-48.8
81.74,988.444,17.08
132.248,1025.044,-8.052
173.484,979.172,75.64
167.628,906.948,142.252
160.552,838.384,177.144
198.86,865.224,128.1
199.104,935.008,132.492
184.952,996.008,148.352
200.568,1020.408,127.368
199.104,1015.284,96.136
216.428,1004.304,67.832
191.296,1010.648,30.012
143.228,1041.88,30.744
119.56,1068.232,34.404
84.668,1087.752,24.644
93.452,1117.52,-31.964
61.488,1157.048,-24.888
77.348,1171.932,-36.6
107.604,1168.76,-36.6
34.892,1174.616,-5.612
23.668,1176.324,2.928
-27.084,1195.112,6.588
20.74,1174.616,-55.632
69.296,1178.764,-96.38
73.2,1180.228,-77.348
74.664,1137.528,-3.416
77.348,1099.952,38.308
110.044,1059.692,26.108
134.2,1047.98,-17.812
86.62,1029.192,40.504
52.704,990.152,94.428
119.56,952.332,44.408
156.648,940.62,55.144
147.864,977.952,107.848
113.704,981.612,106.872
14.152,969.656,179.584
25.62,948.428,97.844
39.04,953.064,58.804
74.42,969.9,70.028
128.1,953.308,81.74
142.984,933.3,55.632
158.356,942.328,61.976
148.352,923.296,61.732
90.524,876.692,132.248
102.724,837.164,138.348
121.024,840.092,130.784
115.412,849.608,99.064
96.136,872.788,84.424
89.06,885.964,42.212
108.824,882.06,11.224
98.576,892.308,19.764
79.3,878.4,50.508
77.104,854.0,79.056
85.4,833.016,102.48
98.82,847.656,77.592
58.316,878.644,70.516
60.024,910.364,42.456
15.128,944.524,29.768
5.124,953.796,39.04
27.328,940.376,52.948
28.792,933.544,52.216
3.416,939.888,76.616
10.492,934.52,81.008
-3.172,932.08,85.644
-4.636,945.5,77.348
-15.372,983.808,77.836
-38.308,989.42,85.888
-28.304,976.0,83.448
-1.952,979.416,81.496
2.44,979.416,77.836
9.516,971.364,66.612
21.716,980.636,42.7
13.176,998.204,55.632
-40.26,995.032,87.596
-44.652,973.804,102.968
-25.376,961.36,87.108
-32.208,975.024,103.456
-4.148,993.568,91.5
-13.664,1002.596,54.168
-32.696,998.936,65.392
-25.62,984.052,63.928
-22.936,981.856,74.664
-3.172,978.44,84.668
-6.1,975.756,82.716
-11.956,976.976,66.856
-8.296,971.364,77.104
-16.592,975.756,49.044
-17.568,981.368,39.04
-25.132,993.812,47.336
-9.272,998.448,37.088
-18.3,993.324,59.536
-16.104,984.54,81.984
-3.66,983.076,81.008
3.172,987.712,70.76
6.1,996.984,69.052
24.156,1000.156,65.148
17.568,998.448,64.904
12.444,993.812,80.032
13.908,988.932,91.988
9.76,985.028,83.204
-7.808,994.056,84.18
3.904,992.104,75.64
-4.392,989.664,75.396
1.708,985.028,64.904
-5.124,1002.108,46.848
-20.008,1007.476,50.02
-49.776,1008.452,60.024
-41.236,1008.696,54.168
-44.896,1006.744,44.164
-62.22,1015.04,33.184
-104.188,1046.028,32.452
-169.092,1077.016,33.672
-194.224,1086.776,43.676
-398.452,1109.224,58.316
-504.836,1114.348,0.976
-539.972,1009.184,-63.44
-472.628,891.088,11.712
282.552,678.808,6.832
852.78,541.68,27.084
819.108,420.412,239.364
876.204,182.756,367.708
1090.192,315.492,103.212
825.94,521.672,-7.32
943.548,666.364,60.756
1071.404,486.292,-131.76
1049.932,333.792,36.844
970.388,224.968,99.796
886.94,276.208,91.256
678.808,317.444,134.688
577.792,406.26,55.876
476.044,416.996,-16.592
255.468,350.384,78.812
81.984,322.812,136.64
255.468,290.116,86.62
340.624,207.156,32.452
395.036,126.88,-17.324
87.108,37.088,-16.836
121.756,82.472,63.196
251.076,29.524,48.8
439.2,-84.18,-20.984
681.004,-99.796,-34.404
615.856,-158.112,35.868
358.924,-204.96,67.344
802.516,-217.648,85.4
925.736,-336.232,74.664
1095.316,-491.172,109.556
976.488,-599.996,156.648
1075.796,-627.812,234.484
1096.536,-592.92,166.408
1358.836,-595.36,41.968
1432.036,-682.468,75.396
1457.656,-751.032,138.348
1526.22,-786.168,126.88
1386.164,-773.236,100.772
1561.844,-737.612,31.964
1706.048,-726.632,-33.672
1563.796,-735.904,-12.2
1502.552,-713.944,45.14
1527.928,-753.472,49.776
1472.296,-776.652,111.264
1457.9,-752.252,108.336
1362.74,-689.3,70.028
1336.876,-617.32,20.496
1263.432,-584.38,1.952
1212.436,-577.304,-4.88
1253.672,-616.344,51.24
1258.552,-691.008,160.064
1294.908,-745.664,190.32
1302.228,-779.824,206.668
1319.308,-785.192,228.14
1281.488,-765.428,251.808
1311.988,-780.068,284.992
1369.816,-821.06,309.148
1502.552,-841.556,272.304
1585.512,-811.788,249.124
1399.584,-722.972,378.2
1241.716,-651.968,348.676
1313.696,-519.964,160.552
1571.604,-374.052,10.492
1493.768,-305.976,8.052
1234.64,-142.74,21.472
956.236,34.16,-38.552
857.416,183.976,-67.588
1020.408,276.696,-147.132
1050.176,317.2,-96.868
964.532,327.692,-128.832
799.344,345.26,-155.428
532.652,363.56,-63.44
551.928,461.404,-155.184
435.296,515.572,-191.052
309.392,572.424,-122.488
215.452,545.096,-120.292
203.984,558.272,-160.796
45.872,597.068,-2.928
-7.32,611.464,110.044
-54.656,613.416,44.652
-94.672,630.252,62.464
-127.368,624.152,61.244
-207.644,634.156,81.984
-207.156,655.628,71.492
-134.688,684.42,101.26
-112.484,717.848,114.924
-75.884,746.152,116.144
-53.436,766.16,103.456
-63.684,791.292,101.504
-45.14,816.668,88.084
-47.58,850.584,97.356
-28.304,888.404,67.344
-55.632,906.46,62.22
-16.104,938.912,52.216
-21.716,957.7,75.884
-42.944,940.864,75.152
-77.592,925.492,95.892
-61.976,927.2,106.14
-48.068,945.012,75.152
11.712,962.336,26.352
49.776,991.86,-44.652
34.404,1043.832,-28.06
24.888,1038.22,-6.344
11.712,1006.5,26.84
37.088,982.588,50.508
80.764,984.54,29.524
68.32,997.96,41.724
48.312,996.008,54.412
39.772,987.468,52.216
63.684,976.732,38.064
55.144,978.196,37.332
38.064,994.056,47.58
50.996,996.008,45.384
28.304,982.832,58.316
-0.244,976.976,79.544
-5.856,973.804,74.42
26.84,976.976,35.136
27.084,986.736,35.136
37.82,998.204,16.104
32.208,1006.256,27.084
40.504,993.812,46.116
66.368,981.856,52.948
66.124,991.372,43.188
84.18,1014.796,18.056
55.632,1017.968,34.404
38.796,1003.572,26.84
29.768,988.444,39.528
7.076,981.368,60.024
4.148,986.492,54.168
23.18,986.004,41.724
22.204,974.78,45.628
3.904,960.384,55.876
4.148,959.408,69.052
68.32,975.268,32.208
90.036,996.984,28.792
83.936,1012.6,32.208
50.996,1003.084,47.092
31.476,993.08,68.32
46.848,982.588,68.808
95.648,988.2,43.188
72.224,1009.428,32.94
60.024,1009.916,45.14
31.476,998.936,57.828
21.472,984.296,55.388
32.94,982.344,67.588
28.792,982.588,69.784
30.988,977.22,60.024
40.016,984.54,56.12
26.84,983.808,65.636
29.036,984.052,61.244
31.964,986.98,51.484
28.548,992.592,56.12
27.816,995.276,52.216
41.236,995.032,37.82
43.188,998.448,42.456
45.14,1004.304,40.26
40.748,997.716,50.752
31.72,995.276,43.432
37.82,990.884,44.652
41.968,992.104,42.212
41.724,991.86,52.948
40.504,987.712,58.804
40.26,974.78,66.612
34.648,972.828,68.32
32.94,981.612,60.756
49.288,989.664,46.116
44.408,989.908,52.704
48.312,988.932,42.7
36.356,992.348,50.264
45.628,990.64,54.9
37.088,983.564,52.216
24.4,986.736,57.584
18.3,990.64,59.78
13.664,992.348,54.168
-3.904,996.74,58.804
16.592,1006.012,49.776
36.6,1011.38,40.504
22.448,1014.552,42.212
-7.808,1047.492,47.58
-9.272,1080.188,44.164
-57.096,1121.668,45.384
-107.604,1158.512,19.52
-92.964,1172.42,5.856
-86.132,1170.712,-19.52
-44.408,1162.172,-11.956
2.44,1165.832,-43.676
-169.092,1206.58,-54.656
-207.4,1184.864,-3.904
47.336,1101.904,1.464
246.196,1022.604,66.856
417.972,944.28,120.78
422.608,906.948,135.176
625.86,907.924,159.332
912.56,763.232,14.396
839.116,674.66,34.404
842.044,607.804,93.696
714.188,518.256,225.7
787.388,410.652,266.448
929.884,240.096,296.46
1046.028,77.104,307.44
1036.268,3.66,288.652
1067.012,-26.84,315.736
1020.896,-90.524,389.424
994.544,-59.78,363.316
953.308,-46.848,298.656
820.328,-11.468,261.568
830.82,68.076,197.396
651.48,91.5,193.004
591.7,145.912,105.896
481.168,178.364,86.132
375.028,214.72,33.672
347.456,239.852,4.148
185.684,206.424,23.18
119.804,203.008,59.048
142.252,176.656,18.544
122.244,130.784,23.668
-97.356,78.568,7.32
167.872,105.164,-31.476
255.956,37.088,13.664
438.224,14.396,-29.768
497.272,-80.764,9.028
292.8,-203.008,26.108
683.444,-187.148,55.144
859.612,-275.964,40.992
1032.12,-333.304,175.192
1057.984,-450.668,193.98
760.792,-517.524,207.156
1073.356,-573.156,329.4
1296.128,-684.176,323.788
1338.828,-675.636,376.736
1306.132,-687.104,346.968
877.668,-724.924,309.148
1071.16,-635.376,277.184
1267.336,-722.484,283.284
1484.984,-826.916,221.796
1455.704,-960.14,206.424
1487.912,-919.88,201.544
1621.38,-897.676,130.296
1755.824,-902.8,90.036
1533.052,-876.448,204.228
1397.388,-844.972,270.596
1361.764,-806.908,255.712
1389.336,-748.836,197.396
1354.688,-691.496,103.212
1250.012,-657.58,106.14
1143.384,-649.528,142.496
1084.824,-658.312,154.208
1037.488,-674.172,186.416
1063.596,-700.768,183.244
1033.828,-717.116,213.988
1101.416,-753.96,222.284
1216.584,-821.792,254.98
1216.828,-889.136,391.132
1137.772,-919.88,442.372
1105.076,-899.628,406.016
1164.856,-829.356,334.036
1259.528,-778.36,294.508
1405.928,-749.08,213.256
1432.036,-727.608,197.152
1450.824,-571.448,257.176
1512.556,-355.508,95.16
1214.388,-97.844,146.888
1275.144,175.68,-25.132
1241.96,324.276,-35.136
1335.9,372.1,-118.584
1115.08,422.852,33.916
1110.2,439.444,-32.208
906.216,444.08,-71.004
795.196,518.012,-103.7
830.576,539.24,-333.06
552.66,606.584,-200.08
398.208,582.916,-174.704
233.264,619.516,-145.18
328.18,638.548,-157.624
436.272,621.224,-239.364
155.916,617.564,-77.836
117.12,581.208,11.956
91.988,595.36,41.724
80.276,601.704,-4.148
42.212,628.3,25.62
3.904,670.268,-43.432
-54.9,660.996,-49.288
65.636,673.196,-81.252
17.812,643.916,-43.188
-97.844,648.308,46.116
-140.788,675.88,133.712
-140.788,689.544,103.7
20.008,755.424,-5.856
3.172,864.736,-34.892
-28.304,903.044,-27.816
-47.58,890.356,-32.452
-46.848,933.3,-9.028
-48.312,931.592,-3.172
-25.376,940.864,-15.616
7.808,934.032,29.768
23.18,897.188,66.124
53.436,893.528,114.436
110.044,921.344,158.844
117.364,947.696,151.768
93.94,981.856,105.896
57.828,991.372,107.848
65.88,972.584,95.892
50.752,947.452,136.152
77.348,943.304,118.34
85.888,961.116,92.232
113.948,984.296,55.876
151.768,1022.116,2.44
130.784,1028.948,-10.004
113.948,1013.332,13.42
108.336,990.152,33.916
122.244,998.448,35.868
124.44,1002.84,39.772
113.948,997.716,40.504
85.4,987.468,47.092
95.892,976.732,72.468
102.236,975.268,51.728
87.108,973.804,60.756
71.98,981.612,49.776
78.812,977.952,47.336
71.98,966.972,48.068
75.884,973.804,46.36
80.52,974.78,60.024
87.108,988.2,43.188
95.892,995.764,33.184
80.032,992.836,57.096
94.916,993.324,57.096
103.944,986.492,52.46
99.796,984.784,43.92
125.904,992.104,24.888
129.32,999.424,37.332
133.712,992.592,31.476
114.924,983.32,47.824
111.264,987.712,52.216
120.536,994.544,42.944
91.256,993.812,53.68
86.864,982.588,60.268
74.664,980.88,56.364
69.052,980.392,57.584
93.452,986.98,46.116
92.232,996.252,36.844
87.596,990.152,44.408
84.424,993.324,39.04
101.26,991.616,34.404
91.988,984.296,47.092
73.444,972.584,57.096
69.54,977.708,43.676
80.032,985.76,35.38
70.516,987.712,43.676
73.688,985.516,51.972
89.548,987.956,48.068
107.604,982.832,61.488
110.532,986.004,56.852
93.208,986.492,64.904
83.204,982.588,69.296
74.664,984.052,49.044
91.5,995.52,25.62
77.104,1003.572,26.84
79.056,1002.352,20.74
89.548,993.568,29.524
101.26,996.74,25.132
95.892,989.664,51.728
97.356,982.344,51.24
104.676,987.224,44.164
93.696,984.54,58.56
82.716,975.512,61.0
71.98,984.052,44.896
79.788,987.468,45.384
77.104,992.104,50.264
85.644,994.788,33.672
97.844,988.2,44.164
88.328,985.028,52.46
86.376,989.176,47.336
97.6,980.148,50.02
102.968,982.588,44.408
112.24,983.564,37.332
111.264,986.736,45.384
101.26,990.884,40.016
88.328,986.736,45.872
89.548,983.808,32.696
74.42,993.568,40.26
61.732,989.908,44.652
49.532,981.612,47.58
42.944,982.1,52.948
71.004,981.856,40.016
86.62,987.224,29.28
97.844,991.372,23.424
82.472,995.276,45.872
95.892,989.176,53.192
85.644,987.468,61.976
77.592,996.252,45.14
82.96,1004.548,36.844
65.392,1016.016,22.448
41.48,1018.456,25.132
44.164,1022.848,13.176
38.308,1033.584,11.956
45.628,1043.344,17.08
43.432,1042.124,12.932
33.428,1043.832,17.812
19.52,1041.392,24.4
31.232,1046.272,13.42
38.796,1056.764,1.952
43.676,1075.308,-10.004
36.6,1081.164,2.684
32.696,1069.208,30.5
66.368,1063.352,28.548
58.072,1075.796,33.184
13.664,1088.972,43.676
13.176,1099.464,25.132
50.02,1087.752,-32.696
48.556,1089.46,-19.52
53.68,1087.508,-3.172
120.536,1059.448,30.256
119.072,1056.764,71.248
161.528,1068.72,46.116
236.436,1087.508,23.18
188.612,1100.928,50.752
163.968,1097.512,-12.688
182.024,1121.912,1.22
250.344,1055.788,80.276
80.276,972.34,122.976
99.064,991.372,98.82
431.636,967.216,23.424
595.604,843.508,128.832
637.084,685.884,97.6
752.252,506.056,268.4
745.42,373.564,355.02
807.152,270.352,203.74
737.124,312.32,282.552
781.288,180.072,320.616
826.184,1.708,372.588
1022.604,-93.452,251.564
1028.948,-119.56,296.216
995.032,-83.936,281.576
966.728,4.636,239.852
946.232,57.584,213.012
858.148,67.588,218.38
868.396,111.02,199.104
863.272,150.304,120.048
840.58,218.868,68.076
773.968,282.796,21.228
737.612,327.204,-13.42
545.096,326.96,-15.128
280.356,367.952,-21.96
171.044,377.956,35.136
86.132,354.288,-34.404
119.804,299.632,-2.928
83.448,181.78,4.148
136.884,117.608,102.724
95.404,24.888,180.316
128.832,2.684,138.836
456.28,-18.3,22.448
612.928,-57.34,-51.972
693.692,-51.484,36.844
429.196,-141.032,7.076
597.068,-111.02,32.94
639.036,-292.068,175.924
831.064,-445.544,280.112
840.58,-482.876,243.024
776.164,-463.844,200.812
691.252,-518.988,304.756
700.036,-633.18,361.852
982.1,-723.46,442.372
1356.884,-756.888,263.276
1364.936,-761.768,258.884
1539.152,-792.512,245.708
1498.648,-863.028,221.064
1610.644,-878.4,288.164
1722.64,-933.056,192.76
1877.092,-890.6,125.66
1952.488,-858.148,132.248
1816.092,-866.444,228.14
1701.656,-862.54,245.464
1587.708,-769.82,246.684
1463.756,-699.304,238.876
1334.436,-673.44,199.836
1326.628,-646.844,208.864
1231.956,-639.036,227.652
1181.936,-676.124,291.092
1231.956,-688.568,261.324
1287.1,-672.708,213.5
1401.78,-679.784,225.212
1395.68,-685.64,213.988
1317.6,-726.876,259.128
1283.928,-775.92,383.812
1344.684,-795.44,432.612
1538.176,-714.432,254.248
1604.544,-579.5,122.976
1425.936,-458.72,235.216
1322.724,-369.66,274.5
1399.34,-326.228,288.408
1613.328,-194.712,37.82
1447.652,-33.672,38.064
1292.956,59.78,-14.396
1195.844,130.296,-26.596
1206.092,176.412,-97.6
992.104,256.932,-72.468
965.508,331.108,-313.052
675.148,410.652,-175.68
556.808,479.704,-133.224
648.796,484.828,-233.508
551.44,483.608,-194.224
426.512,517.524,-247.66
266.448,549.976,-189.344
64.172,553.392,-28.06
170.8,494.1,21.228
81.496,462.136,-9.028
-56.12,506.3,46.116
84.424,537.776,14.64
39.04,565.104,-16.592
-120.78,620.004,64.66
-92.476,663.436,79.056
-62.708,725.168,37.088
-13.176,765.184,17.812
59.78,799.832,49.044
-16.348,812.032,117.364
-35.868,813.008,155.672
-24.644,827.16,91.012
-3.172,856.928,91.012
-22.692,877.424,102.236
20.252,880.84,112.972
68.32,914.268,77.104
69.784,946.476,86.376
99.308,965.02,67.344
128.344,954.772,52.46
130.784,957.7,50.996
140.3,984.54,22.448
155.184,1006.256,63.44
161.772,993.568,70.028
180.804,985.028,54.656
158.844,965.02,94.184
168.604,940.376,119.316
201.3,937.448,96.624
167.14,953.796,96.38
158.112,975.268,49.044
181.048,1003.816,4.392
173.24,1018.456,-4.148
148.596,1004.304,16.104
149.816,980.148,67.1
166.408,965.508,88.816
173.728,949.648,91.256
199.104,955.992,79.788
223.016,973.072,71.492
212.524,988.688,46.604
184.952,984.784,58.316
160.796,970.388,82.472
154.696,957.944,96.868
177.876,958.92,76.616
171.288,969.9,68.32
193.98,991.128,41.236
190.564,996.984,25.132
167.14,987.468,38.064
152.5,976.488,33.428
180.316,988.444,33.916
178.12,988.932,47.58
182.756,981.368,46.848
216.916,984.54,45.628
219.844,992.104,62.952
190.32,976.488,92.72
187.392,971.364,91.744
176.9,958.676,93.696
186.66,965.996,76.372
173.728,981.856,55.876
169.824,990.884,33.672
141.032,991.128,38.064
135.908,982.832,39.528
144.204,981.368,45.384
145.912,980.636,60.756
144.936,975.268,50.508
160.308,967.704,62.22
181.048,965.752,59.536
181.536,965.996,58.56
211.304,979.66,36.6
212.036,997.716,34.892
195.688,993.324,40.016
162.992,985.76,59.292
183.0,983.076,54.656
155.672,981.368,50.996
136.396,977.464,50.752
142.74,977.22,38.308
125.66,974.292,44.652
127.368,973.316,37.576
154.208,981.856,50.752
183.244,984.784,53.68
187.148,981.368,61.0
185.684,977.22,68.32
187.148,977.952,61.488
179.584,976.0,48.8
160.552,981.124,49.288
145.424,976.0,68.32
145.18,973.072,53.68
158.6,982.832,39.04
151.036,986.248,34.16
146.4,976.488,39.04
150.06,975.756,50.508
133.224,973.56,60.756
138.592,976.244,59.292
149.572,979.416,56.364
142.496,973.804,50.996
152.744,980.88,44.652
148.84,982.344,46.848
161.528,984.296,35.38
165.188,984.54,41.236
153.964,979.172,53.192
131.516,973.804,61.732
129.564,984.052,59.536
123.22,985.76,59.048
126.392,987.956,50.996
154.452,985.516,32.208
171.532,981.368,37.82
162.748,980.636,36.844
152.012,985.028,52.46
147.62,993.08,61.488
155.428,996.008,49.044
155.916,1000.644,36.112
150.304,1004.304,23.912
140.3,1001.376,31.232
133.956,994.3,31.232
118.584,990.396,48.8
103.7,995.276,41.968
75.396,1011.868,32.208
69.54,1037.976,24.4
69.296,1055.788,-6.344
72.468,1079.7,-3.416
66.368,1093.852,-14.64
35.868,1093.364,-1.464
26.84,1102.636,-8.784
18.3,1116.056,-23.424
19.276,1128.744,-12.932
54.656,1128.012,5.612
112.972,1124.596,-8.784
117.12,1135.82,4.88
108.824,1139.968,-0.976
87.352,1135.332,-19.276
83.936,1103.124,-9.76
99.064,1078.236,31.72
84.18,1081.408,60.268
13.42,1087.508,94.184
-64.66,1060.668,100.04
-41.724,1049.688,7.808
9.028,1056.276,-27.084
34.648,1050.42,-13.176
21.96,995.764,53.436
51.728,926.468,91.256
90.768,911.828,55.388
78.324,935.984,92.476
49.532,952.332,101.016
38.064,948.916,89.548
23.18,948.916,90.768
12.932,958.188,69.052
-71.492,983.32,64.416
-93.94,1010.648,52.46
-3.416,1029.924,-21.472
-62.952,1030.168,-68.32
-106.384,1061.644,-98.82
-33.428,1096.78,-134.688
-134.688,988.2,-57.584
-428.952,747.372,36.356
897.92,657.58,-37.576
1164.124,469.212,47.092
439.688,336.476,473.848
995.764,183.488,352.824
837.896,175.192,273.768
999.912,159.332,287.188
1093.608,15.372,184.708
978.928,-23.18,389.424
993.324,-68.32,315.98
995.764,27.816,272.304
965.996,131.028,192.76
925.736,205.448,123.708
828.136,233.264,108.58
849.12,263.276,93.452
885.72,260.348,11.224
808.86,313.052,-2.684
792.268,313.052,-17.08
631.228,309.392,15.372
507.52,316.956,29.28
418.216,326.96,58.072
317.932,306.708,30.988
229.604,285.968,-76.372
152.744,228.14,36.6
237.656,109.068,81.496
142.984,48.8,61.732
159.576,110.776,133.956
259.86,73.688,92.476
443.592,58.804,-3.416
684.664,43.188,-42.456
367.952,-45.384,1.952
253.76,-24.4,126.148
588.04,-44.896,35.136
886.208,-147.62,129.076
1016.26,-224.48,104.188
307.44,-423.096,215.94
872.056,-354.288,349.652
1053.592,-463.356,313.784
1262.944,-580.964,405.528
732.732,-634.4,422.852
613.416,-496.052,243.512
1131.672,-576.084,356.972
1504.504,-753.96,161.772
1785.592,-905.972,257.42
1763.632,-966.728,243.024
1881.484,-928.664,194.468
1879.044,-917.44,168.604
1931.26,-904.264,99.308
1843.664,-882.06,133.468
1697.508,-823.5,142.984
1523.536,-776.164,211.548
1465.22,-756.644,236.924
1350.052,-719.8,185.44
1281.0,-649.772,143.472
1177.3,-585.6,109.312
1103.368,-604.144,194.712
1061.156,-647.088,207.888
1061.4,-645.868,192.028
1014.064,-635.376,234.972
960.872,-641.476,225.944
982.588,-668.56,268.156
972.828,-694.424,301.096
1064.084,-728.584,260.104
1274.412,-765.428,265.228
1278.316,-812.52,335.988
1387.14,-856.196,328.18
1538.176,-875.472,258.884
1181.936,-788.364,371.368
1314.184,-729.072,305.976
1520.608,-703.94,129.32
1362.252,-641.232,342.088
1339.56,-587.064,207.156
1461.804,-433.344,-11.712
1193.16,-264.984,66.124
730.048,-25.132,65.88
959.164,206.912,-110.044
1016.504,285.724,-162.748
1033.828,356.484,-191.296
1014.064,382.104,-152.744
732.732,380.884,40.26
627.08,372.588,31.72
637.816,440.176,-136.152
440.664,592.188,-155.184
417.728,691.984,-155.672
284.748,718.824,-161.528
186.66,698.084,-135.908
176.168,699.548,-59.536
168.36,758.596,-29.768
139.324,817.888,-22.936
61.488,870.836,2.684
40.992,855.708,20.008
116.388,804.468,-4.88
244.976,764.696,5.612
142.74,716.872,138.104
120.536,709.796,116.388
155.916,751.032,69.784
127.124,760.304,123.952
57.34,726.876,168.36
0.0,720.044,158.844
2.684,747.616,91.988
-73.932,787.388,82.472
-114.436,795.44,100.772
-109.312,774.212,85.644
-129.076,788.12,109.068
-149.328,827.404,63.44
-84.912,883.036,38.308
-94.428,911.096,40.016
-66.856,925.98,14.396
-99.064,938.18,57.828
-97.844,933.788,61.732
-85.156,933.544,41.724
-64.904,944.036,39.528
-68.076,947.452,52.216
-38.308,973.804,30.744
-58.316,990.396,34.404
-90.036,978.196,42.944
-112.728,974.536,53.192
-120.048,973.316,81.008
-97.356,952.332,61.976
-91.988,937.936,52.704
-62.22,950.624,16.592
0.732,981.124,-26.352
-22.204,1011.38,-20.74
-71.98,1008.452,45.872
-79.788,979.172,66.124
-37.088,963.556,51.972
-2.44,987.224,18.788
-24.644,1008.452,5.124
-60.024,1004.548,16.104
-60.024,995.032,21.716
-30.988,990.64,13.42
-7.808,998.204,-7.808
-45.14,1005.524,16.836
-49.776,989.176,42.7
-49.044,985.76,44.652
-62.464,974.048,54.412
-80.276,986.736,30.5
-60.268,997.716,7.32
-70.516,992.592,15.616
-85.888,986.248,10.736
-62.708,986.004,-2.928
-57.828,992.836,6.588
-58.804,1004.304,1.952
-54.9,1007.964,28.06
-35.136,985.272,45.14
7.32,984.296,34.892
17.324,999.424,40.992
30.988,1013.82,10.492
-11.224,1009.428,22.692
-43.676,984.052,42.944
-61.732,960.872,55.632
-56.852,947.696,57.34
-72.712,964.532,39.284
-57.34,987.224,21.472
-63.928,985.272,11.712
-88.084,976.244,11.224
-98.82,982.344,-22.204
-102.48,984.296,-7.32
-98.332,984.54,0.0
-63.928,980.636,11.224
-27.328,979.904,16.104
-30.012,990.152,24.644
-23.424,1004.792,8.54
-2.44,1009.428,-6.1
-2.44,1005.768,-10.736
-13.908,996.74,4.392
-28.548,977.708,35.624
-46.36,961.36,48.8
-44.896,977.464,36.844
-51.24,992.592,22.936
-54.9,997.96,4.392
-47.824,1000.156,-14.884
-61.244,988.444,1.952
-89.548,980.88,5.368
-92.72,979.66,-2.196
-85.156,986.492,11.468
-74.664,984.54,11.712
-60.756,983.076,18.3
-50.508,974.048,33.916
-65.636,973.316,40.26
-46.36,980.636,27.572
-45.384,985.516,21.228
-54.412,986.004,17.08
-64.904,987.468,4.392
-85.888,984.296,20.008
-72.224,986.248,16.104
-59.78,991.128,1.22
-45.14,993.812,11.468
-39.04,992.348,7.808
-35.136,992.592,20.74
-27.572,992.104,26.108
-32.696,992.836,34.648
-37.576,992.104,33.672
-36.844,985.516,27.084
-47.336,989.42,12.2
-56.12,990.152,6.832
-57.34,991.86,-2.928
-69.54,988.688,16.104
-74.42,986.248,13.908
-66.612,984.052,3.66
-48.8,983.808,4.636
-52.216,995.032,-10.248
-54.168,989.908,0.488
-63.44,992.836,-0.976
-61.976,984.54,7.808
-63.196,989.664,2.196
-57.584,994.544,0.976
-60.512,991.372,-0.244
-51.484,995.276,-19.764
-59.292,1010.892,-8.052
-68.076,1004.304,10.004
-94.184,996.74,19.276
-118.828,1003.084,25.132
-96.624,1013.332,6.832
-80.032,1031.632,-19.032
-92.232,1049.2,-22.936
-121.756,1061.156,-50.264
-187.148,1076.528,-54.656
-194.224,1081.652,-83.204
-108.824,1082.628,-86.62
-50.996,1120.692,-134.2
-14.152,1147.288,-127.856
-118.34,1146.312,-38.796
-59.78,1107.272,-52.948
146.888,1050.908,-98.088
213.988,974.536,-17.08
173.972,979.904,-40.26
238.388,905.484,-16.592
290.848,804.956,-6.1
479.948,739.564,-23.912
449.936,572.668,53.68
507.032,385.032,352.58
550.22,66.368,382.348
798.612,-89.06,380.884
1097.268,-183.244,199.592
1274.656,-170.068,79.788
1184.132,-234.24,304.024
1182.18,-381.86,402.112
1146.556,-417.24,414.068
1242.448,-333.06,316.956
1083.116,-203.008,313.052
1123.376,-102.48,260.592
1040.66,-82.96,214.476
1053.836,-35.136,149.572
1035.292,31.476,125.904
997.228,63.684,123.708
928.176,87.352,66.856
843.752,86.864,101.504
773.48,81.984,132.492
640.5,103.7,172.508
668.804,116.632,73.2
621.712,136.884,22.692
454.084,130.54,1.952
176.168,153.72,-12.2
23.424,169.092,-43.92
22.936,248.392,-68.808
40.992,208.864,-19.032
-85.644,172.02,-34.16
6.1,162.504,-74.42
290.116,45.14,62.464
444.08,-128.832,175.436
510.448,-258.884,216.428
303.78,-255.712,208.376
691.008,-217.404,30.5
1026.508,-291.336,44.408
1170.712,-482.876,265.228
953.796,-633.912,489.952
1119.716,-660.752,367.22
1131.916,-644.892,277.672
1306.132,-678.32,237.412
1528.66,-790.56,224.724
1491.328,-834.48,292.8
1664.568,-926.712,296.704
1695.8,-987.956,233.996
1575.752,-879.62,188.124
1655.54,-775.188,115.9
1755.58,-783.24,40.992
1611.132,-844.24,121.268
1461.804,-880.108,247.172
1264.408,-843.264,338.184
1302.96,-822.768,295.484
1247.328,-752.008,173.972
1157.292,-673.196,142.74
1155.34,-642.94,91.5
1149.728,-662.704,104.92
1084.336,-720.288,221.552
1070.428,-741.76,210.816
988.932,-676.856,174.46
1051.64,-624.152,101.748
1186.084,-618.052,28.792
1199.26,-666.364,266.448
1394.216,-716.14,63.196
1352.248,-753.472,19.032
1196.82,-665.388,30.5
815.204,-228.872,216.672
1157.292,119.072,-60.756
1335.656,219.6,-187.392
1244.644,282.552,-286.456
1395.68,353.068,-167.14
1279.78,305.488,-159.82
1108.248,279.868,-107.848
1002.108,303.292,-47.092
1045.54,416.996,-186.172
1059.448,557.052,-269.62
987.712,621.468,-261.568
887.672,652.944,-244.732
944.524,647.82,-234.972
868.396,655.384,-116.632
1031.876,663.924,-327.204
797.392,703.94,-119.072
851.804,713.7,-130.296
769.332,687.104,-242.78
573.644,695.888,-79.056
589.748,726.388,-137.616
522.404,778.604,-132.248
536.556,768.356,-82.472
654.652,727.12,-131.76
463.6,671.976,-107.116
453.596,687.104,-6.1
492.392,634.888,-119.804
328.912,628.544,-37.82
355.996,637.572,-27.328
167.872,660.264,60.268
30.012,636.352,122.0
170.068,625.128,13.42
125.904,633.668,72.224
8.296,642.696,152.988
-7.808,673.44,134.932
26.84,717.848,32.452
-7.808,782.264,40.748
10.004,837.652,21.716
-65.88,815.692,115.412
22.692,810.08,107.848
28.548,852.536,115.412
-11.712,894.26,105.896
6.832,925.248,65.636
-44.652,912.56,66.612
-92.72,889.136,142.984
-90.036,890.356,150.548
0.0,939.156,95.16
-10.004,969.412,93.208
-15.372,964.776,72.956
-8.54,957.944,85.644
-28.06,931.104,131.76
-10.736,926.956,127.124
-23.18,949.648,119.56
-28.06,961.604,113.704
-19.764,980.88,97.112
67.832,1001.864,82.716
50.508,991.372,107.848
103.212,969.656,80.764
125.416,989.908,67.832
90.768,1002.84,91.988
76.128,995.032,110.776
75.152,992.592,99.796
54.168,999.912,85.4
20.74,1001.864,92.964
32.208,980.392,75.884
26.84,964.044,94.428
25.62,958.92,79.056
31.232,976.488,86.62
36.112,988.444,91.5
46.848,991.372,91.744
40.504,996.252,101.504
43.188,983.564,103.944
41.724,985.76,101.016
66.124,986.004,90.524
52.704,979.172,89.548
83.936,980.148,66.124
59.536,976.976,91.012
32.94,964.288,93.696
23.912,979.416,100.284
60.024,999.18,78.08
44.408,1001.62,81.008
42.456,992.348,65.88
62.708,984.296,52.704
63.928,995.032,59.78
58.072,1000.888,52.216
66.124,994.3,89.06
67.588,984.052,89.06
54.9,992.104,108.336
46.116,993.08,102.724
55.388,995.032,68.808
38.796,991.616,66.124
24.4,982.588,59.292
22.692,992.104,31.964
26.352,998.204,55.632
27.816,994.788,46.604
27.572,995.52,71.248
56.852,987.468,104.188
56.608,967.46,120.78
69.54,962.092,124.196
72.712,966.972,116.144
75.884,990.152,68.808
89.548,996.496,59.78
52.46,998.692,82.472
38.796,992.836,76.372
43.92,992.592,85.156
53.192,993.568,69.784
34.404,984.784,72.956
30.5,970.388,84.668
11.956,975.512,93.208
33.916,975.268,89.06
47.824,987.712,61.488
42.212,987.468,59.292
26.84,975.024,75.152
58.072,980.148,79.788
73.2,989.42,80.276
71.248,988.932,81.496
71.736,997.716,61.732
65.636,996.496,76.86
61.488,986.736,77.104
57.828,984.784,69.296
57.34,1000.156,62.22
37.82,994.056,74.664
16.348,981.368,81.74
23.912,978.684,77.592
36.356,980.392,86.864
37.088,981.124,76.86
45.872,983.808,79.544
40.26,984.296,92.964
24.156,983.564,98.576
46.116,988.444,66.856
44.408,1000.888,68.076
48.068,996.252,69.296
51.728,986.248,72.224
63.44,984.54,81.496
61.244,986.98,83.204
52.704,992.104,79.3
40.016,987.712,81.252
36.844,984.052,83.692
31.232,979.904,86.62
17.08,982.588,90.28
31.232,983.32,84.912
26.596,988.2,72.468
15.128,990.64,67.832
18.788,1005.524,57.096
17.812,1015.528,62.708
25.376,1017.48,66.856
53.68,1033.096,71.248
-3.904,1045.052,82.472
33.672,1055.788,75.64
26.84,1056.52,76.616
-1.952,1056.032,88.328
4.636,1068.964,96.136
58.316,1073.844,8.54
65.148,1109.468,-49.288
61.976,1147.044,-48.312
116.876,1095.804,-2.196
70.516,1041.392,56.12
226.188,1030.412,27.084
318.664,990.396,11.712
329.644,1028.216,0.0
289.628,999.424,-54.656
538.02,930.86,-22.936
590.724,877.668,73.444
722.24,761.524,74.176
650.748,676.856,113.704
623.908,507.52,294.02
618.052,265.472,439.2
668.072,19.52,611.464
856.684,-160.064,415.776
982.832,-115.412,378.444
1076.284,-73.932,305.488
1111.176,-101.016,315.736
1014.064,-191.296,455.06
995.764,-222.772,425.78
1004.548,-155.916,408.7
950.136,-95.648,358.436
1006.988,-16.104,262.788
949.404,46.604,165.92
947.452,102.724,149.084
762.988,101.26,175.68
741.76,152.012,50.508
636.84,192.516,47.58
590.968,225.212,35.38
496.296,199.592,-16.836
527.284,207.156,-14.396
563.396,176.9,36.6
432.368,135.42,91.5
404.796,121.024,35.624
501.908,138.592,44.652
525.088,141.764,72.224
461.16,112.972,47.58
500.444,56.608,71.98
553.392,-12.932,97.844
751.52,-38.796,97.844
565.348,-57.096,100.04
385.276,17.812,49.044
838.384,9.76,55.876
517.28,-121.024,299.388
583.648,-249.368,327.936
782.508,-298.412,170.8
1057.008,-296.46,40.504
1314.672,-389.912,8.052
874.252,-421.876,335.744
615.124,-451.4,527.528
1181.692,-549.732,234.484
1433.744,-540.948,35.136
1794.864,-489.22,135.176
1666.52,-518.5,179.828
1573.556,-538.02,118.584
1525.732,-460.184,59.048
1651.148,-433.344,58.56
1589.172,-521.672,171.776
1657.736,-579.012,85.156
1636.508,-543.388,207.156
1462.78,-517.036,289.872
1349.076,-530.7,293.776
1283.928,-531.432,346.48
1365.668,-487.268,289.14
1384.7,-470.432,291.824
1351.76,-474.336,256.2
1300.764,-449.448,202.032
1249.036,-412.116,226.188
1220.244,-399.184,210.328
1108.004,-409.92,232.288
1108.492,-423.096,243.512
1167.052,-420.168,266.204
1262.212,-434.564,280.112
1423.74,-417.728,205.204
1407.88,-420.412,266.692
1358.104,-451.156,313.784
1200.968,-481.656,347.7
1149.24,-507.032,419.68
1295.152,-482.144,393.084
1375.916,-352.58,298.656
1478.884,-248.88,330.62
1460.096,-187.148,347.456
1516.46,-111.508,220.088
1516.948,10.248,164.944
1462.78,21.228,213.256
1342.0,39.284,71.98
1204.628,161.772,133.956
1176.812,242.292,72.956
961.604,285.48,37.82
691.496,356.484,14.152
580.476,471.164,-164.212
672.952,559.248,-175.924
646.844,569.984,-111.264
540.704,488.488,-139.812
264.496,485.072,30.744
370.636,478.972,-14.64
284.992,525.088,38.796
263.764,620.248,-28.06
176.656,640.5,-26.352
182.512,633.668,-20.008
49.532,619.516,35.868
3.416,633.668,94.672
73.688,631.716,81.252
5.856,656.848,48.312
38.796,754.448,53.436
5.368,758.352,58.072
10.736,796.904,52.216
-29.036,797.148,76.372
-42.944,797.392,66.612
-22.448,823.012,71.248
-4.392,851.316,98.576
42.212,881.084,112.484
112.484,915.488,30.744
59.78,943.304,20.74
0.488,910.608,117.852
67.1,877.424,110.044
153.476,897.92,70.028
148.352,952.332,64.416
127.856,1010.892,37.332
108.092,993.08,69.296
85.4,954.284,61.244
85.4,950.38,81.008
124.44,974.048,56.12
131.272,993.08,37.332
134.688,991.616,54.412
133.224,984.296,70.76
134.444,983.076,73.688
119.072,991.616,81.008
119.072,994.788,69.784
116.632,987.712,63.44
127.856,983.076,48.312
113.704,977.464,64.416
87.352,972.34,71.004
105.408,984.296,48.556
98.332,987.468,60.024
97.112,975.024,79.544
111.752,970.876,75.396
117.364,968.192,96.136
138.104,983.808,72.712
109.068,985.516,96.38
99.796,973.56,102.968
121.756,980.148,76.128
114.68,980.88,81.74
91.256,980.88,85.4
101.504,983.32,57.828
114.436,994.3,31.964
100.528,995.276,48.8
137.372,1010.16,22.448
117.608,1006.5,62.952
110.044,980.148,126.88
137.372,962.58,140.544
149.816,956.48,143.228
140.3,956.48,116.876
150.304,975.512,62.464
111.752,990.152,51.728
44.164,984.54,55.632
30.256,974.536,66.368
40.016,970.876,72.712
45.14,968.192,69.784
132.248,983.076,42.7
165.92,1007.964,53.192
166.896,1004.792,61.0
172.02,1000.888,57.828
156.648,994.544,86.132
128.832,980.148,94.428
117.608,971.852,70.516
107.604,976.0,84.424
79.544,974.78,89.548
73.444,972.096,74.908
93.208,990.64,57.096
78.08,1000.156,49.288
117.608,1003.084,5.368
127.612,1009.428,12.932
123.952,997.472,45.14
116.388,980.636,49.044
134.932,978.928,68.32
123.464,975.024,92.72
127.856,967.216,83.204
141.276,972.34,61.976
125.904,983.564,80.52
100.284,986.98,73.2
91.988,987.956,62.952
88.816,993.08,61.732
81.496,987.956,61.488
101.992,975.512,62.708
91.256,969.412,83.936
97.6,972.584,71.004
119.56,990.396,61.0
127.856,998.692,57.096
126.88,1002.108,38.552
134.2,1006.012,42.944
106.14,996.496,70.272
92.476,978.44,78.812
103.944,974.048,64.172
91.744,981.856,67.588
100.528,986.98,62.952
91.744,983.564,73.444
84.424,979.904,77.104
85.4,973.804,70.76
90.036,982.832,53.436
100.772,990.396,50.996
102.236,981.856,55.876
82.716,978.196,65.148
86.376,977.952,76.372
82.716,975.268,76.86
93.208,992.104,71.004
119.56,991.616,68.808
105.652,991.616,64.172
105.164,991.86,58.072
109.068,991.86,45.872
96.38,994.544,62.464
92.72,989.664,50.996
84.18,990.396,55.876
89.304,993.08,60.024
89.548,990.884,50.752
80.52,978.44,77.592
93.94,969.656,77.836
90.768,976.0,65.636
86.376,982.344,78.812
105.896,992.592,55.144
102.48,985.272,56.852
103.944,985.028,73.932
87.108,985.516,70.516
78.812,985.028,67.588
69.54,990.396,54.9
61.488,993.812,61.0
62.708,986.98,60.268
58.804,976.976,66.368
81.008,977.952,61.488
88.816,973.56,92.964
83.936,965.996,92.232
77.104,969.9,97.844
95.892,992.348,59.048
100.04,1005.524,49.044
101.992,999.912,51.728
93.208,988.688,76.372
96.38,986.248,82.96
91.744,993.568,82.716
94.184,995.032,60.512
103.944,993.324,55.144
83.692,989.664,59.536
88.084,981.368,59.048
66.856,989.176,70.76
67.832,985.028,77.592
85.4,982.344,73.2
86.62,986.492,76.128
84.424,981.612,75.884
98.332,988.2,74.42
88.572,980.636,83.692
73.444,980.392,78.568
77.592,983.564,82.228
81.252,986.492,70.028
85.156,991.372,64.904
87.108,995.032,56.852
82.228,994.788,55.876
61.0,997.472,91.5
82.96,990.152,82.96
77.592,978.44,69.296
66.856,983.076,77.592
53.68,996.984,81.496
26.84,1008.208,95.648
3.172,1015.528,82.716
23.424,1030.656,37.088
-24.156,1096.292,40.748
-92.964,1146.556,68.076
-93.94,1153.144,86.132
-138.592,1160.952,26.596
-111.02,1194.868,-8.052
9.028,1230.492,-110.532
-127.124,1287.1,-121.268
-331.84,1324.432,-28.548
-44.408,1247.084,6.588
264.008,1194.136,-40.504
510.692,1174.128,38.796
364.048,1134.6,220.088
246.684,1146.312,217.648
264.984,1073.6,227.408
290.116,1022.116,188.124
794.952,948.184,83.936
812.52,822.28,195.444
467.992,738.588,164.456
711.992,719.8,15.128
668.072,604.632,147.376
424.072,265.472,328.18
766.892,-42.212,592.188
570.472,-410.408,587.796
923.296,-349.408,52.216
1009.916,-242.78,136.64
1106.784,-203.252,408.7
963.8,-312.32,231.8
774.7,-357.46,187.636
901.824,-276.696,164.212
868.64,-119.316,190.32
900.848,-47.336,78.324
838.628,-30.012,81.984
779.824,-28.304,139.324
858.392,11.224,85.156
822.524,62.952,20.252
866.932,94.184,-0.976
923.052,74.42,47.824
920.612,40.748,34.16
866.688,51.484,27.328
879.864,67.344,6.588
837.896,80.52,-4.636
779.824,100.528,-48.312
703.696,114.924,-104.92
563.152,123.952,-46.116
295.24,74.176,35.38
340.38,104.676,9.76
362.096,115.9,-33.916
292.8,80.276,-43.188
290.36,81.74,25.376
324.032,29.768,53.436
482.632,14.396,3.172
575.84,-6.344,-43.92
466.04,-109.8,14.64
538.264,-145.18,142.984
480.192,-189.1,149.328
518.5,-173.972,40.748
728.584,-183.732,184.464
997.716,-246.44,166.164
963.556,-374.784,274.5
347.456,-464.088,194.468
668.56,-437.492,189.344
1022.604,-555.344,354.288
1149.24,-772.992,426.024
1078.724,-955.748,397.964
1090.436,-939.888,332.084
1366.156,-890.356,304.756
1458.876,-955.992,182.756
1699.948,-1028.216,15.128
1738.256,-1034.804,176.168
1572.824,-1019.432,157.136
1609.668,-912.804,28.792
1724.104,-832.528,-68.32
1543.056,-839.848,34.892
1432.524,-870.836,162.748
1241.228,-867.664,314.516
1232.2,-843.752,337.696
1345.66,-792.512,223.748
1318.576,-734.684,142.008
1240.496,-699.06,118.096
1108.98,-686.86,115.412
1053.592,-678.564,173.972
983.32,-708.088,240.096
882.06,-711.016,279.868
980.392,-706.868,243.512
1062.132,-743.712,279.868
1146.556,-780.312,237.656
1029.436,-792.512,263.52
1083.604,-752.496,288.896
1316.136,-774.944,244.244
1520.12,-784.216,191.54
1681.892,-798.856,115.656
1388.848,-686.128,169.824
1207.556,-517.768,209.108
1404.952,-446.52,224.968
1758.996,-403.088,92.72
1786.324,-246.44,58.56
1551.108,-127.124,27.572
1378.112,-21.472,-19.276
1349.076,48.556,-71.98
1255.868,138.836,-182.268
1151.192,205.692,-108.58
918.66,283.772,-92.232
704.428,345.504,-267.668
471.164,402.6,-132.248
309.148,354.776,-172.752
418.948,383.812,-412.116
211.304,470.188,-176.9
96.624,441.884,-110.288
-43.432,406.748,-147.376
-183.488,423.34,-32.94
-48.8,428.952,-137.372
-244.976,448.96,31.232
-413.336,470.432,75.64
-424.56,531.188,71.248
-338.916,634.156,101.016
-118.828,749.568,-44.652
-138.104,793.976,47.824
-253.028,784.704,111.264
-223.748,748.836,192.76
-211.304,774.456,141.764
-232.532,817.156,211.304
-128.832,847.168,108.092
-101.504,911.096,65.636
-79.056,927.932,108.092
-132.248,920.368,112.972
-22.204,964.044,6.588
5.856,1024.068,44.896
35.868,1025.776,39.528
57.34,1006.988,41.48
91.5,995.276,110.288
84.668,963.8,188.612
65.636,942.572,165.188
66.856,966.24,132.98
101.748,1022.604,51.484
125.66,1052.86,42.944
56.364,1035.78,48.068
13.908,1012.844,7.076
-20.008,997.716,27.328
-7.32,1007.72,36.844
-1.22,1009.428,45.384
40.26,1025.532,49.776
69.052,1023.824,61.0
106.384,1017.968,66.368
112.484,984.54,77.836
93.208,958.432,113.704
66.368,955.016,96.868
61.244,972.34,73.444
43.92,1001.376,46.116
45.384,1013.088,20.008
41.236,1006.5,23.424
9.516,985.028,36.112
-10.004,963.556,38.552
-23.668,949.892,61.732
22.936,964.288,29.768
18.3,967.704,54.9
21.716,974.292,44.652
18.544,984.54,56.608
1.708,976.488,76.616
30.744,964.532,87.596
81.008,960.872,79.788
92.232,972.096,91.012
52.46,984.54,89.548
72.956,1002.352,26.352
65.148,1050.664,-27.816
1.952,1070.428,-49.776
-12.2,1051.396,-42.456
-16.592,1006.256,8.052
27.328,970.388,21.472
20.984,977.708,35.624
14.64,974.048,73.444
41.48,967.216,53.192
18.544,961.604,64.904
-13.664,952.82,86.62
-39.772,942.816,78.568
-14.64,952.332,32.208
-17.568,969.9,47.336
-27.572,971.608,34.16
-47.336,966.728,42.944
27.328,979.66,-19.276
67.588,1020.164,-55.144
111.02,1063.352,-62.708
98.332,1066.28,-10.736
61.732,1025.532,81.74
40.26,977.708,121.512
51.24,960.14,70.76
24.156,984.784,36.844
15.86,995.52,36.112
-10.492,988.688,12.932
-22.448,984.54,20.496
-13.42,989.176,-4.392
-9.516,990.884,13.908
-8.54,979.172,47.092
28.792,981.612,30.256
35.136,997.228,62.22
31.476,995.276,66.612
43.432,981.612,50.996
42.944,978.684,68.076
40.992,970.388,71.248
-1.464,964.288,69.784
5.124,973.56,15.128
-1.952,1011.868,-32.94
-17.568,1035.536,-50.02
-32.696,1039.928,-33.916
-31.72,1012.844,22.204
-20.252,974.048,63.928
29.036,955.016,57.828
46.36,963.312,60.512
60.512,995.764,33.184
40.992,1000.156,51.484
34.892,986.492,59.292
3.66,972.828,75.396
-7.564,957.456,70.272
2.928,962.336,59.78
-7.076,967.948,55.876
-31.476,966.728,52.216
-1.952,991.86,-10.98
-9.76,1025.776,-21.716
-20.008,1030.412,-26.596
0.976,1027.728,-53.68
-1.22,1010.404,13.176
14.152,976.244,69.052
38.796,962.824,77.348
47.336,978.44,72.468
34.892,989.664,52.216
10.736,990.152,52.948
-3.904,980.392,35.624
-38.796,968.924,51.24
-24.4,967.46,6.1
-23.18,988.444,1.22
-33.184,994.788,16.348
-51.728,981.124,27.328
-17.324,979.66,28.548
7.808,986.492,23.912
37.576,995.52,32.208
62.952,1002.596,32.696
64.66,1001.62,56.852
49.532,1007.964,53.192
26.596,998.448,56.852
16.836,986.736,43.676
-13.176,981.368,27.084
-29.28,983.076,28.548
-31.72,998.448,-3.416
-51.484,1000.888,29.524
-32.208,996.496,25.132
-27.084,999.18,34.892
-27.816,1001.132,66.368
-15.616,1018.456,27.572
2.684,1058.716,8.54
-26.352,1091.412,28.548
-64.904,1112.396,47.336
-11.956,1140.212,23.424
19.764,1175.836,-70.76
-14.64,1238.056,-141.276
-166.652,1273.924,-119.072
-232.044,1278.56,-136.152
-168.116,1221.952,-135.176
-32.94,1212.192,-99.796
151.28,1205.848,-98.088
215.94,1160.952,129.564
147.864,1014.308,258.152
81.984,932.08,138.592
421.144,964.776,65.636
574.376,928.176,26.596
454.328,759.572,129.32
568.032,660.02,259.372
702.232,620.736,295.484
682.712,633.668,174.46
557.784,644.648,94.672
395.768,549.0,111.02
572.424,364.78,267.668
483.12,50.02,523.624
723.46,-205.692,457.012
1009.916,-188.612,19.032
1108.98,-100.528,-8.784
1132.892,-73.932,216.428
1055.544,-221.308,197.884
1066.28,-308.66,260.592
1034.072,-304.024,280.6
1034.316,-202.276,235.948
977.952,-113.948,200.08
957.456,-85.156,157.624
882.792,-50.508,158.112
853.024,-4.636,157.38
796.416,50.264,81.74
787.632,87.84,30.988
668.072,103.456,16.592
710.04,106.872,34.16
679.54,109.556,30.5
559.004,104.92,37.332
520.208,81.984,-28.06
577.792,116.388,-17.812
519.72,153.964,-91.988
437.004,182.756,-165.188
339.892,200.324,-49.532
255.224,114.924,82.472
218.38,17.568,157.38
437.736,-9.76,-130.052
486.536,-5.856,73.932
586.332,-66.368,245.708
502.884,-325.74,213.256
680.516,-328.18,289.384
807.152,-324.276,283.528
972.34,-302.804,317.2
1188.768,-312.808,91.988
600.728,-320.372,267.912
685.884,-329.4,333.548
835.944,-482.144,427.488
969.656,-605.12,423.584
1173.396,-636.84,368.928
1322.724,-660.996,259.372
1349.564,-676.368,319.884
1220.976,-693.204,338.428
1496.94,-735.416,83.204
1936.384,-767.136,137.372
1805.112,-768.112,241.316
1483.764,-811.056,300.852
1480.592,-772.016,286.7
1649.928,-714.432,216.428
1624.308,-657.824,178.852
1410.32,-650.504,226.676
1315.892,-596.824,193.492
1320.772,-568.032,160.552
1209.508,-566.568,234.484
1143.628,-588.284,237.656
1094.34,-561.2,168.36
1035.536,-505.324,160.796
958.92,-464.088,124.196
957.212,-495.32,176.656
946.964,-550.708,211.548
944.036,-565.836,220.82
886.208,-551.928,240.34
881.328,-545.584,226.432
937.204,-563.396,233.996
951.112,-571.936,259.372
978.196,-582.916,291.336
1148.02,-609.024,287.432
1296.86,-637.084,289.872
1375.184,-651.968,333.304
1408.612,-691.984,356.24
1443.016,-706.868,397.964
1540.372,-705.404,397.476
1471.32,-631.716,418.216
1412.516,-542.412,403.088
1458.388,-426.268,343.064
1432.524,-280.112,303.78
1370.792,-184.708,148.596
1309.792,-97.356,83.204
1186.572,32.452,124.44
1051.152,144.448,112.728
1133.624,245.952,-105.652
919.392,294.02,-82.228
792.756,347.212,-67.1
745.664,418.704,-157.38
689.544,444.324,-43.432
531.92,416.02,-29.28
433.832,434.32,-244.732
293.532,550.952,-83.692
331.352,586.088,-18.3
356.728,612.44,-118.828
206.18,628.788,-128.1
98.82,632.204,-6.1
74.176,642.94,3.172
57.096,668.072,-28.304
4.392,657.336,-13.664
-66.124,663.192,20.008
-85.156,656.604,41.724
-98.332,681.492,102.236
-131.028,736.148,139.324
-72.712,781.288,54.9
-60.512,821.304,-2.44
-44.652,861.808,46.848
-21.472,867.908,19.276
-39.772,891.088,32.696
-40.26,906.948,90.036
-44.408,911.584,3.172
-76.372,918.904,32.452
5.856,946.72,36.356
49.288,964.532,15.372
51.728,987.468,-2.684
49.044,1008.452,44.164
53.68,992.348,14.64
77.836,1001.62,66.612
73.2,970.876,131.516
56.852,933.3,170.312
62.464,905.24,139.568
55.876,905.728,140.3
101.016,938.18,67.1
81.008,971.364,73.444
95.404,1007.964,28.06
105.896,1047.248,-17.812
69.296,1049.2,2.44
96.624,1039.196,15.372
120.536,1001.62,22.204
85.644,969.412,76.616
70.028,950.38,106.384
94.916,946.964,87.84
64.904,950.624,83.692
127.368,990.152,8.052
134.444,1038.22,1.952
103.7,1037.244,26.352
101.748,1028.46,19.276
87.596,1016.016,35.38
67.1,997.96,68.076
69.296,968.436,87.84
77.348,955.26,93.208
98.576,970.632,55.876
69.784,977.464,88.816
110.044,988.688,32.452
108.58,998.692,34.16
74.42,987.956,70.272
56.12,978.684,84.668
90.768,973.56,63.44
76.372,972.828,81.74
93.208,967.46,46.604
108.58,986.492,5.612
97.112,1012.112,13.664
124.44,1023.824,7.564
123.952,1024.068,41.968
112.972,1003.572,78.568
111.996,978.928,81.984
109.068,961.604,59.048
87.84,986.736,41.236
78.568,998.448,34.892
40.504,994.056,33.428
70.028,1003.084,11.956
66.612,1000.156,30.744
47.824,980.392,46.848
44.652,959.652,47.58
86.376,960.628,31.72
80.52,975.024,52.704
96.38,983.076,54.9
117.12,998.448,60.268
140.056,1000.4,61.488
127.856,982.832,71.492
111.264,970.144,63.684
91.256,969.9,61.488
81.74,988.932,39.772
62.22,998.692,37.332
40.748,997.472,23.668
65.392,994.3,15.372
70.272,995.276,24.4
52.216,983.076,48.068
82.472,982.344,40.016
84.912,987.224,66.368
91.5,970.632,58.316
101.748,982.1,25.864
87.108,990.396,46.116
64.416,996.252,34.892
62.708,996.74,41.236
66.124,990.396,45.384
89.06,978.196,7.808
82.716,986.736,25.132
88.816,989.176,34.892
73.932,989.42,46.36
67.588,983.564,54.9
81.252,982.344,41.968
87.352,990.884,30.744
87.596,994.788,37.576
81.252,996.74,24.4
82.96,1001.376,30.5
53.68,995.52,60.268
64.172,983.076,55.632
64.172,965.508,66.856
73.444,956.48,49.776
103.456,981.856,18.056
81.496,1003.328,43.676
67.588,1002.84,43.676
83.692,995.276,36.6
90.28,986.98,23.424
94.916,987.712,29.768
98.576,991.86,46.848
85.888,1002.596,58.56
75.64,993.08,60.268
79.3,985.516,45.14
82.716,978.44,29.524
69.54,981.856,45.14
57.584,985.76,51.484
57.828,992.592,45.384
73.2,992.592,24.644
74.42,988.2,36.844
86.864,983.076,37.576
64.172,979.66,60.268
76.128,983.808,54.412
63.196,988.932,59.048
74.664,990.64,42.456
88.572,992.348,23.668
74.42,994.788,31.72
79.056,993.812,29.524
62.464,1001.864,46.848
62.952,1000.156,38.552
48.556,994.056,53.68
53.68,985.028,48.068
23.912,994.788,61.0
8.54,1021.872,69.784
60.024,1038.952,28.304
-39.04,1098.976,56.364
-33.428,1159.976,26.84
10.004,1191.696,-56.852
-3.172,1200.968,-70.76
-20.252,1189.744,-153.72
-84.668,1217.072,-235.216
55.388,1237.568,-197.64
118.34,1199.748,-106.872
189.832,1127.28,-19.032
232.044,1019.92,89.792
247.172,886.94,250.1
370.148,699.792,395.768
612.44,575.84,384.544
676.856,582.184,371.856
666.12,542.656,228.14
580.964,362.584,306.952
806.664,179.584,273.28
908.412,-101.26,393.816
914.756,-219.844,565.104
1037.976,-229.36,543.388
1074.088,-164.212,462.624
1082.872,-56.12,264.252
961.604,20.74,228.872
1049.688,60.756,191.296
965.508,19.032,180.072
978.196,15.86,198.128
928.908,13.908,154.452
892.552,50.508,114.192
802.76,72.468,53.436
708.82,87.108,72.468
574.376,79.544,74.42
529.48,71.492,85.156
357.46,74.908,61.244
203.008,84.424,52.216
224.48,130.784,39.528
263.764,140.3,25.864
349.652,129.808,82.96
382.836,77.836,115.412
469.7,83.692,25.376
612.196,56.364,-195.444
699.548,74.664,-84.424
657.092,10.736,12.444
399.428,-187.148,66.856
657.58,-224.236,205.936
958.676,-256.444,-10.98
921.588,-168.848,167.384
787.632,-304.268,263.032
575.352,-495.076,415.532
831.064,-518.256,234.728
1297.348,-518.5,121.024
1284.172,-512.644,329.156
1242.936,-578.768,208.376
1112.884,-630.496,286.944
1082.628,-681.248,141.276
1119.96,-713.456,61.488
1277.096,-719.312,42.456
1654.808,-732.488,-91.012
1766.804,-768.6,-70.272
1615.28,-796.172,146.156
1667.252,-893.04,165.188
1634.068,-885.476,264.74
1603.08,-813.496,210.572
1500.112,-677.344,164.212
1403.488,-594.384,201.056
1330.532,-597.556,190.076
1240.496,-613.172,157.38
1115.08,-610.976,192.272
1044.564,-582.428,177.144
985.272,-530.7,115.9
942.328,-461.892,33.428
926.712,-409.188,8.052
980.636,-425.048,17.812
954.04,-466.284,54.656
918.172,-505.812,115.9
927.444,-517.524,147.376
1009.428,-555.832,230.824
1132.404,-609.268,227.164
1279.78,-639.28,184.464
1373.232,-629.276,173.24
1427.4,-650.748,190.808
1389.58,-703.452,205.936
1388.36,-768.844,253.272
1371.768,-806.908,384.056
1367.376,-785.436,386.984
1436.184,-729.316,256.688
1459.852,-617.564,131.516
1491.084,-470.432,83.936
1464.488,-408.456,128.832
1453.752,-363.56,131.76
1337.12,-294.508,90.036
1281.488,-180.56,52.948
1233.176,-94.184,11.224
1131.428,-42.212,88.816
949.892,36.112,129.808
848.144,114.436,-46.36
661.972,220.088,-29.28
471.164,313.052,1.464
603.412,354.776,-118.584
507.52,372.832,-31.476
483.852,372.832,-49.532
281.088,418.948,27.572
235.948,444.08,-43.432
187.148,517.28,-52.948
186.416,567.3,18.788
133.712,585.6,39.284
92.232,665.144,40.504
117.852,705.16,78.568
193.98,758.596,22.692
142.496,761.036,27.084
71.248,729.316,102.48
14.152,728.096,91.5
-28.548,762.012,91.5
-41.48,815.936,104.188
-0.732,831.552,-2.928
-66.612,859.368,53.436
13.42,875.472,57.096
-19.032,886.452,30.5
-37.576,925.004,56.12
-3.66,952.332,56.12
-20.252,933.788,79.3
6.588,921.1,37.088
16.836,935.252,53.192
24.644,954.284,77.348
49.044,954.284,54.412
6.344,952.82,95.892
-6.588,937.936,69.784
-41.724,921.344,104.432
-26.596,949.404,70.028
6.344,978.44,84.668
-11.468,968.436,99.796
67.344,970.632,17.568
105.164,1001.864,-1.952
86.376,990.64,31.232
92.476,987.224,87.108
102.48,966.484,110.532
99.796,948.428,87.596
93.208,977.22,65.88
73.444,991.128,65.392
41.48,995.52,50.752
41.48,1010.404,51.972
43.92,1013.82,56.12
59.78,1001.62,20.252
94.184,997.472,-20.496
67.1,995.276,34.892
42.7,976.976,36.112
64.416,980.636,36.6
106.872,1015.04,36.356
112.972,1016.26,53.924
107.848,1000.156,84.912
107.36,971.364,113.704
104.188,945.012,93.452
104.92,952.088,87.84
94.184,968.436,72.712
87.352,995.52,55.388
75.884,1003.816,47.092
56.364,1012.6,42.944
52.216,1003.328,48.8
60.268,987.956,32.696
56.608,977.464,42.456
47.336,974.048,72.712
84.18,986.736,35.38
87.108,1000.888,51.24
81.252,999.18,65.148
111.02,994.056,47.824
89.548,992.592,70.516
87.596,985.76,57.828
87.84,980.88,45.872
82.472,991.372,62.952
77.592,985.028,55.388
55.876,976.488,77.104
85.644,976.488,50.02
59.78,981.368,63.44
46.36,980.148,64.172
59.292,987.224,42.7
42.7,988.932,60.268
32.94,981.612,63.44
76.128,986.98,23.18
83.204,993.08,33.184
75.884,995.276,33.916
80.52,995.764,47.824
74.42,987.956,63.196
83.936,997.228,39.284
94.184,1006.256,45.14
81.74,1002.84,48.312
78.568,985.516,42.212
65.636,976.488,64.172
75.396,986.248,42.944
80.52,995.52,50.508
81.252,989.176,47.824
70.76,978.684,43.92
67.1,975.024,44.652
75.396,984.296,35.38
68.32,984.296,48.556
67.1,986.98,40.748
54.9,990.152,44.408
44.652,986.98,53.436
77.836,985.76,28.304
77.348,987.468,34.404
70.028,987.224,49.776
66.612,983.32,54.412
73.2,987.712,33.916
61.732,992.348,39.04
58.56,995.276,39.772
64.904,992.836,39.528
69.54,984.54,44.408
65.392,990.152,43.188
87.108,999.424,41.236
75.152,993.812,47.824
65.636,984.54,28.06
65.636,990.884,43.92
46.604,983.808,57.584
44.652,980.636,48.312
53.436,984.54,51.728
39.772,984.54,50.508
69.54,986.248,14.64
83.204,987.468,29.036
57.096,1002.352,58.072
54.168,984.54,73.2
53.68,984.052,73.2
91.012,982.1,44.408
99.552,990.152,28.548
84.912,993.08,30.5
51.24,997.472,37.088
21.96,1006.744,38.552
37.82,1016.504,19.032
68.564,1019.92,-10.248
32.94,1040.904,21.716
18.3,1057.984,30.5
12.2,1057.984,37.332
9.028,1061.644,39.528
-82.472,1088.972,11.224
-92.232,1151.192,-81.74
32.452,1177.3,-136.152
-2.44,1190.232,-97.844
-119.316,1234.152,-128.588
-77.836,1183.644,-63.196
-101.26,1152.412,-7.808
64.904,1126.792,-50.996
132.736,1019.432,32.208
318.42,996.252,145.18
303.78,896.212,283.284
479.46,769.82,349.896
595.604,613.172,220.088
680.76,383.812,244.976
722.728,221.552,315.492
541.436,76.86,307.44
846.192,-45.14,352.092
914.512,-186.172,379.664
953.552,-289.872,209.84
1094.828,-247.172,211.304
1055.788,-213.012,196.664
1164.124,-162.992,197.884
1156.316,-183.488,215.208
1166.808,-190.564,214.476
1087.996,-198.616,226.92
1017.724,-192.028,249.612
1069.208,-179.584,212.28
1006.5,-126.636,160.796
934.032,-89.304,152.988
909.632,-55.632,131.516
810.812,-26.108,81.984
752.496,18.544,96.624
653.676,57.34,70.516
597.312,117.608,-78.324
470.676,204.472,-23.424
357.704,220.576,-56.364
165.432,102.724,-71.248
139.812,99.064,60.024
45.872,85.644,100.528
33.428,110.532,51.484
238.632,120.78,-189.1
366.244,61.244,-124.196
471.652,-0.732,72.224
476.288,-96.38,88.084
390.888,-147.376,-77.104
698.816,-201.056,-129.564
870.348,-263.032,206.668
885.72,-438.712,242.78
675.88,-553.148,203.74
805.444,-574.376,177.388
1136.796,-587.796,149.816
1117.764,-675.636,354.288
1182.668,-769.82,215.696
1376.404,-909.388,-18.544
1468.392,-831.796,-6.832
1472.54,-803.004,-35.868
1384.456,-907.192,-223.748
1335.9,-985.272,-94.916
1426.424,-1018.944,73.444
1554.524,-1075.064,43.92
1531.588,-1029.924,144.204
1440.332,-1020.652,146.888
1371.524,-956.236,148.596
1338.34,-885.476,216.672
1382.26,-844.728,168.36
1369.816,-792.512,87.596
1301.74,-732.732,115.168
1190.964,-689.056,76.86
1088.972,-661.24,71.736
1072.38,-661.484,54.168
1077.748,-640.5,14.64
948.916,-603.168,66.612
874.252,-582.672,82.228
885.232,-577.792,61.488
926.956,-587.308,56.12
985.76,-622.2,93.94
1064.084,-680.272,97.356
1132.648,-739.32,121.024
1226.832,-777.14,142.984
1272.948,-829.844,259.128
1303.204,-903.776,379.176
1539.396,-954.528,271.816
1641.632,-1004.792,247.904
1556.964,-910.12,297.924
1449.604,-835.456,300.12
1462.78,-773.236,302.072
1610.4,-673.196,259.128
1500.356,-516.792,166.652
1527.44,-367.22,140.788
1321.748,-247.904,104.676
1178.764,-158.112,25.132
1118.496,-33.672,-75.64
811.056,57.584,34.16
633.912,151.768,-0.976
667.096,216.672,-183.244
571.692,274.988,-165.188
457.256,298.412,-268.644
154.452,364.78,-136.152
91.256,329.888,-19.52
-3.172,327.936,-84.18
-75.884,405.04,-206.424
-213.988,484.828,-16.836
-62.708,534.604,-65.148
-91.012,539.24,-54.168
-151.28,543.876,125.66
-74.176,595.36,58.316
-48.556,685.64,26.596
-29.768,826.184,-95.16
-122.976,894.26,34.404
-86.132,857.904,34.404
-146.888,804.712,47.58
-91.012,792.512,81.496
-107.116,820.572,113.216
-66.124,868.884,100.04
-36.356,945.988,37.088
-38.552,988.444,-61.0
-99.552,1000.644,-35.624
-85.644,977.708,23.668
-68.32,956.48,71.248
-83.692,943.06,89.304
-104.188,958.92,99.796
-109.068,964.776,70.76
-100.284,941.84,8.784
-83.204,936.716,61.0
-83.936,954.284,44.652
-71.004,967.46,73.2
-50.996,955.016,73.688
-37.332,959.896,54.9
-30.5,978.684,43.676
-23.668,1013.088,20.252
-32.94,1038.708,16.104
-56.364,1006.256,34.404
-10.004,985.272,2.196
-9.272,976.0,45.872
-23.424,954.528,72.468
5.368,960.628,76.616
10.248,980.88,74.42
26.108,989.42,62.952
36.844,1000.156,56.364
-10.98,993.568,69.296
-23.912,1000.4,43.676
-42.456,998.204,43.676
-59.292,988.444,43.676
-5.856,1012.6,-23.18
-2.44,1029.68,1.708
-40.26,1017.968,35.136
-32.452,987.712,75.396
15.372,957.212,68.32
29.036,970.632,57.34
33.184,1001.376,47.58
4.148,1014.064,44.896
-0.976,998.692,48.068
2.196,983.564,47.58
12.932,974.78,8.54
-18.3,984.784,21.472
-26.352,990.396,43.432
-40.992,980.148,33.672
-38.796,967.704,61.976
-34.892,970.632,40.504
-20.008,980.392,36.844
-16.836,987.224,28.304
-13.176,991.372,48.068
2.196,997.96,40.992
-16.104,994.056,78.324
-13.176,991.616,48.312
-12.444,996.496,55.388
-6.832,997.96,29.768
-17.08,996.252,36.6
-15.616,1002.84,21.472
-28.06,994.056,29.28
-32.94,985.76,20.008
-28.548,990.64,26.596
-39.04,985.272,53.68
-29.768,986.492,53.436
-27.328,987.956,38.064
-9.272,993.324,10.004
-28.792,997.96,8.052
-23.424,985.028,21.472
-33.428,978.684,66.856
-26.596,976.488,53.68
-29.28,979.904,25.132
-29.524,981.612,47.092
-46.604,979.66,59.292
-37.82,973.804,47.092
-42.456,971.12,63.44
-17.08,984.54,29.768
-2.928,1004.548,-0.488
-12.444,1004.548,25.864
-5.124,999.668,7.808
-24.888,997.96,36.844
-12.444,987.468,25.132
-8.784,980.88,52.46
-33.672,982.1,60.756
-63.196,982.1,70.272
-39.772,968.436,30.5
-24.888,988.444,8.54
-7.564,1002.352,19.032
-56.12,994.544,32.452
-57.096,968.192,63.684
-48.8,973.316,59.78
23.18,994.056,-23.668
24.644,1022.604,9.028
40.992,1015.04,36.112
6.344,1007.72,58.072
-14.396,998.448,80.032
-26.596,988.688,50.752
-23.18,979.416,33.916
-23.18,979.416,15.372
-53.436,986.98,26.84
-40.992,996.008,23.424
-57.34,995.276,41.968
-33.672,986.248,24.888
-38.796,973.072,46.36
-33.672,959.896,58.316
-3.416,974.048,33.672
11.468,996.252,52.46
6.344,999.912,46.604
4.148,997.716,36.6
-11.956,993.324,61.976
-20.008,976.244,50.996
-15.86,981.124,23.424
-25.132,991.86,37.82
-38.552,995.52,27.816
-36.356,1000.888,20.252
-38.064,997.96,35.624
-25.132,980.88,46.36
-17.08,981.368,51.728
-24.644,977.708,71.98
-4.636,977.464,77.348
6.588,976.976,53.68
-2.928,984.54,51.728
7.076,995.52,30.744
-0.488,996.008,32.208
-8.784,1001.62,41.724
-9.516,1003.572,44.408
-7.32,998.448,33.672
-12.2,987.712,40.748
-14.152,985.516,35.868
-22.936,988.688,50.264
-21.228,992.348,63.44
-24.888,981.856,56.608
-22.204,975.024,67.588
-3.172,980.88,59.536
-0.976,986.492,59.048
-15.86,995.52,63.928
-5.368,1003.816,42.944
1.464,1008.94,27.816
4.392,1005.768,34.648
-2.44,1003.084,44.652
-3.66,1005.524,54.9
-26.596,1002.596,62.22
3.416,992.348,39.772
-2.44,1025.288,47.092
-25.132,1043.344,45.384
-63.196,1072.868,33.428
-97.112,1113.86,-14.152
-71.004,1110.932,-65.392
-47.824,1088.24,-117.608
-32.94,1096.78,-92.72
68.076,1106.052,-34.892
109.8,1117.764,-4.148
50.02,1137.528,26.84
77.836,1134.6,-29.524
109.8,1158.268,-49.532
150.06,1196.332,-104.92
196.908,1205.36,-80.276
343.796,1189.988,-128.344
335.988,1156.804,-44.408
391.864,1072.624,37.088
445.3,1006.988,138.348
600.24,894.016,143.716
659.532,833.504,148.84
610.0,762.012,303.536
578.768,676.368,276.696
615.368,584.868,200.568
559.492,473.36,244.244
636.108,340.136,235.216
575.352,117.12,361.364
666.364,25.864,447.008
833.748,-116.876,443.104
900.36,-89.792,351.848
930.616,-44.652,245.22
1015.04,-16.348,159.82
1016.26,7.808,233.264
945.256,-41.236,276.696
924.516,-92.964,265.716
888.892,-82.472,246.196
959.164,-23.912,147.132
908.656,20.496,105.164
817.644,53.436,67.588
833.26,76.86,13.664
704.428,83.448,26.352
673.928,99.308,-32.94
624.396,129.564,-57.34
607.072,146.888,-42.944
618.296,135.42,-36.844
628.3,124.928,-27.084
580.232,122.976,46.604
486.78,89.792,80.764
477.264,58.072,-54.412
493.124,106.14,-91.012
460.184,136.64,-41.48
324.276,73.2,60.024
610.488,18.056,163.968
735.66,-150.548,144.448
823.256,-155.184,9.516
765.916,-65.636,101.504
748.104,-25.376,150.06
616.832,-106.384,41.724
838.872,-174.216,10.004
1147.288,-182.024,117.852
1109.712,-211.06,278.404
857.904,-194.224,210.328
613.904,-151.036,85.644
767.136,-113.216,164.456
883.768,-321.592,260.104
1490.108,-582.184,134.444
1656.76,-602.924,218.136
1374.452,-486.536,261.324
1102.148,-466.04,388.936
1323.7,-528.992,94.428
1796.572,-500.688,-63.196
1749.48,-486.536,53.68
1463.024,-492.88,85.888
1553.304,-480.192,-56.12
1712.392,-439.932,-4.148
1630.652,-482.144,71.736
1418.616,-538.996,195.932
1295.64,-507.52,131.516
1243.18,-429.196,105.896
1281.0,-362.34,2.684
1304.912,-340.136,-54.656
1251.232,-379.42,24.644
1130.696,-442.372,87.84
1107.272,-473.116,140.3
1149.24,-460.916,136.64
1149.484,-438.224,189.1
1144.604,-445.788,167.14
1132.892,-441.152,161.284
1148.996,-432.856,162.748
1204.14,-445.544,193.98
1270.264,-463.112,224.236
1393.24,-460.184,167.628
1380.796,-442.86,218.624
1368.596,-463.844,264.496
1360.788,-515.572,387.96
1584.536,-503.372,289.14
1643.584,-445.788,159.576
1336.144,-292.312,248.636
1257.088,-170.8,261.812
1298.812,-104.188,190.076
1393.24,-100.04,175.68
1304.18,-29.768,149.328
1120.936,100.04,68.808
950.868,216.428,94.184
987.712,273.036,30.256
940.376,316.224,-78.08
875.228,376.492,-40.748
711.016,414.556,24.4
591.7,461.892,-63.684
633.912,485.072,-105.408
599.996,514.84,-124.928
471.408,502.884,82.716
368.928,503.616,-58.804
393.572,560.468,-92.232
250.1,591.944,64.416
223.504,641.72,-70.516
76.372,644.16,-55.144
-3.904,664.412,4.88
108.824,695.644,-59.048
28.06,772.748,-58.56
-11.468,791.292,-14.152
-108.092,788.608,-15.86
-84.18,794.708,-2.684
-0.976,812.032,-36.844
-71.98,832.772,30.256
-99.552,856.196,-25.864
-109.8,887.184,-4.148
-118.096,894.504,-26.352
-99.552,891.82,-18.056
-84.424,911.34,-73.688
-91.988,959.164,-44.652
-81.252,971.364,16.348
-36.356,942.328,39.772
-10.492,896.456,-2.44
-42.456,913.536,61.488
-17.568,932.324,31.72
-24.156,922.808,46.604
-9.76,984.296,35.624
-13.176,986.248,48.556
6.588,955.504,-3.416
35.136,964.532,22.448
15.616,947.452,50.264
-29.036,939.888,70.272
5.856,962.824,39.772
-0.976,984.052,48.312
12.688,990.64,40.26
40.26,1002.596,17.568
36.112,996.008,9.76
57.584,994.788,-30.744
50.996,1006.5,-4.148
9.028,991.86,-5.368
24.644,1010.648,-30.256
28.06,1033.096,-26.352
20.008,1031.632,-28.548
10.98,1012.112,-5.368
-21.228,984.784,40.992
11.468,969.168,49.776
31.476,959.408,53.924
31.232,947.94,48.556
27.816,973.56,46.36
55.144,990.64,5.612
42.944,1005.036,1.22
44.164,1006.744,5.368
67.588,993.324,-9.028
60.268,994.3,-2.196
42.7,991.372,23.912
3.172,977.22,33.672
4.392,974.292,31.964
51.972,983.808,5.124
52.948,994.788,9.272
43.92,987.956,3.172
44.408,1000.4,-24.4
34.892,1010.16,-1.708
28.304,996.008,1.22
42.456,981.612,6.344
33.184,969.656,38.552
15.86,955.992,52.216
46.604,975.756,22.936
68.32,1000.156,0.488
58.804,1004.304,3.904
58.56,1011.38,-15.128
68.32,1016.016,-44.408
34.16,1016.26,-13.176
28.548,1000.156,-13.664
53.436,983.808,-6.588
38.064,976.244,40.26
36.112,978.44,40.992
41.48,982.832,28.792
23.18,983.32,32.94
57.584,985.76,-12.932
59.536,995.032,-1.952
45.872,988.932,19.032
43.92,987.224,13.664
46.36,984.54,13.176
44.408,988.2,19.032
40.26,991.128,7.808
25.864,999.18,0.488
29.524,1001.62,-8.54
31.72,989.42,-9.272
30.988,986.736,1.22
46.604,989.176,-5.856
24.888,990.64,24.156
38.064,991.372,17.568
48.068,990.64,6.832
48.8,989.664,25.132
45.14,991.372,23.424
50.508,991.128,13.176
45.14,994.056,7.564
50.02,993.324,5.612
44.408,986.492,14.396
32.696,976.976,16.104
35.136,978.44,23.424
41.968,987.224,24.644
50.264,991.616,19.032
43.676,986.736,2.44
33.916,991.128,7.564
39.04,989.42,9.76
30.012,989.42,13.176
29.28,983.808,10.98
31.476,985.028,4.88
51.24,991.372,-1.22
34.404,985.516,9.76
39.04,989.176,10.492
39.772,992.836,20.496
45.384,989.42,13.908
53.436,997.228,4.392
58.56,999.912,2.684
42.456,997.716,15.372
26.596,996.252,20.252
39.528,991.86,10.98
32.452,985.516,1.22
25.62,986.004,9.516
26.84,992.592,5.856
26.352,994.3,8.296
11.956,998.936,22.936
-10.248,1024.312,22.204
-1.708,1051.884,25.864
-83.448,1161.928,1.464
-173.972,1229.76,-26.596
-135.176,1298.324,-136.884
-102.968,1317.6,-175.192
-106.628,1373.476,-154.452
-67.1,1418.86,-94.672
-75.396,1364.204,-8.784
18.544,1334.192,-41.236
156.648,1281.732,-83.448
270.108,1223.416,151.036
470.676,1109.712,196.176
589.748,1027.728,188.856
414.556,986.248,291.58
406.504,946.72,316.712
518.5,893.04,182.756
477.752,860.588,172.264
568.276,805.688,113.216
622.688,767.868,-1.952
642.208,680.516,-8.052
626.348,535.336,15.616
680.516,331.84,154.452
626.348,112.24,476.288
761.524,-102.968,338.184
874.252,-104.92,38.064
961.848,-46.848,-2.928
955.504,-75.884,37.82
929.64,-116.876,207.888
899.872,-177.876,190.564
859.124,-174.216,107.116
906.704,-107.36,39.04
811.788,-10.736,84.424
777.14,22.204,7.564
820.572,49.776,-18.3
695.156,82.228,-59.292
765.672,133.468,-101.504
742.492,139.568,-88.084
587.796,120.78,-116.388
564.86,120.78,-96.624
469.7,113.704,-60.268
496.296,146.644,-100.284
432.856,141.764,-92.964
366.976,122.976,-83.692
431.636,117.608,-59.292
490.928,72.712,-109.068
525.576,66.612,-30.988
578.28,20.008,-35.624
474.58,23.424,-47.092
542.168,17.568,20.252
586.82,30.744,31.72
679.784,17.08,-53.436
567.3,19.52,147.376
487.512,-45.14,50.264
693.692,-73.932,-56.364
854.488,-76.616,11.468
896.7,-151.036,27.328
716.14,-269.62,54.9
794.708,-316.712,32.94
913.048,-409.676,129.076
1080.676,-554.856,268.4
979.416,-673.196,328.18
1200.236,-766.892,263.276
1176.568,-780.8,314.028
1238.788,-811.788,339.16
1146.068,-845.46,228.872
1306.132,-866.444,134.2
1326.384,-888.892,223.016
1593.808,-875.96,73.2
1579.656,-882.06,91.744
1639.192,-879.864,105.896
1592.344,-846.192,103.7
1340.048,-820.084,193.492
1348.344,-728.096,115.656
1466.196,-678.808,6.588
1465.22,-655.14,-5.368
1268.068,-660.508,86.864
1160.464,-683.444,119.316
1157.78,-702.964,149.816
1094.096,-693.448,163.236
1062.132,-669.048,137.128
1042.368,-659.288,134.932
1037.0,-660.02,124.928
1026.996,-675.88,117.12
1046.516,-698.328,142.984
1082.14,-728.828,106.628
1123.376,-762.5,174.46
1172.664,-817.644,216.428
1203.652,-908.168,310.368
1375.672,-933.544,201.3
1428.864,-944.524,224.968
1427.156,-974.292,336.232
1470.344,-984.052,240.584
1513.044,-904.508,200.568
1519.144,-783.728,87.108
1425.204,-684.664,79.056
1322.48,-677.1,188.368
1237.568,-576.328,212.28
1328.58,-466.772,59.292
1113.616,-240.34,68.808
1027.24,-60.268,-69.052
753.228,63.44,-50.02
667.584,243.512,-146.4
659.532,305.976,-81.008
476.532,314.028,-80.276
439.2,385.032,-115.168
220.088,478.484,-105.408
205.448,486.78,-59.292
230.092,495.076,-14.884
143.716,469.944,-25.376
-10.248,481.9,47.824
-65.148,562.664,80.276
-60.268,575.108,-3.416
-124.44,594.628,-2.44
-87.596,661.972,6.1
-105.896,718.336,-80.032
-230.336,833.992,37.332
-65.636,846.68,-15.86
-131.516,826.916,-16.348
-183.732,840.58,39.04
-95.404,855.708,51.484
-44.164,862.296,-1.22
-31.232,907.192,39.284
23.18,943.792,34.16
-9.516,937.936,48.556
22.936,918.416,65.148
2.684,913.048,100.284
0.488,930.128,145.668
12.688,941.352,104.92
5.124,960.628,107.116
-5.612,994.3,45.384
24.156,1010.648,1.952
35.624,1004.792,1.22
26.352,984.784,2.684
22.692,989.664,17.568
48.068,1002.596,59.536
2.196,990.396,77.104
-10.004,971.12,100.772
39.772,967.704,50.752
9.516,964.044,64.416
36.844,954.04,27.328
60.756,974.536,-0.244
51.484,984.296,22.936
49.044,975.024,18.544
41.236,1004.792,8.784
53.436,1022.36,19.276
37.088,1009.184,28.304
73.688,991.86,43.92
69.784,975.268,52.46
41.724,964.532,73.688
60.512,977.464,49.288
86.864,996.984,30.012
84.424,1015.772,19.032
94.672,1035.78,-31.72
55.144,1037.732,-19.764
33.184,1006.012,33.672
33.428,973.804,66.124
49.044,956.968,71.004
64.416,977.952,64.416
53.924,1002.352,33.428
37.332,1001.376,37.332
38.308,982.588,26.352
65.392,984.784,9.76
58.56,995.276,35.624
44.408,991.86,51.484
60.512,980.636,33.672
85.888,993.08,22.204
75.64,999.668,37.088
53.436,988.2,43.92
42.212,984.052,40.016
37.576,985.272,39.284
50.264,988.688,-0.488
49.532,992.592,13.664
36.6,992.836,30.988
54.168,991.372,14.396
56.364,995.52,28.792
57.584,997.716,35.38
64.416,994.056,54.412
76.616,981.124,14.884
75.396,987.468,-2.196
58.072,991.86,3.904
18.788,979.904,16.348
30.256,978.684,20.008
65.392,987.956,-10.492
62.22,1004.548,7.564
45.384,997.472,27.328
20.74,982.832,52.704
33.184,978.928,67.1
57.34,979.416,44.164
81.252,976.0,20.008
90.28,976.976,-11.956
91.012,992.836,1.22
57.828,1002.108,18.544
59.292,998.204,20.008
45.628,1000.4,25.864
61.0,992.348,-5.368
62.464,989.42,-6.344
49.044,990.884,15.372
45.628,985.76,18.544
24.4,979.66,44.164
52.46,981.856,10.736
65.392,990.884,-7.564
47.092,989.176,7.32
18.544,978.44,25.132
29.036,975.024,26.596
50.752,982.1,11.956
67.588,988.932,10.736
82.228,995.52,-12.932
100.284,1012.6,-12.932
72.712,1012.6,11.224
63.928,993.812,23.912
49.288,986.004,25.864
56.852,984.784,7.564
50.02,992.348,12.932
57.828,998.204,11.468
55.876,996.008,16.348
47.092,988.444,29.524
42.7,984.052,23.424
46.36,980.392,26.108
42.456,973.072,18.788
40.748,968.436,4.88
55.632,985.76,9.516
52.46,1001.864,10.736
44.164,998.692,25.864
51.728,991.616,30.256
51.972,990.884,14.884
71.736,998.448,-2.684
57.584,997.716,4.392
54.412,994.3,-0.244
39.528,986.248,19.276
29.524,973.804,26.108
36.356,979.66,4.392
60.756,997.228,7.32
42.456,998.204,16.592
47.824,985.76,13.176
47.824,982.1,27.328
39.284,975.024,32.696
51.728,979.66,19.032
51.484,984.052,23.668
58.072,988.2,12.932
50.996,995.52,-3.66
67.1,1004.792,-6.1
53.192,1012.6,7.808
51.484,1001.864,4.88
44.652,995.764,15.128
49.044,992.836,-0.488
42.212,994.788,9.028
41.236,991.86,14.64
43.676,988.932,9.028
48.312,993.08,7.076
47.092,989.664,22.692
40.748,981.368,22.936
36.844,983.076,14.152
35.624,991.86,-7.076
13.908,1013.332,-15.128
6.588,1033.828,-30.744
7.32,1060.424,-33.428
-7.32,1084.58,-44.164
9.272,1100.44,-39.04
-35.38,1132.892,-46.848
-107.848,1164.856,-76.616
-62.708,1180.228,-152.744
-41.968,1198.04,-114.68
51.972,1214.632,-175.436
94.916,1248.06,-128.588
42.212,1227.076,-69.54
180.072,1192.916,-98.82
329.156,1199.504,-109.8
282.796,1199.992,-30.744
140.788,1157.78,0.732
265.228,1091.656,-49.776
169.092,1080.92,-117.608
666.608,982.588,-270.352
461.404,795.684,-10.004
552.172,613.172,62.708
634.4,525.82,-56.608
632.692,426.268,41.724
529.724,274.988,118.828
549.0,67.588,331.596
664.9,-169.58,487.756
832.528,-407.724,211.548
989.42,-298.9,107.604
1219.756,-276.452,134.2
1159.244,-376.004,318.176
1129.476,-480.436,312.076
972.096,-484.584,324.276
983.808,-375.272,297.436
936.96,-223.016,201.3
1004.548,-154.696,79.056
946.232,-162.504,99.552
904.752,-136.396,61.976
873.276,-80.764,66.856
826.916,-5.612,-5.124
769.088,20.252,-5.612
692.228,2.928,25.62
717.848,-5.612,29.524
615.856,-6.344,11.956
647.088,32.208,-74.664
604.632,38.064,-72.468
623.908,11.712,-25.132
575.352,-26.108,-50.752
541.68,-19.52,11.468
469.7,8.54,52.46
488.732,42.7,-10.736
517.768,59.536,-105.164
545.096,40.748,-39.284
511.668,-16.348,60.268
504.836,-61.976,52.948
559.248,-114.924,10.004
658.556,-124.684,-35.624
613.416,-144.204,134.444
536.312,-215.208,122.0
731.512,-304.512,76.372
918.904,-329.888,84.668
942.816,-325.496,75.396
412.36,-359.9,200.568
786.168,-345.26,123.22
1046.028,-518.744,84.668
1340.048,-549.0,257.176
1350.052,-683.688,227.408
1046.028,-763.476,346.968
1063.108,-749.324,454.328
1592.1,-754.448,108.824
2008.852,-786.656,-39.284
1913.692,-777.872,125.66
1698.24,-794.22,180.804
1725.568,-794.952,210.328
1553.06,-704.184,199.348
1370.304,-556.564,71.492
1314.428,-447.496,26.84
1292.956,-428.22,-22.448
1279.536,-477.752,40.504
1212.436,-574.376,113.216
1183.888,-631.96,182.756
1131.916,-605.364,150.548
1010.404,-548.512,174.704
1005.28,-551.196,162.504
991.128,-570.96,152.744
985.76,-587.796,166.408
920.856,-579.256,160.796
928.908,-539.972,146.888
941.596,-549.976,173.484
969.412,-575.352,158.6
992.592,-589.748,174.948
1067.012,-597.8,168.36
1193.892,-631.472,168.116
1216.34,-659.776,238.876
1207.8,-709.796,267.424
1119.472,-709.552,326.716
1250.5,-678.564,250.832
1444.236,-637.084,103.456
1442.284,-588.772,175.924
1450.58,-592.432,212.036
1480.104,-581.208,157.868
1491.084,-438.712,233.752
1371.036,-229.36,198.372
1337.852,5.856,210.328
1409.832,91.256,121.268
1351.272,163.968,-23.668
1155.096,272.06,-26.84
1028.46,322.812,-22.692
875.716,335.5,-56.852
744.688,333.06,-66.124
639.28,398.208,-223.504
614.392,503.86,-134.688
455.548,527.284,-189.1
364.78,556.808,-128.344
258.884,558.516,-166.652
134.932,612.684,-156.404
72.712,659.532,-173.24
7.32,661.484,-148.352
3.66,647.088,-157.624
-25.864,681.248,-52.216
-45.628,681.248,-97.356
-77.104,705.404,-12.2
-84.18,740.54,45.628
-15.86,748.592,-14.152
-15.616,776.652,-60.024
-9.272,816.424,12.932
1.952,836.92,-26.352
20.496,854.976,-5.612
7.32,871.324,19.032
8.052,889.38,33.672
-11.468,881.084,-0.732
-1.22,884.012,57.828
45.384,899.628,69.54
68.076,937.448,29.524
101.016,974.048,-49.044
70.76,982.588,39.284
44.408,945.256,67.1
52.704,940.132,90.524
5.368,946.476,88.084
39.284,955.504,-10.98
35.624,962.824,22.204
44.408,959.408,-0.244
73.688,985.516,0.732
49.776,986.98,45.872
108.58,980.88,28.792
147.62,987.712,57.096
125.66,972.584,83.936
125.904,971.364,76.616
146.4,989.176,65.636
129.076,984.54,38.796
117.364,999.18,-4.392
93.208,1011.38,-23.18
53.68,1003.572,16.836
77.348,983.808,21.716
81.496,993.812,17.568
90.524,1006.5,38.064
104.188,1000.4,15.128
106.384,993.812,10.736
77.836,977.952,45.628
43.676,958.432,67.1
69.784,952.088,51.24
71.492,960.14,62.464
59.292,951.844,70.028
82.716,971.12,37.088
120.048,1012.112,-26.352
95.892,1021.872,19.52
94.184,1012.6,6.344
111.752,997.96,22.448
98.82,985.272,63.196
85.888,966.24,81.74
99.552,955.016,76.616
77.104,951.112,93.94
72.224,950.38,70.028
109.068,972.584,27.572
110.288,995.764,32.452
131.76,1006.988,2.928
127.612,1022.116,-28.792
114.436,1030.168,1.952
101.26,1016.504,20.74
119.804,988.932,28.06
112.24,970.632,64.172
102.724,964.288,68.808
120.536,984.784,29.28
132.492,1008.208,17.324
99.308,1010.892,25.132
84.668,1002.84,26.596
94.184,992.104,34.892
81.496,975.512,52.948
92.476,966.972,35.38
112.24,981.612,12.444
110.776,988.444,25.132
97.6,984.052,23.668
100.04,997.716,21.716
107.116,995.52,48.068
106.14,988.444,47.336
105.408,984.54,36.6
94.916,979.904,43.188
119.072,977.22,7.808
120.048,994.3,5.856
102.236,996.74,20.74
93.452,1000.4,21.96
89.304,1000.4,18.3
91.744,991.86,17.08
89.792,986.004,29.036
95.648,977.464,38.308
98.332,975.756,20.496
95.16,984.296,27.816
87.596,985.272,38.064
85.644,986.248,22.204
85.156,980.88,28.304
98.088,980.148,19.276
94.184,988.444,32.452
76.86,980.636,40.016
94.428,981.124,15.128
98.576,996.984,26.596
88.328,998.448,33.184
73.688,983.808,38.796
94.184,980.88,28.548
104.188,982.344,15.616
99.308,986.736,23.424
80.764,985.516,19.276
88.084,980.88,13.42
70.516,977.22,35.868
62.22,970.632,34.404
109.8,976.0,-7.564
125.66,994.056,4.88
134.2,1008.94,-10.248
116.876,1008.696,12.2
98.088,1003.328,51.484
94.428,991.616,50.996
92.232,969.168,43.92
96.868,967.704,20.74
98.088,974.536,16.592
91.5,987.224,5.124
91.012,995.764,19.276
85.4,995.032,24.888
95.648,989.42,17.568
95.16,984.54,35.136
111.02,975.268,21.96
117.364,979.66,-3.172
131.516,1002.108,18.3
101.992,1006.012,34.404
75.396,993.568,62.22
75.152,976.244,68.076
87.84,966.728,44.896
103.944,965.264,13.664
116.876,982.1,-8.784
121.756,1003.816,7.808
110.532,1015.284,17.568
99.796,1002.596,27.816
103.456,987.712,23.668
103.212,982.344,14.884
102.724,990.152,19.032
97.112,996.008,30.744
90.036,996.74,33.428
101.504,995.276,26.596
102.724,996.252,20.008
98.088,987.956,20.252
86.864,984.784,19.032
87.596,982.588,20.252
73.688,990.152,17.324
58.804,993.812,17.324
65.88,996.984,11.468
70.76,1005.524,-6.832
93.94,1035.048,-17.08
89.792,1075.552,-28.304
-4.148,1095.56,-31.72
-75.64,1121.18,-55.632
-109.068,1189.5,-139.324
-81.74,1290.028,-223.26
84.912,1318.332,-308.66
-7.32,1290.028,-191.052
-139.08,1247.816,-139.568
41.48,1187.304,-157.38
166.164,1174.128,-103.456
286.944,1136.308,-77.836
370.88,1028.46,69.784
457.012,936.228,175.924
620.492,880.596,122.0
565.104,851.316,115.168
562.176,854.488,84.424
738.1,811.544,-55.388
775.676,775.92,-161.772
573.156,711.992,-12.2
711.748,518.988,-49.044
626.104,225.944,153.476
691.496,-62.952,399.916
697.596,-233.264,602.68
807.396,-374.784,387.228
1127.524,-281.576,91.256
1117.032,-215.208,203.008
982.344,-284.748,344.772
1006.988,-351.116,337.94
957.212,-350.384,384.788
993.324,-266.692,201.3
998.448,-197.152,203.008
905.24,-159.576,184.952
888.16,-135.664,109.556
857.904,-100.284,117.852
794.464,-43.676,52.46
797.636,-6.1,11.712
734.928,-6.588,52.216
776.896,-15.128,-19.764
783.24,-5.612,-13.176
764.696,7.808,-39.04
797.392,5.368,-101.016
726.388,-9.76,-37.332
619.516,-29.036,-28.792
516.792,-1.952,-34.16
491.172,20.008,-4.392
434.808,49.288,0.488
451.156,75.152,-101.748
394.06,80.52,29.524
336.964,-7.564,74.42
380.396,-6.344,-4.392
603.656,27.084,-19.276
704.672,14.396,-85.4
656.36,-48.068,-102.724
660.996,-144.936,-50.508
565.104,-208.132,41.236
723.46,-203.008,77.592
697.84,-229.116,5.124
761.036,-228.628,-89.792
835.456,-281.576,-33.184
937.692,-381.128,57.584
797.636,-503.128,377.468
845.46,-649.772,401.624
542.412,-816.912,553.148
884.744,-706.868,575.352
1306.132,-768.844,334.28
1663.348,-837.652,97.6
1820.24,-895.236,173.728
1635.532,-912.56,297.68
1395.192,-891.82,326.96
1565.016,-838.384,269.62
1711.904,-803.248,132.492
1571.848,-757.132,224.724
1359.568,-721.02,274.256
1285.636,-715.164,284.26
1186.816,-696.376,289.14
1272.46,-681.004,206.424
1281.244,-678.32,159.332
1253.916,-641.476,136.64
1124.352,-624.64,203.496
1010.648,-644.648,223.992
990.152,-666.852,262.3
925.248,-647.82,243.268
931.592,-599.02,229.36
984.052,-585.844,178.364
1068.72,-590.968,168.36
1189.5,-650.26,222.04
1211.704,-708.82,247.904
1240.496,-779.824,385.764
1251.476,-789.34,376.248
1329.8,-770.796,329.888
1392.264,-717.36,334.28
1429.352,-701.988,295.484
1427.888,-711.504,329.644
1440.088,-697.352,347.456
1374.452,-614.148,345.748
1363.716,-461.16,308.66
1425.692,-339.16,215.208
1374.94,-234.24,215.452
1317.356,-149.572,148.596
1052.86,-33.916,224.236
916.952,142.74,209.108
799.588,213.012,65.88
622.2,290.36,79.3
651.236,339.892,-132.248
502.884,457.744,-97.356
470.432,493.856,-52.704
380.884,491.904,-118.096
236.436,510.692,-182.756
234.728,537.776,-80.764
166.652,559.004,-82.716
135.42,577.548,-155.672
28.792,627.568,-81.984
-2.684,644.892,-121.756
-2.196,711.992,-85.156
-26.352,740.052,-112.972
20.496,786.9,-29.28
22.936,823.744,-73.444
-74.176,854.0,-109.312
-80.52,884.744,-40.016
-21.472,892.796,-29.768
-10.248,900.36,-7.32
10.004,904.02,51.484
-21.96,852.536,68.32
-12.932,846.436,25.62
18.544,876.448,11.224
80.764,940.376,-8.296
54.9,948.672,47.58
76.616,958.188,-35.868
17.08,950.868,-7.076
-5.856,929.884,61.732
43.188,905.24,60.024
1.708,873.52,100.284
62.464,884.5,44.408
107.116,968.68,-30.5
98.82,1037.0,-39.04
137.86,1063.108,-111.264
71.492,1063.84,-62.22
56.852,1011.868,25.132
105.652,941.352,8.052
120.292,948.184,6.344
79.056,975.756,44.408
90.036,1011.868,19.276
85.888,1029.924,-6.832
64.904,1017.48,-22.448
70.516,1006.256,-40.748
36.844,986.736,-5.856
27.572,956.968,8.052
45.628,965.02,-21.228
36.6,978.928,15.372
44.408,973.56,11.956
58.072,971.364,6.344
73.444,985.76,25.376
97.6,976.976,3.66
106.14,997.716,-20.252
107.36,1017.236,-2.928
80.032,1014.064,-4.88
74.42,1002.352,-2.196
62.708,1002.352,1.22
36.112,993.812,-2.684
49.044,987.468,-21.96
43.92,992.104,-6.588
23.912,973.316,0.488
40.504,979.416,1.22
43.676,989.176,9.272
34.648,984.54,16.592
52.704,971.364,8.784
60.756,972.34,29.524
63.44,965.752,28.304
55.144,966.484,28.304
64.172,984.296,9.516
57.828,991.616,-7.32
83.936,995.764,-50.02
71.492,1018.7,-49.776
60.512,1018.944,-20.984
57.584,1012.6,-15.86
43.432,1004.548,-6.832
36.844,994.3,7.32
45.14,991.372,7.808
51.484,980.636,3.416
51.728,972.828,-3.66
31.232,972.34,14.396
32.94,973.316,-0.244
50.752,984.052,-13.908
40.504,988.688,-4.148
42.212,987.712,2.928
47.336,983.076,14.152
48.068,976.488,21.472
72.712,982.588,-9.028
64.904,999.912,-23.18
53.924,999.424,-20.984
39.528,990.884,-17.324
42.7,992.592,-12.688
61.0,994.056,-22.204
52.948,1003.816,-17.812
87.84,1021.14,-16.348
63.44,1010.648,17.812
50.508,992.592,22.204
54.9,978.196,15.128
50.996,969.9,7.32
49.532,974.292,4.636
50.264,979.904,-29.524
23.424,995.764,3.904
19.52,981.856,3.904
42.456,981.856,-23.668
42.212,992.348,-34.16
65.392,1007.72,-20.984
35.38,1002.84,-0.488
15.128,991.86,37.82
47.092,979.172,25.864
43.188,969.656,20.496
65.636,972.34,-6.1
81.008,987.468,-18.3
53.924,1002.596,1.22
46.116,1004.06,6.588
46.36,999.912,-4.148
45.872,995.52,-1.708
50.996,992.348,-20.74
40.992,997.716,-10.004
39.284,991.372,-3.904
37.332,996.496,-5.856
36.112,985.272,10.98
38.796,983.564,-6.588
41.724,987.468,5.612
31.72,975.512,17.812
31.232,968.192,5.124
45.628,978.196,9.028
34.16,981.612,20.252
44.408,987.468,2.928
35.868,993.568,8.052
24.644,989.42,17.568
37.82,988.932,1.464
33.916,989.176,4.88
41.724,989.664,-6.1
49.532,1002.352,-21.96
35.868,1001.864,-5.856
30.012,1003.328,15.372
38.796,990.64,6.832
40.504,992.348,9.272
38.796,988.444,13.664
42.944,980.392,0.732
24.644,982.588,12.444
11.468,976.976,21.228
9.028,981.856,6.588
13.664,985.272,1.22
42.944,990.152,-16.836
55.144,991.86,-26.596
61.488,1005.768,-3.66
69.54,1006.256,0.976
50.02,998.692,16.836
51.484,988.932,8.54
54.168,990.884,7.076
48.068,989.42,-2.44
32.208,988.932,16.104
26.596,984.052,-4.636
20.252,987.712,4.636
24.644,989.908,-9.76
23.424,990.396,-0.488
40.016,983.564,-2.196
35.624,976.488,-0.244
39.528,983.808,3.416
36.112,989.908,4.636
39.772,992.836,4.88
46.604,995.032,-1.22
36.6,986.98,9.76
43.92,983.808,2.44
32.94,980.636,5.612
19.764,978.684,13.176
42.212,985.028,-4.88
36.844,995.032,-15.372
29.036,992.348,-0.976
34.16,995.032,-9.272
46.116,995.764,-11.956
39.04,994.056,4.392
32.94,998.448,-5.856
39.284,1004.548,2.196
58.072,1007.232,-12.932
28.304,1012.112,12.444
-57.34,1031.632,18.788
-18.544,1057.984,-7.564
27.572,1056.764,-48.556
-36.356,1063.108,-49.288
-75.152,1086.776,-62.708
-147.376,1152.168,-73.932
-153.964,1196.332,-84.912
-114.924,1226.588,-111.264
-47.824,1236.348,-154.696
-86.864,1251.232,-122.244
47.58,1224.392,-171.532
33.916,1188.524,-200.812
22.692,1179.252,-91.988
222.04,1108.736,-67.832
379.176,1070.428,10.004
390.4,1056.52,96.136
358.436,1046.272,176.168
549.976,957.212,61.732
672.22,852.78,-8.296
786.9,740.052,72.956
713.212,567.788,119.56
996.74,481.656,-107.36
912.316,352.092,-89.548
729.56,231.068,242.78
759.572,11.712,376.492
733.464,-177.632,545.096
781.532,-352.824,340.868
1086.288,-256.688,20.008
1097.756,-144.692,212.036
1046.516,-190.076,195.688
909.144,-222.772,198.616
937.692,-249.124,124.44
866.2,-180.072,140.3
852.048,-113.704,146.156
736.148,-77.836,85.888
680.028,-42.944,-10.736
557.784,-23.668,-13.908
448.472,13.42,60.024
313.784,14.396,58.56
298.9,39.772,35.624
210.572,82.96,21.472
259.372,135.664,-71.004
291.824,146.888,-74.908
303.292,131.028,-1.22
304.756,53.192,-19.276
492.148,33.916,-42.456
557.784,8.296,-26.108
575.596,2.44,-23.18
539.972,1.708,4.392
569.984,-23.424,-32.452
618.052,-16.104,-103.456
708.82,-77.348,35.38
859.124,-187.88,94.428
1033.34,-236.68,142.496
800.808,-315.248,99.064
737.124,-299.632,42.212
975.268,-340.38,60.512
1130.452,-522.892,163.724
1230.492,-646.844,106.384
1326.628,-706.38,71.736
1445.7,-742.736,58.804
1563.064,-764.452,14.152
1698.728,-804.224,-41.48
1560.136,-841.8,107.604
1443.016,-900.116,205.204
1533.54,-911.584,195.444
1617.232,-851.316,183.488
1557.208,-774.456,182.024
1480.592,-694.424,132.004
1415.2,-622.2,178.852
1320.04,-635.62,196.176
1270.508,-654.164,182.756
1241.96,-613.172,214.476
1198.772,-586.332,220.332
1109.224,-549.0,190.808
1108.736,-537.532,133.224
1104.1,-529.48,153.232
1141.676,-547.048,166.652
1142.408,-572.424,163.48
1143.628,-574.132,152.5
1159.488,-597.068,186.904
1280.024,-639.768,242.536
1272.704,-709.796,273.768
1225.612,-695.644,261.812
1297.836,-673.196,257.908
1462.536,-673.928,236.924
1551.108,-681.736,186.904
1502.796,-670.756,246.928
1442.772,-625.616,270.596
1432.28,-540.704,143.716
1315.648,-410.896,205.448
1322.724,-320.616,224.236
1306.62,-263.032,123.952
1199.016,-203.496,211.304
1135.088,-121.512,231.312
1045.54,-50.508,143.472
943.548,48.068,109.068
942.084,122.244,144.936
972.828,131.272,72.468
876.204,144.936,-40.992
528.992,227.896,55.144
317.688,355.996,140.788
421.632,399.428,-25.132
335.256,450.18,-68.32
220.088,524.844,-20.496
136.396,565.348,-4.392
-17.324,575.596,51.24
38.796,582.672,0.244
-14.64,636.596,-18.788
-107.36,664.412,-3.416
-108.824,698.816,-30.012
-124.196,702.476,-45.14
-128.1,752.008,-62.464
-75.64,827.404,-33.916
-37.332,858.148,29.524
-25.132,881.328,14.396
-21.716,907.192,39.284
-29.28,907.436,19.032
-48.8,893.284,37.576
-2.684,896.456,21.716
36.356,932.568,5.612
80.52,987.468,-19.276
48.068,1027.728,5.612
-9.76,1009.916,53.68
-6.832,990.396,77.348
16.836,954.284,51.484
72.224,966.24,12.444
42.944,985.272,19.276
45.628,983.564,-3.172
43.92,995.032,-16.104
6.832,982.344,24.888
41.48,971.364,10.736
48.312,992.592,26.352
34.16,985.76,52.948
4.392,967.704,64.904
41.724,966.728,30.256
8.784,956.48,56.364
-0.976,942.328,52.216
26.352,959.408,3.416
22.448,981.856,22.936
56.608,991.86,10.736
88.816,1024.8,5.124
59.292,1015.528,39.528
61.976,1006.5,45.628
66.856,988.688,49.044
77.836,965.02,28.792
48.8,983.564,40.26
61.488,979.416,13.42
44.896,1005.036,28.06
54.656,1014.552,22.936
45.872,1014.796,11.468
23.424,1004.06,32.208
24.644,979.904,36.356
81.252,968.924,-12.2
40.992,981.368,8.784
15.372,981.612,32.94
2.44,971.608,18.544
7.32,976.732,10.736
-2.928,982.832,29.036
22.936,982.832,8.54
55.632,1003.328,-15.616
62.952,1015.04,13.176
72.468,1015.04,21.96
77.104,1001.864,33.428
69.296,994.788,63.196
102.236,993.08,31.72
70.516,993.324,50.996
76.616,991.128,45.628
64.416,982.344,20.74
23.668,982.588,51.728
41.236,973.56,20.984
17.568,972.34,25.62
16.104,970.632,39.284
56.364,990.64,-7.564
32.452,1007.476,14.64
18.788,999.18,33.916
35.868,987.468,35.136
54.412,979.904,32.696
39.284,977.708,57.584
59.048,969.412,46.848
85.644,980.392,5.612
88.084,1002.352,6.344
74.42,1014.064,18.056
65.392,1010.16,30.012
19.764,1015.284,48.068
31.476,993.812,41.48
67.588,983.32,1.708
32.208,985.76,20.252
61.976,983.808,12.688
45.384,982.1,22.204
21.472,978.684,49.776
37.576,985.028,18.3
28.792,997.228,22.692
32.208,989.42,28.548
21.472,980.636,31.72
51.972,980.392,9.028
46.848,983.076,26.352
69.54,983.32,9.272
64.904,1000.644,1.708
65.148,1014.064,21.716
45.872,1015.04,40.748
41.48,995.032,45.384
47.336,987.224,32.208
50.264,983.32,25.62
30.744,976.976,32.452
30.5,973.072,24.156
27.816,979.904,23.912
47.336,988.2,5.856
45.628,1000.888,1.22
43.188,1005.036,12.2
53.192,1001.376,7.808
19.52,995.764,34.404
56.608,992.836,24.644
53.68,992.104,31.476
37.088,984.784,50.02
30.012,983.076,41.48
34.648,980.148,23.668
19.52,976.488,34.16
57.34,978.196,-4.148
57.584,998.204,-25.864
49.044,1015.772,0.732
28.06,1014.552,21.472
23.424,996.984,32.94
47.336,988.932,32.208
45.14,983.32,33.184
50.02,981.124,35.136
39.284,983.32,41.48
45.384,984.54,26.84
36.356,992.592,40.992
44.896,991.372,30.5
30.5,988.932,24.156
45.872,985.76,19.52
34.16,991.86,24.888
26.352,990.396,40.748
30.5,985.516,22.204
16.104,986.98,50.02
41.236,986.004,32.208
37.332,990.884,39.772
43.432,987.468,41.724
27.572,992.836,43.92
26.108,989.664,51.484
61.0,988.2,12.444
36.356,999.424,29.036
50.752,1000.4,20.496
23.424,1003.572,30.256
11.956,998.204,33.916
26.108,988.932,29.28
29.28,986.736,19.032
36.356,989.664,23.424
23.18,1002.352,33.184
-11.712,1011.624,40.26
-86.864,1047.004,60.268
19.032,1058.472,-17.812
0.0,1083.848,-62.952
12.932,1136.552,-150.304
-45.384,1172.42,-215.94
-152.744,1187.792,-171.532
-161.04,1185.108,-195.688
-37.088,1181.936,-178.852
123.952,1188.036,-204.228
40.26,1254.404,-132.248
-21.716,1257.332,-56.608
-34.648,1234.152,-4.392
139.812,1206.824,-37.82
320.86,1189.988,-94.428
261.812,1158.268,56.852
376.736,1087.508,94.672
429.196,1021.872,97.112
478.972,953.064,196.176
628.056,856.196,66.368
680.76,842.044,7.808
612.928,757.376,63.44
620.004,637.084,37.82
781.044,537.776,-44.896
734.44,460.428,5.856
616.1,283.772,209.352
569.008,106.384,460.428
724.68,-73.444,478.24
969.656,-182.268,190.32
963.312,-68.564,152.5
968.68,6.832,136.884
1063.84,-28.06,166.408
925.004,-143.96,291.336
854.0,-202.52,329.156
802.028,-166.652,314.272
850.096,-78.324,232.776
894.748,-5.124,142.496
806.664,18.788,141.52
794.708,-6.832,104.676
721.996,-9.028,121.512
673.684,12.932,90.524
635.132,35.38,19.764
556.808,54.9,81.008
554.856,58.56,20.984
493.612,69.296,5.612
518.744,92.964,-22.692
463.844,80.764,-65.88
569.496,93.94,-139.08
494.1,87.84,-72.712
412.36,56.12,40.504
447.74,24.4,-15.616
432.856,24.156,-59.292
580.964,43.188,19.52
632.448,15.616,-4.392
622.2,3.904,-43.188
557.784,-20.496,35.868
618.54,-48.068,31.232
820.816,-79.056,40.992
780.312,-193.248,162.26
810.324,-212.524,121.024
896.212,-288.164,182.512
1115.08,-378.444,160.308
1303.448,-484.34,203.252
1303.448,-566.812,173.728
1262.7,-558.272,247.66
1116.3,-592.92,383.08
1293.932,-644.648,289.872
1659.688,-679.784,118.584
1696.044,-646.844,149.572
1552.816,-641.964,172.996
1412.516,-664.656,191.296
1415.932,-656.604,211.06
1387.628,-637.572,245.708
1414.468,-631.96,250.344
1424.96,-643.428,215.94
1434.232,-628.788,186.904
1423.008,-588.284,173.484
1314.184,-559.004,199.836
1189.988,-550.464,222.528
1149.484,-544.364,183.976
1098.732,-529.48,182.512
1076.284,-504.104,175.436
1088.24,-489.464,146.156
1049.2,-483.364,154.94
991.616,-507.764,178.364
949.16,-517.28,188.368
909.632,-509.96,178.608
931.836,-472.872,155.916
959.164,-467.748,128.1
973.316,-488.0,146.4
916.708,-497.76,145.18
874.496,-503.86,175.192
870.104,-490.44,177.876
846.68,-495.808,174.46
900.604,-475.556,154.696
919.148,-479.216,133.956
907.924,-477.508,155.916
888.404,-477.752,157.624
871.08,-478.484,162.504
823.5,-477.264,192.272
828.868,-470.92,213.744
897.432,-467.748,193.98
955.748,-489.464,198.616
1007.72,-507.52,235.948
1089.704,-542.412,222.284
1183.4,-586.332,279.38
1359.812,-691.008,424.072
1649.684,-807.64,530.944
1839.76,-895.236,444.08
1781.444,-877.424,428.464
1570.628,-740.784,418.46
1481.324,-623.42,301.828
1560.38,-554.856,334.768
1643.828,-509.716,359.168
1434.964,-444.324,357.704
1331.508,-329.156,190.32
1156.316,-66.856,171.288
853.756,119.56,119.804
690.764,302.072,-6.1
773.724,324.764,-115.9
685.64,379.176,-156.404
440.42,338.428,-116.144
328.424,369.172,-107.604
309.88,435.784,-138.592
256.444,469.212,-139.08
60.512,511.18,-154.208
25.864,611.464,-138.592
28.792,669.78,-124.44
89.06,669.536,-105.896
85.156,610.732,-135.42
17.08,620.736,-119.804
-61.732,661.484,-33.672
-102.48,698.084,22.692
9.76,766.404,-58.804
16.836,797.148,-156.648
-9.516,861.564,-87.352
3.66,843.996,-95.892
-81.74,833.748,-69.784
-74.664,844.972,-41.724
-35.624,879.376,-64.904
0.244,939.4,-129.076
-4.88,964.532,-68.32
37.82,948.916,-71.98
15.86,935.984,-28.792
-15.616,932.08,39.528
48.312,938.18,46.116
59.048,932.324,63.928
50.02,918.172,65.148
115.168,941.108,5.612
135.176,985.272,2.44
114.68,992.104,-3.904
106.14,989.908,-24.644
104.188,1017.236,-26.108
111.02,1017.724,-21.228
101.992,1021.872,2.684
123.464,1007.72,-0.976
141.764,1019.188,-7.076
106.384,1009.672,35.868
84.18,1001.132,46.116
72.712,974.292,20.252
104.188,957.212,1.464
100.284,953.552,-9.272
70.028,956.48,10.98
121.024,978.196,-35.624
126.88,997.228,-23.912
105.896,990.396,-1.952
132.98,974.78,-20.496
177.388,983.564,-40.992
124.196,992.592,2.44
106.872,972.096,11.224
102.48,964.776,4.636
123.708,969.412,-14.152
113.46,984.296,0.732
145.424,1005.28,-30.744
155.916,1020.652,-20.252
142.252,1022.116,-2.684
116.388,1002.84,2.44
106.628,983.564,0.244
104.92,975.512,-5.124
122.0,973.316,-27.816
93.208,973.804,-17.08
95.892,979.416,-13.176
114.68,985.76,-28.548
99.308,991.86,-5.368
121.512,986.492,-20.496
147.376,996.74,-35.624
117.364,996.984,-2.44
119.56,986.492,-8.54
141.032,999.912,-25.376
124.928,1003.328,-5.368
149.328,986.492,-20.74
122.732,982.344,-14.64
88.328,980.392,7.32
82.96,978.928,15.86
60.756,970.632,22.448
88.572,975.756,-5.856
98.332,980.148,-16.348
113.46,993.324,-23.912
103.7,985.516,-5.368
105.408,979.416,3.416
114.192,981.612,7.564
109.068,972.828,3.416
98.332,979.904,6.344
100.772,989.176,6.832
94.916,989.664,-5.368
115.412,992.592,-25.62
98.576,998.448,-2.928
95.404,983.564,-6.832
115.9,981.856,-18.056
96.868,988.2,9.272
85.4,983.32,14.884
95.404,986.004,-1.22
78.812,981.856,8.54
57.096,971.364,16.592
104.432,971.852,-18.788
104.188,985.272,-2.684
108.092,985.272,2.684
121.512,988.444,-13.176
124.196,999.668,-28.304
107.848,1008.208,-7.564
115.9,1001.62,-10.492
115.168,991.86,-9.028
113.216,993.568,6.1
114.68,986.736,-6.588
109.312,992.836,-5.856
102.968,988.932,-7.564
76.86,984.784,2.196
91.988,982.588,-3.66
73.444,979.904,9.272
85.644,977.952,-4.636
97.356,990.64,-6.832
92.476,983.32,3.904
100.284,980.636,6.1
107.604,982.344,4.636
111.508,981.124,1.22
126.392,987.712,-7.32
112.728,996.496,4.88
96.38,990.152,6.344
98.576,984.052,-13.42
87.352,986.004,-2.928
94.428,986.736,-5.856
97.844,990.396,-21.228
110.288,996.984,-8.296
108.824,998.692,-4.88
103.456,991.616,0.976
112.484,987.956,-5.124
105.408,984.54,-2.928
99.552,982.344,4.88
98.576,984.54,0.0
94.916,984.052,3.66
95.892,982.344,-3.172
94.672,986.736,0.976
91.5,984.54,3.416
88.572,986.492,-2.928
80.764,985.028,2.928
99.308,983.808,-18.544
99.796,986.736,-12.444
95.16,988.444,-10.248
81.252,999.912,-1.464
65.148,1009.428,-13.176
63.196,1020.408,-25.62
65.148,1024.312,-57.34
32.94,1071.16,-48.068
-29.28,1103.124,-54.168
-134.2,1175.836,-67.588
-47.336,1227.564,-171.532
-81.74,1329.068,-236.436
-107.36,1376.16,-221.552
-108.092,1367.62,-193.004
-153.476,1332.24,-105.164
109.556,1260.016,-124.684
315.004,1213.9,-137.86
463.6,1205.604,-124.44
542.412,1169.248,-70.516
355.752,1134.844,109.8
315.004,1064.084,141.52
455.548,1009.428,60.512
601.704,961.848,-54.9
609.024,879.864,-42.456
480.68,720.044,52.704
822.28,587.064,-51.24
904.752,416.508,-99.552
741.516,320.128,193.492
745.42,130.54,409.432
556.076,-27.328,553.392
637.816,-208.864,356.484
800.32,-147.62,68.564
986.248,-53.68,50.02
1026.508,-94.916,260.348
1076.528,-217.404,185.928
917.44,-297.436,312.076
869.372,-277.428,181.048
857.66,-137.86,189.832
793.976,-24.156,202.52
796.416,39.528,10.004
764.94,77.104,-6.1
718.092,70.272,-19.276
666.852,91.744,20.74
572.18,97.356,13.908
529.48,127.856,-21.228
567.544,137.616,-86.864
525.332,151.036,-62.708
501.176,160.552,-68.808
443.348,134.688,-73.444
477.996,115.656,-65.88
560.712,92.72,-99.308
567.788,115.412,-87.596
500.444,88.572,-27.816
586.332,40.26,-97.844
615.856,14.152,-71.98
701.256,-7.076,2.684
730.536,-48.312,13.42
813.008,-71.736,54.9
580.232,-129.076,119.316
620.98,-105.896,95.892
870.836,-96.38,43.676
991.616,-110.532,29.768
1159.732,-161.772,36.844
1091.168,-306.22,170.312
798.124,-444.324,302.804
799.344,-377.712,458.232
1067.988,-385.764,301.828
1370.548,-407.968,135.908
1483.52,-422.12,178.608
1369.084,-482.388,267.18
1117.764,-561.932,382.592
1157.292,-612.44,386.984
1263.92,-615.368,358.924
1282.464,-599.02,353.556
1317.6,-598.288,351.116
1405.684,-616.344,259.128
1513.044,-575.108,209.596
1512.8,-549.732,223.26
1474.004,-543.632,230.58
1491.084,-558.272,215.452
1462.78,-556.808,213.256
1407.392,-554.124,235.704
1333.948,-546.56,249.856
1306.132,-572.912,281.332
1360.544,-564.616,224.48
1386.896,-547.292,158.6
1304.18,-523.624,163.236
1206.58,-506.3,189.1
1157.536,-537.776,218.136
1182.424,-570.472,338.428
1233.664,-623.664,306.22
1318.82,-610.0,189.832
1368.108,-577.304,219.112
1352.248,-597.556,323.056
1308.328,-642.208,364.048
1228.784,-623.908,339.648
1424.96,-581.452,281.088
1514.752,-515.816,207.156
1466.928,-457.744,197.396
1356.152,-415.532,212.28
1244.156,-341.844,245.708
1069.208,-288.652,335.256
1108.004,-219.844,306.464
1382.504,-117.364,-18.544
1006.256,-21.716,54.168
605.12,160.796,278.404
813.74,178.364,13.176
695.888,234.728,-38.796
454.816,330.132,-11.224
149.328,391.132,-25.376
161.772,435.052,-89.06
295.972,462.868,-295.484
11.956,524.844,-184.708
-215.696,638.06,-23.424
-176.656,635.864,-133.468
-167.14,630.252,-123.464
-92.72,648.308,-176.9
-141.764,713.212,-171.532
-266.448,752.496,-57.34
-402.6,776.896,6.1
-230.58,825.208,-92.964
-208.864,854.732,-93.94
-222.04,871.812,-107.848
-220.576,883.036,-71.492
-184.22,902.556,-106.384
-97.112,942.328,-174.948
-111.264,991.372,-140.788
-118.828,1008.452,-130.296
-164.456,1014.796,-51.484
-182.756,982.344,55.388
-73.932,923.784,-9.516
-94.672,907.436,12.688
-54.9,921.588,12.688
-106.384,938.18,45.384
-30.256,965.508,10.736
-40.748,988.688,54.412
-28.792,1004.548,30.744
-29.524,1002.596,25.62
-45.872,978.928,37.332
-30.012,961.848,28.304
-20.252,950.38,33.184
-5.124,965.508,-0.976
-8.296,1002.84,-3.66
-18.544,1016.992,-0.244
-14.884,1007.232,-30.988
-19.276,1029.68,-55.876
-39.772,1034.804,-36.356
-64.416,1007.964,-20.496
-65.88,968.924,-9.516
-54.9,959.408,21.96
-16.348,947.94,-8.052
-6.832,969.168,18.3
31.72,986.248,19.52
25.376,1006.5,-1.22
13.664,1015.284,-11.468
5.124,1025.532,-20.252
11.956,1007.964,-26.352
14.152,987.956,-28.304
-24.888,975.268,24.156
-20.008,973.316,42.7
-35.868,984.784,31.72
-38.552,993.08,6.588
-45.384,994.544,-6.832
-21.228,986.004,-23.668
-31.476,982.832,-16.348
-38.796,981.612,4.88
-16.592,983.564,15.128
-8.784,980.636,18.544
7.564,987.468,13.176
1.464,987.956,22.692
10.736,993.08,11.468
15.372,993.568,-32.94
-0.488,1000.888,-4.88
-11.224,1005.768,-18.056
-28.304,1005.768,-18.3
-25.62,1002.596,4.148
-11.468,997.472,-13.42
-22.692,990.396,7.564
-10.492,985.76,16.104
-22.204,973.56,15.616
-40.748,974.292,25.62
-20.252,979.172,5.124
-32.208,983.564,11.712
-20.496,992.836,-7.32
-18.544,990.64,-2.196
-14.396,976.976,-18.544
-15.128,970.876,-18.3
-10.736,980.148,-10.736
-19.032,994.3,-4.636
-25.864,1000.4,1.952
-8.54,997.228,3.904
-10.98,986.736,-1.464
-5.856,986.98,3.904
-0.732,987.224,5.368
7.076,994.544,-2.684
-2.684,994.544,29.768
10.492,991.616,21.716
-9.028,990.152,30.256
10.736,986.004,10.248
-0.488,983.564,18.788
-8.54,980.148,30.744
-11.468,984.54,19.52
1.708,996.496,19.52
3.904,1005.28,13.42
-13.176,1000.888,20.74
-1.464,988.932,17.08
5.368,977.708,2.684
3.904,979.416,21.96
-14.152,981.124,12.932
-28.06,993.324,24.888
-13.908,994.3,29.036
21.472,979.172,-11.224
-13.42,991.86,20.984
16.348,995.52,9.272
-1.22,996.984,10.492
-17.08,998.936,24.888
18.056,993.324,-5.124
23.18,988.444,-4.392
13.176,998.936,9.028
10.736,987.956,27.328
14.396,980.88,37.088
5.368,981.124,45.872
19.52,976.488,22.448
17.812,989.176,11.224
1.464,988.688,16.348
8.052,994.056,-4.148
-6.588,1007.232,-2.684
-10.736,1003.572,3.172
0.244,993.08,-4.148
-16.592,990.152,23.668
-6.1,982.588,23.912
-0.732,983.808,5.124
5.368,990.884,17.08
23.424,998.204,-9.272
3.66,1004.548,6.832
1.708,997.716,16.348
-5.856,990.152,20.252
2.928,985.272,7.564
4.88,989.176,-20.496
-10.248,993.812,-6.1
-23.668,991.86,-13.176
-33.672,995.52,-10.736
-5.856,995.032,-9.76
-19.276,995.276,0.0
6.832,995.032,3.904
16.348,1001.132,10.248
-1.464,1010.16,36.844
12.2,1007.232,41.724
18.056,993.568,42.7
-18.544,990.884,30.012
-17.812,1011.868,5.124
-62.708,1038.708,-29.036
-80.764,1095.316,-46.116
-18.056,1159.0,-139.568
-41.236,1192.428,-189.1
-96.868,1206.824,-141.764
-81.252,1227.076,-104.188
-88.572,1251.476,-66.612
-114.192,1275.632,-36.844
-70.516,1321.016,-0.488
-76.616,1344.196,31.72
-5.612,1357.372,34.892
179.828,1294.42,31.476
170.8,1228.54,65.148
238.144,1224.88,31.72
373.564,1168.76,-20.008
468.48,1052.86,39.04
491.66,941.596,124.196
561.2,796.66,165.432
615.124,692.472,150.304
607.804,592.188,181.78
620.248,453.84,192.76
668.804,326.472,184.22
822.036,197.64,166.408
605.12,120.78,315.004
668.56,-0.732,393.816
825.208,-54.412,178.852
918.904,-41.968,17.568
966.972,-55.388,-0.732
1068.72,-107.604,99.308
936.472,-219.356,212.28
885.476,-187.392,185.44
762.988,-139.568,113.948
828.136,-13.176,-37.576
767.868,80.764,-110.532
711.016,67.344,-19.276
604.388,55.876,-62.708
570.96,58.072,-76.616
535.824,70.272,-130.052
429.684,97.844,-80.032
398.94,124.684,-97.356
367.952,119.316,-57.34
372.832,102.236,-50.508
333.06,86.864,0.488
365.268,74.42,32.208
379.664,51.24,39.04
407.236,47.336,120.536
457.012,20.984,119.316
592.188,54.168,-53.924
715.164,57.828,10.736
676.856,5.124,8.296
611.952,-15.128,98.332
650.504,-49.776,199.836
728.828,-115.168,118.34
947.696,-131.272,133.956
888.892,-217.892,343.796
876.204,-371.124,300.364
1041.88,-377.956,315.004
1197.796,-370.392,238.144
1270.752,-357.216,209.596
1176.08,-421.388,122.0
1117.52,-488.732,320.372
1187.792,-619.028,420.9
1228.784,-712.48,345.992
1458.632,-665.632,224.236
1668.716,-659.532,74.908
1769.244,-658.068,54.9
1620.404,-685.884,225.944
1428.376,-720.532,251.32
1319.308,-711.016,189.344
1502.308,-649.528,151.524
1456.68,-629.52,219.356
1369.084,-695.644,213.256
1437.892,-769.332,218.136
1382.504,-753.716,220.088
1299.056,-701.988,257.908
1239.52,-671.0,227.408
1281.0,-646.356,167.384
1288.32,-607.56,166.896
1330.044,-576.572,179.828
1408.368,-620.248,143.96
1369.816,-670.024,204.96
1375.428,-683.2,317.444
1476.688,-663.436,169.092
1454.728,-626.104,243.512
1442.772,-603.168,299.632
1455.704,-595.116,134.932
1326.872,-536.312,247.904
1324.92,-452.864,322.08
1307.84,-393.816,185.196
1310.036,-260.592,174.948
1274.9,-132.004,220.088
1268.556,-40.504,133.224
1131.428,61.488,44.164
875.472,182.512,145.18
803.004,315.248,44.896
597.556,432.124,34.404
599.508,496.54,-66.612
560.224,531.432,-116.388
576.084,506.056,-81.984
377.224,543.144,-223.992
143.472,647.088,-45.628
186.172,614.636,-49.288
64.416,598.288,-71.248
-39.528,588.528,-73.444
-100.528,598.776,-87.108
-159.332,631.472,-57.34
-197.396,628.3,-7.808
-289.14,631.472,-12.688
-293.776,712.968,100.284
-225.944,731.268,94.428
-192.76,750.3,93.452
-78.08,808.86,-71.492
-95.892,867.664,-26.352
-132.248,861.076,134.2
-123.708,807.884,128.1
-62.464,798.612,87.84
-94.184,843.508,101.748
-81.496,898.652,75.396
-55.632,926.224,60.268
-45.628,944.036,75.64
8.052,961.116,46.848
1.22,994.056,66.368
-5.612,990.64,85.4
-32.452,971.12,106.14
9.76,953.308,39.284
-16.104,981.368,32.208
-17.324,1016.016,32.696
-26.108,1015.284,49.776
9.272,1004.304,31.476
11.956,995.52,31.964
-13.42,982.588,67.344
0.732,954.04,41.236
10.248,967.46,58.072
24.644,965.996,66.612
6.832,970.876,78.08
28.548,990.884,57.584
13.176,1021.628,38.308
0.244,1006.5,25.132
-7.076,999.18,23.912
2.684,988.2,28.304
32.696,1005.036,29.036
39.772,1027.972,34.16
40.26,1028.704,55.876
27.816,1007.232,73.444
34.16,975.512,72.468
13.908,958.188,92.72
25.62,962.58,77.592
-20.252,976.0,71.492
-44.896,976.0,84.424
-16.104,973.316,41.724
-19.764,976.488,37.82
-41.236,973.804,72.712
-50.264,969.656,77.104
23.424,994.056,26.596
37.82,1029.192,13.908
36.844,1029.192,23.18
60.268,1017.236,5.856
46.848,1001.62,71.004
43.188,979.66,116.388
37.576,967.216,129.564
46.848,970.632,124.44
68.076,987.956,85.644
32.208,1005.768,58.316
-1.464,992.836,54.168
-18.788,984.54,53.924
-19.032,973.804,50.02
-24.644,968.924,67.588
-5.612,984.784,49.288
7.808,997.228,40.992
8.052,994.3,51.24
8.052,981.124,55.144
40.016,975.268,46.116
33.184,982.1,71.492
29.28,978.196,83.204
25.132,977.708,74.664
36.844,997.472,67.832
16.104,996.74,62.708
-1.464,994.788,50.264
4.148,997.228,48.068
-5.124,988.688,40.748
-1.464,1002.352,36.6
22.936,1005.768,29.28
18.056,1005.768,46.848
26.352,995.764,58.56
17.08,978.928,77.348
39.284,967.46,67.832
42.944,973.316,56.852
37.332,982.1,69.052
12.2,978.928,76.372
0.244,981.856,65.392
-12.932,988.932,70.516
-19.276,988.688,61.0
3.172,987.224,16.836
2.196,995.276,31.476
6.832,997.472,39.528
24.888,996.008,26.352
13.908,1000.156,56.608
21.716,997.472,58.316
20.252,990.152,60.024
19.52,983.32,67.344
29.768,983.076,53.192
26.108,986.98,45.384
11.712,994.056,64.904
18.788,996.252,49.288
13.42,989.176,47.58
1.464,992.104,71.248
-2.684,984.052,62.22
0.488,982.588,48.312
7.076,988.2,46.604
22.692,989.908,30.5
-5.124,993.812,51.728
16.592,989.664,44.164
4.392,986.736,74.42
10.736,976.0,71.004
11.956,981.612,62.952
1.952,984.052,74.664
8.052,984.296,52.216
-5.612,984.052,67.344
3.172,977.464,62.952
-1.464,977.952,60.268
-7.564,983.32,70.272
3.416,991.128,46.604
7.564,995.52,39.284
39.284,1004.06,23.18
22.448,1006.256,31.232
23.18,1000.644,49.044
-0.976,994.788,69.54
1.708,986.248,70.028
-10.98,985.516,78.08
-9.028,986.004,68.564
-34.648,998.936,77.836
-26.108,1011.624,72.224
-39.528,1027.972,81.252
-53.192,1057.252,69.54
-95.404,1125.572,71.248
-105.652,1208.044,86.376
-73.2,1280.756,94.428
-139.324,1347.856,128.588
-191.296,1389.336,159.332
-141.764,1361.276,106.384
-56.12,1287.344,16.592
-36.6,1262.944,11.224
-105.164,1280.756,17.812
13.664,1232.2,-26.596
-20.496,1155.34,108.58
-53.192,1098.0,270.84
-2.44,1065.06,297.68
273.036,1011.868,285.724
358.192,974.78,225.212
469.7,873.52,101.26
512.156,819.108,105.652
677.344,659.288,103.944
724.924,495.32,-14.64
680.516,389.424,80.764
754.204,340.868,156.404
779.824,164.944,203.496
795.196,57.34,299.388
908.9,-80.032,191.296
932.568,-67.588,117.608
960.872,-84.424,324.032
999.424,-141.52,154.94
1067.744,-167.14,29.036
981.612,-136.152,126.392
946.232,-63.44,144.692
880.352,23.912,142.252
884.5,80.276,14.64
810.324,97.112,22.936
789.096,119.804,92.232
751.032,87.108,44.408
792.756,98.82,102.48
737.856,102.236,14.152
715.164,132.248,58.56
628.788,153.476,11.224
502.64,193.248,-21.716
427.732,227.164,30.744
336.964,173.972,58.56
421.876,160.796,6.344
450.424,94.428,49.044
468.48,61.488,43.432
548.756,70.76,-22.448
460.672,78.324,57.096
517.768,113.46,95.404
576.328,70.76,2.196
555.1,-21.96,-50.264
734.928,-38.796,-140.544
721.752,-32.208,79.056
743.224,-131.028,95.648
459.208,-254.004,113.46
850.828,-233.02,-6.1
954.772,-125.416,-101.504
943.304,-149.084,43.188
1026.02,-284.992,-9.028
874.496,-359.656,75.152
887.184,-277.916,161.284
1109.712,-335.256,25.376
1117.52,-386.252,-24.888
1348.588,-445.788,-21.716
720.532,-609.268,193.736
1321.016,-628.3,-16.592
1708.976,-684.908,58.316
1915.888,-701.012,-8.784
1209.264,-827.648,225.456
1740.208,-689.056,11.468
1632.36,-637.084,98.088
1625.284,-632.204,-11.224
1550.62,-618.54,36.6
1472.54,-642.452,50.508
1449.848,-639.768,11.712
1400.56,-633.424,140.056
1385.188,-654.408,135.664
1275.144,-629.276,118.34
1220.244,-582.916,101.016
1259.04,-531.92,-19.032
1159.0,-542.656,48.8
1189.744,-620.248,14.396
1103.124,-660.996,55.876
1115.08,-649.04,119.316
1101.172,-651.968,87.108
1165.588,-657.092,56.852
1224.88,-666.608,28.792
1175.836,-640.988,23.18
1317.356,-669.048,85.644
1401.78,-754.692,201.544
1405.196,-773.236,139.568
1321.992,-697.108,134.688
1392.02,-575.108,110.044
1426.18,-505.324,30.988
1292.956,-399.428,-13.664
1387.872,-276.208,-29.524
1337.364,-204.472,19.764
1316.38,-128.588,41.724
1097.756,-91.5,-70.516
1098.488,67.344,-14.64
917.684,134.2,40.26
898.652,215.94,-106.872
770.552,289.14,-126.392
383.568,320.128,-2.44
435.052,406.504,-64.66
256.444,431.148,-63.196
170.8,542.9,-67.344
56.364,633.912,-14.884
25.62,687.592,-54.412
-51.484,740.54,-235.704
-161.284,804.956,-24.4
-124.684,767.136,-7.32
-229.116,751.52,-70.272
-206.424,830.088,15.128
-157.136,845.46,79.056
-120.292,822.768,-34.404
-111.02,880.352,20.496
-72.224,883.768,14.152
-77.836,840.824,94.916
-17.08,803.492,46.116
-22.448,813.74,103.7
56.852,843.264,73.688
61.488,884.5,46.116
-6.1,895.48,43.676
13.664,918.416,58.56
-22.936,903.532,113.46
-49.288,890.6,148.596
-2.928,892.796,69.54
-15.616,926.468,28.792
-23.668,945.5,86.864
-13.42,928.908,45.14
-34.892,940.376,60.756
37.088,974.048,32.94
15.616,992.104,25.62
-21.472,989.908,72.956
-8.54,972.34,95.16
30.012,961.36,77.104
39.284,977.464,40.26
7.32,991.86,46.604
27.572,996.252,31.72
26.596,985.028,33.184
53.436,989.664,26.108
35.136,992.348,58.072
50.02,1011.136,-1.952
43.92,1016.504,38.552
14.64,989.664,56.12
9.272,976.488,66.368
6.1,977.464,75.396
5.856,965.996,68.32
-1.464,958.92,38.552
21.96,982.588,17.812
28.06,1008.208,-10.248
35.624,1024.068,-4.392
29.28,1016.26,51.972
53.924,984.784,52.948
82.228,980.392,67.344
69.296,992.348,41.236
47.58,999.18,32.208
28.06,1003.084,13.42
-0.488,988.932,31.476
6.832,990.884,-0.976
7.076,1006.012,31.232
1.22,996.74,38.552
0.976,977.464,37.332
17.08,984.784,47.824
24.888,977.22,43.92
20.252,967.46,45.14
18.3,960.384,45.872
26.596,964.776,37.82
27.328,969.412,28.548
25.132,992.836,41.724
49.044,994.056,54.656
52.46,988.444,47.092
60.512,988.932,15.86
66.124,1004.304,-8.052
48.068,1014.796,-13.908
32.452,1012.356,-1.22
38.064,1007.476,12.932
33.916,995.032,24.888
41.724,990.884,9.272
44.408,993.568,26.352
30.988,986.004,39.772
25.376,984.54,54.656
33.184,980.148,61.0
9.516,970.632,52.704
50.996,980.148,22.692
47.824,988.688,39.772
34.404,975.024,30.5
34.648,986.492,27.084
36.6,993.568,30.744
39.528,993.568,11.224
40.748,1000.644,4.392
48.312,1002.108,25.132
50.996,993.08,-5.612
64.416,998.692,13.908
50.508,1003.816,39.772
42.212,1010.404,27.084
38.552,1005.768,32.208
20.008,988.688,29.28
18.056,980.88,14.884
-8.296,968.192,32.94
-3.416,965.996,9.272
30.744,988.932,18.544
26.352,989.664,24.4
38.308,990.884,19.032
50.508,990.396,26.596
48.068,988.2,11.712
68.32,988.2,17.324
62.952,985.028,19.764
37.088,975.024,45.14
37.332,984.052,44.164
40.748,995.52,24.156
26.596,1004.792,7.32
7.564,1010.648,-1.464
-1.464,1000.4,1.952
2.684,990.64,10.98
11.468,989.908,5.124
19.032,989.42,35.136
21.716,984.296,41.968
35.624,978.928,32.208
23.912,973.56,53.68
44.652,975.512,22.936
45.872,977.464,42.944
36.356,976.0,44.408
18.544,988.444,38.308
33.916,1014.064,16.348
30.744,1037.488,17.324
31.964,1032.364,5.124
-3.416,1035.78,22.448
3.172,1064.572,7.32
-30.988,1118.74,45.384
-31.964,1132.648,12.688
-25.62,1184.376,-23.668
-51.24,1252.452,2.44
-97.6,1277.584,-9.272
-204.228,1298.08,-31.72
-145.912,1307.352,-56.12
-179.584,1299.544,-82.228
-117.12,1257.088,-49.288
175.436,1197.064,-74.176
129.564,1147.288,-87.108
65.88,1167.052,45.14
71.004,1146.312,104.92
162.748,1111.176,52.46
274.988,1080.432,59.536
203.252,1049.2,98.576
235.46,1023.824,50.264
329.888,967.46,-4.88
288.896,934.764,17.08
465.552,892.796,49.044
523.868,757.132,87.108
569.008,593.164,90.28
685.884,455.06,166.408
722.728,315.492,259.86
692.228,128.1,436.76
887.184,-31.476,272.304
1016.504,-83.692,-5.124
1032.608,-73.932,89.792
1000.4,-72.224,155.672
984.296,-109.312,125.172
918.172,-157.136,187.636
942.572,-150.548,34.892
855.708,-125.66,143.472
847.656,-91.988,174.704
711.992,-85.156,168.604
711.992,-48.8,132.736
673.196,5.368,81.74
669.292,89.548,20.74
550.22,140.056,81.984
511.912,144.204,13.664
427.244,149.572,134.932
322.324,165.92,153.72
436.272,171.532,76.128
440.42,139.812,113.46
541.924,139.568,-26.352
590.968,142.008,55.876
540.948,100.528,89.548
592.188,88.816,28.548
576.328,90.768,71.248
622.932,106.628,133.468
632.204,70.516,85.4
698.328,83.448,7.076
649.772,57.096,16.592
596.824,31.232,123.708
739.564,-13.176,192.516
864.736,-105.164,203.252
834.724,-134.2,83.204
857.904,-141.764,111.752
750.788,-213.5,183.976
952.332,-255.468,113.216
1148.996,-321.836,106.628
1239.764,-461.892,124.196
1210.972,-563.152,108.824
776.408,-616.1,215.94
1342.488,-598.776,-9.272
1270.264,-672.952,-2.684
1511.824,-795.44,28.06
1464.732,-951.844,262.3
1216.828,-1028.704,277.184
1403.732,-924.028,162.016
1503.772,-822.768,160.308
1493.524,-761.28,62.22
1429.352,-735.66,12.2
1360.3,-756.644,78.812
1266.36,-789.34,129.808
1230.98,-786.656,139.08
1275.388,-787.388,171.532
1258.552,-779.824,156.892
1099.708,-794.464,202.276
1052.128,-760.792,148.352
1026.508,-730.536,190.076
983.32,-733.952,198.616
1033.34,-739.32,103.456
1009.916,-710.528,139.812
1025.532,-701.012,130.296
967.948,-731.268,138.836
978.928,-754.692,171.532
1077.748,-767.136,102.48
1103.612,-754.692,85.888
1161.928,-749.08,-11.468
1182.424,-742.736,95.16
1315.404,-800.076,49.044
1250.988,-859.856,168.36
1298.324,-827.16,149.816
1292.468,-739.808,48.8
1247.816,-597.068,154.94
1260.016,-548.024,92.72
1225.612,-468.48,50.508
1288.808,-401.868,-37.82
1228.54,-322.324,35.136
1338.828,-248.88,-170.312
1233.908,-145.18,40.504
1224.148,-81.74,19.764
1131.672,60.268,-87.352
969.656,197.884,-90.768
986.736,336.232,-105.652
759.328,372.832,49.532
786.9,389.668,-90.28
640.744,441.64,-48.8
439.688,543.388,-7.808
486.536,568.032,-90.036
400.16,591.7,-85.4
366.244,598.288,13.908
347.456,607.316,-10.492
88.816,636.108,84.424
57.34,687.348,73.688
179.828,675.392,-126.88
-60.756,693.204,120.78
-51.728,614.392,134.444
-108.336,588.284,211.304
-162.26,606.828,349.164
-129.808,630.984,203.252
-199.348,688.568,214.476
-222.528,738.1,178.12
-235.704,747.616,180.804
-182.512,754.204,187.636
-160.308,794.708,98.576
-170.068,856.44,94.184
-151.28,918.904,69.54
-127.612,925.004,54.9
-99.308,917.44,68.808
-89.304,936.716,66.612
-125.66,959.408,73.688
-142.984,968.924,107.116
-119.804,962.824,117.852
-103.456,952.576,128.1
-66.612,968.192,51.728
-117.852,989.664,42.7
-128.344,979.66,68.32
-111.752,961.36,56.12
-96.868,943.548,70.272
-95.648,959.164,51.972
-73.688,974.292,68.076
-31.964,984.54,67.1
10.492,996.252,61.488
22.204,998.692,34.892
27.816,1003.816,54.9
33.916,989.176,40.26
12.932,978.44,69.052
-4.88,978.196,83.204
19.032,990.396,51.972
-7.564,1000.156,57.828
-28.792,1002.596,50.264
-1.464,1003.328,20.008
-23.668,997.228,47.092
-25.62,986.98,70.272
-26.596,987.712,77.348
7.32,990.884,76.86
8.296,991.128,82.472
12.2,990.884,78.812
-0.976,986.98,66.612
5.856,986.248,57.828
10.736,984.296,81.984
17.568,986.004,64.172
15.616,989.908,64.172
31.232,1003.816,48.068
12.932,1003.328,51.24
-3.416,987.956,56.12
-5.612,984.54,36.6
-2.196,995.032,48.556
-19.032,990.884,62.464
-9.272,981.368,71.248
-10.248,984.296,72.956
-13.664,979.416,78.324
-5.124,971.12,70.516
21.96,985.272,65.636
41.968,986.98,74.42
22.692,984.784,65.148
45.384,995.032,45.628
14.396,997.716,66.368
18.788,1002.108,51.972
10.492,1009.184,47.58
14.396,1001.864,58.072
-2.44,983.32,68.32
-21.96,970.876,85.156
10.736,985.272,66.124
44.896,1006.5,47.58
72.468,1011.868,31.476
40.016,1006.988,43.432
29.524,987.956,67.344
10.492,965.02,97.356
30.5,960.384,82.96
32.696,982.832,73.932
34.892,993.812,72.712
26.596,996.496,56.852
20.984,990.396,64.904
28.304,979.172,58.072
21.472,982.588,64.66
42.7,985.272,57.828
34.16,985.028,58.804
44.408,988.2,55.388
32.94,999.424,45.384
17.324,1001.864,62.22
10.248,996.252,69.296
12.2,990.152,70.028
9.76,978.196,79.544
36.356,980.392,44.408
-1.708,986.248,54.9
-4.392,980.636,71.98
-15.616,980.88,48.312
37.82,997.472,14.396
26.596,1009.428,47.58
18.544,987.712,52.704
-11.468,971.852,90.28
2.684,958.676,86.62
15.86,969.656,76.86
64.172,972.584,51.972
45.628,989.176,38.064
52.704,998.936,30.012
40.26,1009.916,34.892
45.14,1010.404,26.108
44.408,1014.796,22.936
44.896,1009.672,25.376
41.236,1000.156,37.332
41.968,987.712,48.068
36.844,975.268,66.612
55.144,978.928,49.288
36.6,981.368,69.052
20.496,975.756,80.764
11.224,974.292,67.1
34.16,986.736,45.872
34.16,994.056,41.48
26.596,991.372,39.284
39.772,990.64,2.928
32.94,998.448,17.812
40.992,1005.036,23.912
46.848,1006.5,10.004
58.804,1005.524,40.504
43.92,998.692,63.44
33.916,984.296,65.88
35.38,981.124,52.216
24.4,988.688,51.728
16.592,981.856,56.852
13.42,977.708,50.752
3.904,975.024,70.516
-3.66,967.216,76.616
28.304,969.656,50.02
30.5,982.832,54.412
23.424,980.636,65.88
11.224,969.412,68.076
29.768,979.416,57.096
61.0,994.788,34.892
63.684,1005.036,40.992
47.58,1012.6,32.94
72.224,1016.748,20.984
73.2,1015.772,37.088
