acc_x[mg],acc_y[mg],acc_z[mg]
88.572,985.272,-112.24
80.276,982.832,-108.824
83.936,982.588,-110.288
85.644,980.88,-104.432
91.744,979.904,-106.14
88.084,978.684,-107.36
83.692,981.612,-106.872
83.204,987.224,-106.872
98.332,985.516,-110.776
98.332,989.908,-115.168
90.036,989.664,-106.628
99.064,990.152,-115.656
92.72,986.248,-113.46
86.132,985.028,-113.46
89.548,978.684,-114.68
90.036,975.756,-109.068
89.548,974.048,-102.724
92.964,976.488,-101.26
92.72,976.976,-99.552
101.26,978.196,-112.24
93.452,980.392,-117.12
87.352,981.612,-113.46
90.524,983.564,-108.092
102.724,982.832,-112.728
93.94,985.272,-111.02
86.376,986.492,-110.044
92.476,986.004,-109.556
97.112,982.344,-110.532
94.428,976.488,-112.728
87.352,969.412,-108.824
89.548,970.144,-113.704
93.208,976.976,-111.02
104.188,986.004,-110.532
102.724,987.956,-106.872
106.384,994.788,-106.14
108.336,991.372,-106.628
101.748,989.176,-105.408
93.696,986.248,-112.484
94.672,982.832,-115.656
100.772,984.784,-115.656
111.264,988.688,-124.196
106.872,988.688,-124.928
96.868,982.1,-115.9
94.916,977.708,-107.36
99.796,977.22,-113.46
101.992,978.928,-126.148
95.892,979.172,-123.464
101.26,979.172,-110.532
113.948,982.832,-109.312
112.728,985.028,-113.948
115.168,989.176,-120.292
103.944,986.004,-121.512
92.964,985.76,-121.756
94.916,979.904,-124.196
96.136,973.56,-111.264
100.772,971.852,-102.236
110.044,976.732,-101.016
119.316,981.124,-101.504
107.116,983.32,-101.992
89.548,982.832,-104.676
86.864,983.32,-118.584
95.892,985.028,-125.66
98.82,985.272,-115.9
99.552,983.32,-105.408
98.088,983.076,-105.164
101.26,980.636,-107.36
93.696,976.976,-107.604
94.184,976.0,-115.656
98.088,981.124,-117.12
99.064,979.172,-105.896
102.724,977.464,-100.284
106.628,978.928,-106.384
101.992,980.392,-109.556
92.476,984.784,-110.776
95.404,988.2,-120.78
99.552,986.004,-120.536
100.528,984.784,-108.58
99.796,983.32,-105.652
102.48,981.368,-105.164
104.432,975.512,-101.26
101.504,976.732,-103.456
92.964,981.368,-111.752
101.504,982.1,-122.976
93.208,984.052,-118.096
98.088,980.392,-109.556
103.456,979.172,-106.14
95.404,980.88,-106.14
91.012,984.296,-111.508
102.48,984.296,-115.656
106.384,987.956,-107.36
105.896,992.836,-105.652
105.652,991.372,-112.24
94.672,993.08,-119.56
85.644,987.224,-119.072
89.06,986.004,-118.34
100.04,984.54,-121.512
100.04,979.904,-109.312
83.692,972.096,-91.012
85.156,965.996,-90.28
85.644,966.484,-90.036
93.696,971.608,-105.896
86.62,981.856,-115.168
82.228,987.712,-109.556
90.768,986.004,-104.432
105.408,985.272,-102.48
94.916,984.54,-99.064
91.256,988.688,-111.508
89.06,986.736,-108.336
86.864,982.1,-95.648
96.38,978.684,-99.308
102.236,983.076,-104.432
89.792,983.32,-99.796
87.352,985.028,-102.48
90.036,984.54,-109.312
83.936,987.956,-108.092
91.988,989.42,-109.068
99.308,989.664,-108.58
94.184,987.224,-101.504
84.912,985.028,-94.428
85.156,985.76,-99.308
88.572,990.396,-111.752
92.72,991.616,-119.804
82.96,1002.596,-112.728
76.616,1011.624,-110.532
68.808,1006.256,-108.336
45.14,1014.064,-95.892
-27.328,1013.82,-53.924
-2.928,971.12,-35.868
33.916,997.716,-50.508
81.496,979.904,-85.156
113.704,971.364,-92.232
92.964,998.692,-66.124
131.272,979.66,-70.028
211.06,983.076,-129.808
111.752,975.024,-74.42
7.32,970.632,-28.06
21.228,959.896,-39.528
181.048,1039.684,67.588
284.748,589.992,-185.928
487.512,712.236,-127.612
484.34,694.912,-253.028
505.568,625.372,-156.892
658.312,599.996,-100.04
716.14,544.852,-160.064
337.208,381.616,-62.22
486.78,324.52,125.172
722.484,281.576,111.02
1043.344,140.056,-95.404
1228.296,168.36,-95.892
995.032,9.028,-169.58
847.412,-180.56,172.508
957.212,61.732,-9.76
1201.7,-86.132,-101.992
1123.132,-194.712,72.224
1148.752,-221.552,77.104
1149.728,-184.22,53.68
1173.64,-271.084,169.58
1225.856,-297.924,132.004
1217.56,-314.76,156.648
1116.544,-287.188,174.948
1142.408,-279.136,165.676
1237.568,-325.74,129.076
1161.44,-314.272,114.924
1145.824,-330.376,95.892
1218.536,-400.892,149.572
1321.016,-480.192,222.528
1538.42,-570.716,221.064
1685.552,-708.088,360.388
1714.1,-773.48,438.712
1656.76,-724.68,451.4
1540.86,-669.048,459.94
1581.608,-692.96,463.356
1830.976,-747.86,413.824
1865.38,-791.536,347.7
1776.564,-888.16,416.752
1768.024,-924.272,384.544
1523.292,-930.128,367.22
1179.496,-934.52,444.324
971.608,-881.084,368.684
511.424,-795.928,347.7
113.216,-627.08,282.796
37.332,-427.732,125.904
73.2,-263.764,-77.836
22.692,-74.908,-371.368
154.452,56.852,-580.232
271.328,83.936,-711.748
522.892,88.816,-818.864
666.12,131.76,-1000.888
605.608,223.748,-1156.316
507.764,257.664,-1227.076
310.368,274.988,-1189.012
298.9,242.048,-1063.596
168.848,257.176,-956.968
4.636,244.732,-830.82
-24.888,170.556,-623.664
66.612,84.18,-376.736
233.752,75.152,-219.112
237.168,48.312,-31.964
77.348,44.652,191.784
237.656,-49.776,420.168
556.808,-144.936,582.916
578.28,-126.88,660.264
566.08,-159.332,779.824
925.004,-254.492,884.744
1228.296,-313.784,956.236
1131.184,-287.188,940.62
1168.028,-376.98,1109.224
1486.936,-518.012,1238.3
1740.696,-631.228,1251.72
1603.812,-613.904,1112.884
1588.928,-694.424,1076.284
1683.356,-774.212,964.776
1792.668,-792.268,710.04
1873.188,-833.748,539.484
1972.496,-835.456,245.952
1646.756,-760.792,-66.612
1282.708,-670.756,-239.12
1242.204,-433.588,-714.188
1230.98,-177.876,-1166.808
1220.488,-15.128,-1326.14
1147.776,-32.452,-1169.492
1082.384,-115.9,-909.144
962.092,-136.152,-687.836
857.172,-146.156,-454.572
940.132,-183.732,-191.54
1106.54,-174.216,13.664
1139.724,-46.848,-34.648
1049.2,29.036,-165.432
962.58,188.368,-261.812
1064.572,109.556,-63.196
1096.048,65.392,153.964
1106.54,142.008,168.604
1227.076,169.092,180.56
1207.8,140.056,201.544
1113.616,193.492,157.38
877.912,261.324,197.884
667.584,448.228,196.176
591.212,575.84,135.42
670.756,581.696,157.136
755.668,525.82,232.288
720.044,695.156,174.704
488.244,828.136,-0.244
394.304,845.216,-73.688
177.388,845.216,101.504
403.088,944.036,-6.344
338.672,1062.62,-317.688
-51.484,1085.8,-205.204
-2.928,977.708,-65.148
182.024,875.472,-8.052
16.592,913.048,18.3
-147.864,913.536,31.232
-293.044,911.096,-5.368
-286.7,964.044,-142.984
-118.828,973.072,-191.784
-75.152,946.232,-48.8
-155.184,986.98,-4.392
-151.28,1017.236,-89.792
-124.928,1006.744,-153.964
-99.064,1002.84,-198.372
-211.304,1015.772,-157.136
-181.78,981.856,-123.22
-260.592,981.368,-85.644
-241.316,980.392,-133.224
-201.544,977.464,-163.724
-163.968,982.832,-166.164
-184.708,983.808,-116.144
-202.276,959.164,-62.708
-198.616,955.016,-66.856
-206.912,944.28,-78.812
-175.192,933.544,-84.424
-148.596,957.944,-121.756
-169.092,975.756,-111.02
-157.136,970.144,-91.744
-177.144,943.06,-40.748
-181.292,935.74,-41.48
-130.296,955.504,-94.916
-151.768,963.556,-86.132
-174.948,961.36,-80.52
-193.492,962.824,-83.936
-180.316,959.408,-69.54
-133.224,958.92,-62.708
-97.112,949.892,-53.192
-144.448,958.188,-47.092
-175.68,973.56,-55.632
-153.232,986.004,-75.396
-120.048,996.984,-99.552
-111.264,1004.06,-107.116
-142.984,990.64,-67.1
-127.856,977.952,-59.292
-102.236,977.952,-62.464
-109.8,988.444,-74.664
-132.004,983.076,-77.104
-139.324,964.044,-68.564
-147.376,962.824,-65.392
-130.296,973.56,-89.792
-153.476,987.468,-101.26
-155.916,973.072,-93.94
-134.444,959.652,-75.64
-107.36,954.284,-62.22
-134.932,978.684,-66.856
-141.276,988.2,-80.764
-143.716,988.932,-70.272
-128.588,1011.868,-75.64
-101.016,1003.572,-76.616
-109.312,997.96,-62.22
-111.508,983.564,-42.212
-115.656,990.396,-39.528
-109.312,999.668,-66.368
-104.188,987.712,-61.0
-101.016,974.048,-46.848
-106.384,963.8,-45.872
-135.176,956.236,-44.164
-139.324,952.332,-46.116
-111.264,960.384,-62.708
-92.232,960.628,-57.584
-110.532,972.096,-64.904
-135.42,984.784,-88.328
-145.424,979.172,-78.812
-122.488,972.584,-60.756
-118.828,978.684,-56.364
-120.292,984.54,-56.608
-117.364,979.172,-52.46
-111.752,984.784,-61.0
-113.704,988.2,-60.024
-128.1,980.88,-51.484
-139.08,980.392,-59.78
-128.832,983.808,-81.984
-119.072,984.296,-80.52
-120.292,979.172,-68.808
-122.0,975.024,-67.832
-135.908,964.288,-58.072
-127.612,957.212,-67.1
-135.908,956.968,-69.052
-126.88,971.364,-83.692
-132.248,968.924,-67.588
-111.264,956.968,-58.56
-127.612,940.62,-31.72
-121.024,946.232,-45.384
-128.588,937.448,-48.8
-115.9,929.64,-45.872
-114.68,934.276,-48.556
-117.852,943.06,-53.436
-116.144,939.644,-52.704
-110.776,940.864,-66.124
-126.148,949.404,-68.564
-131.516,931.348,-57.34
-120.78,923.54,-51.728
-110.044,917.44,-48.312
-110.288,917.196,-54.9
-110.044,919.88,-59.536
-113.216,917.44,-46.116
-93.696,903.288,-52.46
-99.796,878.156,-39.284
-111.752,865.956,-30.012
-113.216,872.056,-53.68
-101.992,888.404,-83.448
-98.332,902.556,-98.82
-141.52,894.26,-76.128
-129.32,855.464,-26.352
-67.1,854.244,11.224
4.636,880.352,-13.664
13.664,919.148,-49.532
-33.672,955.26,-80.764
-91.256,956.724,-76.616
-60.756,928.664,-40.504
30.012,923.54,-25.132
43.432,936.96,-16.348
-16.348,957.456,-23.424
-17.08,973.56,-81.008
33.672,977.952,-108.824
100.772,946.476,-96.624
86.864,912.072,-30.5
37.82,941.108,-47.58
44.164,982.1,-101.26
92.476,1016.504,-138.348
110.044,1038.464,-170.312
75.152,1035.536,-149.816
60.512,1013.82,-78.812
124.196,1034.56,-66.612
150.792,1072.868,-78.812
145.18,1093.364,-88.572
138.104,1152.656,-148.352
133.956,1204.628,-188.612
179.34,1207.8,-170.312
188.124,1192.184,-119.072
252.784,1190.72,-127.856
237.412,1192.916,-121.756
220.332,1189.5,-142.74
245.708,1161.928,-141.032
272.304,1131.672,-115.656
240.828,1091.412,-82.96
236.924,1050.908,-97.6
203.252,1021.14,-103.456
214.476,986.736,-104.188
235.948,952.82,-97.356
207.156,928.42,-60.512
186.904,924.028,-74.908
202.032,940.864,-97.356
184.22,947.94,-106.628
171.288,937.936,-96.136
174.704,924.028,-76.372
135.42,917.44,-22.936
66.856,928.42,-24.888
90.768,946.72,-92.72
132.736,905.972,-88.084
156.648,904.996,-46.116
304.756,933.788,-145.424
436.272,980.636,-275.964
242.536,897.92,-157.136
125.416,901.824,-79.788
304.756,748.592,-139.324
411.872,517.524,-59.536
363.804,448.472,24.888
596.824,180.56,-9.272
1039.684,-127.856,-288.896
1496.696,-233.508,-229.36
1274.412,-81.496,98.332
1148.02,-111.264,151.524
958.432,-164.212,241.072
1141.92,-248.636,92.72
1419.104,-317.444,-63.44
1223.66,-383.568,244.732
1237.08,-419.924,309.636
1370.304,-390.644,114.924
1338.828,-413.824,110.288
1373.232,-440.42,185.44
1522.56,-508.984,190.076
1591.368,-548.512,207.156
1565.748,-591.944,223.26
1529.148,-544.852,255.956
1653.588,-552.904,201.056
1992.992,-683.688,190.32
2228.696,-799.588,98.82
2136.464,-882.548,63.928
1650.416,-904.02,214.232
1268.068,-852.048,373.808
1062.864,-704.184,256.932
963.068,-650.748,172.996
960.628,-609.024,78.812
696.62,-529.724,36.6
254.736,-329.644,-14.396
-46.848,-174.46,12.688
-68.076,-38.064,-9.76
-8.54,121.512,-180.072
-17.324,155.672,-178.608
132.004,165.92,-236.68
314.272,153.232,-307.684
340.136,240.096,-458.232
445.788,287.432,-590.48
722.728,218.38,-683.688
985.516,196.176,-872.544
1051.152,229.116,-1008.94
1024.312,260.104,-1114.104
1037.0,185.684,-1099.464
953.552,183.488,-1068.476
687.348,176.656,-950.38
531.676,93.208,-704.672
459.208,16.836,-338.672
323.3,67.832,-198.86
181.048,101.992,-24.888
106.384,117.364,141.52
121.024,130.052,328.668
242.78,107.604,418.46
390.644,48.556,510.936
437.736,0.488,667.34
499.224,-15.128,738.1
708.576,-80.032,788.12
995.764,-218.624,834.48
1271.484,-373.076,1046.516
1343.22,-462.624,1181.692
1177.544,-500.932,1254.404
1163.88,-563.396,1269.288
1444.236,-640.012,1232.932
1528.416,-680.028,998.204
1378.356,-657.092,767.136
1397.144,-673.44,648.552
1639.192,-692.228,383.08
1731.18,-658.556,132.98
1694.336,-589.504,-52.46
1718.492,-566.812,-191.54
1495.72,-449.204,-323.788
1356.884,-332.816,-411.872
1331.996,-292.068,-439.688
1263.188,-194.956,-498.736
1242.448,-105.652,-586.088
1097.024,8.296,-679.54
1027.728,-10.736,-519.232
980.392,-69.54,-290.116
954.284,-30.5,-247.172
928.664,32.452,-247.416
969.412,-13.42,-116.388
1047.736,-92.232,45.628
1030.412,-102.236,126.636
935.984,-77.104,172.996
958.188,-77.104,199.836
1009.672,-73.444,206.424
1048.712,-60.024,235.948
1015.772,-43.676,230.092
1076.528,-98.576,352.092
1052.128,-158.112,405.772
1002.352,-116.144,371.124
948.672,-72.468,353.556
1003.328,-24.888,267.424
1114.104,65.88,201.544
1145.336,94.672,146.644
1078.48,108.58,201.788
942.328,90.524,300.852
886.94,172.02,260.836
960.384,226.188,185.684
1114.592,229.36,175.192
1136.064,279.136,186.904
1075.796,321.348,171.288
864.98,271.572,199.592
723.948,350.384,249.612
839.604,445.788,103.212
913.048,553.636,-50.996
825.94,587.796,9.76
782.508,430.66,152.744
980.636,468.48,58.072
773.968,697.84,-92.72
686.616,693.692,-57.096
760.792,639.524,95.648
700.524,689.544,144.204
696.376,697.596,-49.044
534.848,784.948,-45.384
448.472,863.516,-50.02
477.508,850.34,-100.772
412.848,849.852,-45.384
420.412,880.596,-26.84
325.984,914.024,-62.708
184.22,951.112,-154.696
107.604,921.832,-108.092
166.896,929.152,-82.228
92.476,1010.16,-151.036
-5.124,1006.012,-193.004
-6.832,1000.156,-128.344
-57.34,1019.92,-68.32
-20.74,1006.256,-91.256
16.592,966.24,-29.524
-30.012,953.064,55.144
-61.976,984.54,-12.932
-53.68,992.836,-109.556
-99.064,968.192,-75.884
-155.672,986.736,-61.732
-189.1,988.444,-79.788
-196.42,948.184,-65.148
-241.072,926.468,-9.76
-191.052,951.6,-46.116
-134.688,968.192,-68.32
-128.344,956.236,-27.328
-197.64,972.34,-12.688
-187.148,997.228,-36.112
-120.292,985.516,-73.932
-151.036,1000.4,-92.72
-183.976,980.392,-35.624
-148.108,991.128,-48.8
-111.02,1023.824,-104.676
-162.26,1004.06,-69.54
-139.324,975.024,-35.38
-103.456,980.392,-71.492
-164.944,962.824,-50.508
-150.06,983.808,-105.896
-159.332,995.764,-124.928
-205.204,987.712,-96.624
-205.936,972.828,-81.496
-160.308,962.336,-81.252
-125.66,959.408,-85.156
-156.648,932.324,-52.216
-177.876,944.768,-54.9
-180.072,968.924,-81.74
-234.24,941.108,-66.124
-192.76,938.668,-56.12
-102.236,955.26,-81.008
-109.068,985.516,-82.716
-101.748,987.224,-84.668
-129.564,974.048,-71.492
-165.188,978.196,-100.772
-141.032,981.368,-108.336
-149.084,960.872,-80.764
-137.372,974.048,-88.328
-146.4,978.196,-102.968
-152.988,963.8,-88.572
-132.98,965.264,-105.408
-136.152,985.272,-121.024
-140.3,990.396,-126.392
-194.468,973.316,-91.5
-187.88,960.628,-84.18
-151.28,946.72,-67.588
-129.808,952.576,-83.204
-126.636,974.048,-114.924
-182.268,963.8,-84.18
-171.776,944.524,-71.492
-156.892,955.748,-91.744
-145.424,957.944,-99.308
-153.232,946.72,-78.568
-140.3,949.892,-81.496
-154.208,953.064,-72.712
-135.176,955.26,-82.472
-137.372,958.676,-82.228
-147.376,946.232,-80.276
-151.768,937.936,-71.492
-134.444,934.276,-65.392
-104.188,942.328,-87.84
-132.004,943.548,-55.144
-127.368,929.884,-49.532
-147.132,930.86,-47.824
-137.86,917.684,-42.7
-116.388,905.24,-56.852
-107.116,922.564,-67.588
-92.72,916.708,-60.756
-128.1,893.772,-22.204
-136.64,877.912,-11.956
-105.896,894.748,-30.744
-112.484,912.072,-31.72
-108.58,928.664,-44.652
-106.384,943.548,-60.512
-113.704,944.28,-53.192
-103.7,939.644,-29.524
-74.42,932.324,-14.396
-52.948,929.884,-21.96
-50.02,912.56,-48.312
-69.296,876.936,-17.08
-73.688,853.024,30.5
-74.176,870.104,30.256
-74.908,911.828,-20.984
-91.012,956.236,-111.996
-173.728,952.332,-138.104
-159.576,922.808,-123.708
-94.428,923.296,-110.044
-14.64,943.304,-90.28
-6.344,956.236,-74.176
-46.604,918.172,-54.412
-39.772,895.48,-43.432
-7.808,907.436,-12.932
28.304,951.844,-44.896
71.736,982.588,-111.996
47.824,977.22,-159.088
-19.764,939.888,-103.7
12.2,944.768,-106.872
37.332,968.436,-121.512
10.004,973.804,-132.98
10.004,1031.632,-153.72
39.284,1097.024,-175.436
58.316,1129.232,-183.732
92.476,1146.556,-202.764
58.56,1188.28,-213.012
57.34,1253.916,-289.628
57.096,1254.648,-300.608
59.536,1208.776,-245.708
43.188,1204.14,-232.532
90.28,1173.64,-204.472
98.82,1140.212,-165.676
92.964,1136.064,-190.564
52.216,1120.692,-206.668
80.032,1071.16,-163.48
134.688,1034.804,-120.292
147.132,1041.148,-126.148
128.1,1034.56,-142.74
96.868,1007.72,-142.496
85.888,996.496,-147.376
123.464,995.032,-165.92
191.052,937.936,-84.668
167.14,895.48,-17.08
142.496,919.392,-80.032
149.572,934.276,-116.144
141.276,940.62,-120.292
91.012,949.16,-137.128
77.592,960.384,-164.456
89.304,949.648,-142.008
118.096,955.016,-137.86
158.356,979.66,-177.144
135.664,963.8,-134.2
124.928,939.644,-70.76
61.0,936.716,-32.452
2.44,939.156,-61.732
74.664,949.404,-186.66
60.268,974.78,-231.068
45.384,958.676,-180.316
103.7,922.32,-119.56
99.308,860.1,-48.068
89.548,791.292,-84.912
179.096,686.372,-192.516
389.18,543.876,-211.548
615.124,407.968,-146.156
781.288,363.316,-240.584
776.164,70.76,-31.232
1117.032,-16.104,-208.376
1250.744,-193.98,-197.152
1541.104,-181.536,-122.488
1711.904,-171.044,-117.364
1275.632,-226.188,158.112
1179.984,-178.852,54.656
1176.324,-294.996,124.684
1002.596,-317.688,211.06
1126.06,-343.064,178.852
1238.056,-361.608,105.164
1310.524,-431.392,197.64
1476.932,-442.86,156.892
1673.352,-479.216,146.4
1651.88,-584.868,282.796
1697.508,-642.452,351.848
1852.204,-662.216,343.064
1986.16,-739.808,374.052
2058.872,-801.784,350.384
1853.912,-873.032,483.12
1707.268,-888.648,492.148
1518.9,-881.084,442.86
1350.052,-806.664,287.432
1022.604,-681.004,149.816
715.408,-629.276,160.308
525.088,-500.932,14.64
336.72,-307.44,-208.864
133.712,-91.256,-433.588
71.736,48.068,-555.1
186.416,61.244,-568.032
314.516,75.64,-645.868
469.456,134.932,-804.224
359.9,222.04,-885.476
413.092,292.8,-998.204
494.1,261.08,-979.904
518.012,274.256,-1014.064
443.836,313.784,-1076.284
396.256,248.148,-973.56
356.972,156.404,-793.244
293.288,156.648,-624.396
91.988,129.564,-421.876
-51.484,110.776,-234.728
-46.604,89.792,-83.448
80.764,17.08,143.472
195.932,-69.784,470.188
274.256,-141.52,740.052
459.94,-156.648,766.404
827.648,-229.604,806.176
1260.504,-315.492,1005.036
1250.256,-360.632,1174.372
1103.856,-431.392,1310.524
1254.648,-497.76,1406.66
1467.66,-544.852,1377.868
1489.132,-527.04,1200.48
1490.84,-571.692,1111.42
1682.624,-642.208,1010.648
1848.788,-658.312,797.636
1763.388,-660.02,639.036
1560.868,-696.132,548.512
1479.128,-660.02,274.5
1494.256,-567.3,-85.644
1695.312,-506.056,-345.504
1681.404,-347.456,-609.756
1334.192,-196.664,-712.724
1074.088,-56.852,-783.484
1145.824,-50.996,-717.116
1178.764,-104.92,-536.312
1018.944,-81.74,-401.624
883.768,-34.648,-315.736
845.46,-12.444,-234.24
973.072,-44.408,-131.76
934.52,-53.192,2.196
882.304,-67.1,126.88
1046.272,-101.748,189.1
1127.28,-101.016,211.06
1078.724,-42.7,154.208
1057.74,6.832,129.076
1059.204,-38.796,287.676
1008.696,-81.008,416.264
1131.672,-68.32,381.86
1175.104,20.984,293.532
1007.964,88.816,235.216
945.256,139.568,301.828
1144.36,141.032,313.052
1170.956,169.58,325.74
1101.172,225.944,271.084
876.448,203.496,298.412
772.748,299.632,270.84
874.496,469.456,151.28
1030.168,577.792,41.968
857.416,507.52,223.992
691.984,467.504,420.656
802.76,544.12,341.844
644.16,725.412,108.336
439.932,762.256,123.952
440.664,693.204,187.392
412.36,682.956,217.404
269.132,814.228,188.856
126.148,928.908,110.288
-32.452,1001.376,-36.356
64.416,982.1,-96.868
241.072,952.82,-24.4
242.048,945.988,67.1
-19.764,952.332,112.972
-92.72,942.816,24.644
-23.424,919.148,10.492
101.748,927.932,29.036
74.664,935.252,101.26
-20.252,947.94,70.272
-117.608,995.764,-69.784
-146.888,1056.276,-176.412
-114.436,1037.732,-132.492
-133.224,979.904,-24.644
-121.756,939.156,21.716
-154.208,947.208,-26.596
-126.148,952.332,-63.684
-56.852,991.86,-122.976
-135.664,1010.16,-93.452
-152.256,989.664,-46.36
-118.34,982.1,-36.112
-147.132,997.472,-41.236
-140.544,1023.092,-79.544
-120.78,1008.208,-53.924
-63.196,1004.548,-46.604
-130.54,994.3,-9.028
-156.16,1000.4,-45.384
-149.084,1012.112,-81.984
-101.504,1015.04,-77.592
-108.58,999.424,-43.188
-136.64,989.176,-28.304
-84.18,993.08,-70.76
-125.416,980.148,-28.06
-124.928,993.812,-37.332
-100.772,991.128,-58.316
-91.988,985.76,-68.32
-126.636,983.32,-61.0
-127.856,980.88,-51.972
-121.024,979.66,-50.02
-106.384,971.364,-52.948
-144.204,965.752,-20.496
-124.684,968.192,-42.456
-65.148,996.984,-86.864
-119.316,983.32,-40.016
-85.4,961.116,-39.284
-110.044,957.7,-22.692
-145.424,960.628,-22.204
-110.288,968.436,-54.656
-127.124,998.936,-95.892
-142.252,989.42,-84.668
-121.756,968.436,-58.072
-153.232,948.672,-18.788
-130.296,960.14,-39.284
-71.492,987.956,-76.616
-101.992,1010.16,-78.812
-142.984,996.252,-42.7
-124.928,964.532,-16.592
-98.332,951.112,-11.712
-108.092,948.672,-4.148
-94.184,962.092,-30.5
-118.34,982.1,-49.776
-137.372,990.64,-53.924
-137.128,985.272,-50.752
-82.96,973.56,-54.168
-94.184,976.732,-45.384
-118.34,966.24,-36.112
-120.292,949.648,-22.448
-117.364,949.404,-24.156
-115.168,956.968,-50.02
-116.876,955.016,-52.46
-132.98,948.916,-30.744
-105.652,944.524,-15.616
-88.572,946.964,-14.152
-80.032,952.332,-33.916
-129.076,930.128,-18.056
-110.044,924.272,-34.16
-107.116,929.396,-32.94
-113.46,925.98,-34.892
-106.628,915.488,-27.084
-101.016,906.46,-30.012
-105.896,899.384,-34.892
-112.728,871.568,-32.94
-114.68,843.508,-30.256
-112.728,866.444,-56.364
-132.98,897.92,-85.888
-128.1,895.968,-62.464
-115.412,876.692,-10.736
-74.42,876.936,-8.052
-65.636,913.292,-26.352
-59.78,943.548,-47.824
-33.916,966.484,-85.156
-29.768,954.528,-51.484
-5.124,923.54,-29.524
17.324,893.284,-38.064
-2.684,888.892,-13.42
-5.856,929.884,-43.92
12.688,957.456,-76.372
77.592,941.596,-74.42
19.276,901.58,-60.024
-57.828,860.588,-62.464
-37.332,901.824,-108.336
18.788,963.556,-129.808
75.64,1010.16,-153.964
73.444,1032.608,-163.724
66.856,1055.056,-155.672
97.844,1092.144,-180.316
103.944,1137.284,-200.568
109.068,1142.164,-168.36
132.004,1179.496,-185.44
153.72,1221.708,-203.252
152.012,1262.212,-242.048
118.096,1262.456,-281.332
117.364,1191.696,-199.348
147.864,1120.692,-116.144
190.32,1102.636,-122.732
180.804,1096.78,-129.808
146.156,1064.328,-103.944
176.9,1058.716,-111.996
172.508,1034.804,-108.824
153.476,1032.608,-110.532
156.892,1037.244,-132.736
182.024,1016.26,-115.656
189.588,961.848,-73.2
140.544,930.372,-60.024
136.64,940.132,-97.6
138.104,943.792,-108.092
156.404,950.136,-117.364
160.064,939.644,-93.452
172.02,930.616,-65.88
146.644,934.276,-69.052
145.424,949.16,-107.604
149.572,957.212,-107.604
162.016,951.844,-95.404
142.008,965.752,-88.816
144.204,973.56,-101.26
118.34,977.464,-113.216
158.6,993.08,-132.736
119.56,987.468,-112.484
150.06,985.76,-122.244
131.516,966.728,-95.16
70.028,951.6,-62.708
21.96,926.712,-35.136
-8.784,889.38,-4.636
36.112,843.508,-6.344
92.72,835.944,-51.24
80.52,861.564,-118.34
-37.576,823.988,-117.12
-69.296,754.692,-193.98
66.368,668.072,-224.724
321.348,511.912,-309.392
575.108,372.1,-365.512
736.636,13.176,-137.86
1040.416,-235.704,34.892
1227.076,-262.3,-35.38
1262.7,-138.348,-158.112
1319.796,-105.408,-121.024
1387.14,-170.8,-91.256
1324.188,-193.98,-152.988
1277.34,-254.248,-49.532
1171.444,-335.5,116.388
1262.212,-319.396,83.692
1295.396,-233.02,-81.74
1260.504,-295.24,-18.544
1271.972,-368.44,97.844
1386.652,-362.34,111.752
1546.96,-345.748,21.228
1631.872,-432.124,85.156
1568.676,-496.784,177.144
1552.572,-515.816,210.572
1633.58,-540.46,236.68
1931.504,-556.564,141.276
2017.88,-606.096,130.296
2048.624,-665.388,154.94
2102.792,-719.312,116.388
1898.076,-784.46,153.72
1606.74,-789.584,235.704
1353.468,-790.072,272.548
1104.832,-743.468,253.76
781.776,-615.124,172.02
373.808,-392.352,63.928
155.184,-217.404,-84.18
132.98,-71.492,-231.8
272.548,14.396,-334.036
309.88,93.208,-415.044
317.932,154.208,-580.72
281.088,206.18,-692.472
294.508,291.58,-813.252
384.3,338.428,-968.436
305.0,387.228,-1013.82
230.824,412.116,-994.3
230.824,387.96,-923.052
210.572,372.832,-875.228
110.044,314.516,-735.66
-20.74,271.084,-500.444
63.44,255.712,-350.14
32.696,243.512,-185.196
-4.392,177.144,15.128
146.4,45.384,332.084
443.104,-22.936,480.68
547.048,10.736,469.212
476.288,-12.688,466.528
693.692,-115.656,650.26
1067.5,-205.692,826.672
1258.552,-257.42,892.552
1200.236,-290.848,853.024
1249.28,-337.208,919.636
1354.2,-373.808,963.556
1348.588,-364.78,808.372
1563.308,-432.856,845.704
1890.756,-517.524,861.808
1689.212,-484.584,676.856
1508.652,-517.768,669.78
1645.78,-584.136,590.968
1833.416,-574.62,372.588
1738.988,-486.78,93.94
1484.984,-372.588,-165.432
1334.192,-215.208,-423.828
1337.852,-95.404,-582.184
1355.42,-1.708,-678.564
1197.796,62.464,-669.78
1069.452,2.684,-473.116
917.684,-37.332,-316.956
925.248,75.396,-363.316
901.336,183.976,-478.484
899.14,113.704,-307.196
934.52,17.812,-67.832
962.824,6.1,6.588
867.176,28.792,3.66
900.116,67.1,-74.176
997.472,110.532,-152.5
1077.016,73.444,-11.956
1151.436,44.896,45.384
1138.992,26.108,155.916
1084.824,19.52,200.568
995.032,34.16,181.048
1036.512,49.776,167.384
1173.396,72.224,177.876
1232.444,104.188,166.408
1182.668,158.356,142.008
1044.564,144.204,217.404
1014.308,114.436,223.504
1010.648,262.056,85.156
951.6,304.268,52.46
889.868,346.48,99.796
874.74,370.392,133.712
815.692,406.26,140.3
735.416,404.308,203.74
829.844,488.0,131.516
934.52,541.192,-1.464
984.54,587.308,-58.56
906.46,578.524,45.872
736.392,547.536,208.132
710.772,619.028,174.948
729.072,684.42,62.708
699.548,701.988,69.54
843.02,691.008,91.5
825.696,694.424,109.312
623.42,770.796,48.312
388.448,855.952,10.736
400.404,833.992,16.836
506.056,814.472,58.072
600.728,835.944,7.808
376.248,834.236,58.56
104.92,951.112,20.984
-24.888,966.484,-54.9
130.784,922.808,-77.836
218.136,925.492,-28.548
236.192,951.112,44.896
159.088,971.852,1.22
32.94,978.684,-24.644
71.492,970.388,2.684
140.056,973.316,-10.248
145.424,987.224,-27.328
89.792,1006.744,-21.228
-12.688,1000.644,-4.148
-7.076,978.684,-3.904
-6.588,964.776,16.104
-8.54,981.612,-7.808
-42.456,1059.448,-131.516
-104.432,1066.036,-134.688
-109.068,1003.816,-57.828
-43.432,953.796,-30.988
-15.372,962.824,-20.252
-23.912,983.564,-18.3
-41.236,994.788,-11.468
-42.944,964.776,7.564
-6.344,957.944,-34.404
-52.948,988.932,-54.168
-72.224,1014.064,-54.412
-39.04,1022.36,-70.516
-48.068,1018.212,-57.096
-51.728,993.812,-43.676
-57.34,977.952,-40.992
-59.292,994.056,-56.852
-61.488,995.764,-60.268
-27.084,980.88,-54.412
-52.46,990.396,-44.652
-37.576,988.444,-66.612
-24.644,985.272,-44.652
-21.716,998.448,-72.712
-69.052,989.42,-69.296
-56.608,975.268,-53.924
-48.8,970.876,-42.212
-60.268,980.88,-54.168
-38.552,994.544,-81.496
-52.46,998.936,-71.736
-45.628,1001.864,-57.34
-22.936,995.52,-60.268
-42.944,979.66,-51.972
-64.66,968.68,-42.7
-52.948,972.828,-49.532
-37.82,981.612,-52.46
-33.184,979.66,-47.824
-47.824,965.508,-33.916
-53.924,968.68,-51.728
-69.052,968.68,-56.608
-43.432,987.468,-91.744
-79.544,984.54,-71.492
-71.004,978.928,-78.324
-42.7,984.296,-79.544
-56.608,987.712,-63.196
-49.288,997.472,-82.96
-69.54,988.2,-53.68
-48.312,968.436,-44.896
-60.024,970.632,-46.848
-42.456,970.632,-56.852
-42.944,991.128,-73.932
-60.024,990.884,-69.296
-39.528,983.564,-70.028
-57.584,993.568,-75.152
-78.568,982.1,-57.828
-40.748,990.152,-87.352
-50.996,999.18,-89.792
-59.048,996.496,-78.568
-49.776,980.148,-58.072
-56.608,974.536,-59.048
-61.0,972.584,-58.316
-28.06,978.684,-74.176
-52.704,974.78,-73.444
-63.196,964.288,-61.732
-64.66,965.752,-55.144
-41.48,989.42,-88.328
-34.16,1002.108,-86.864
-34.16,994.3,-68.564
-69.784,989.908,-54.656
-50.02,972.828,-61.976
-33.916,978.928,-71.492
-57.096,985.028,-69.052
-53.192,966.24,-70.272
-66.856,954.772,-38.552
-44.408,957.456,-38.064
-31.476,965.996,-37.088
-45.872,969.412,-35.868
-52.46,942.328,-22.936
-39.284,924.76,-23.18
-41.724,946.476,-31.72
-45.872,937.448,-25.376
-55.144,935.252,-22.692
-43.432,929.396,-34.404
-61.976,933.544,-53.192
-55.144,917.684,-49.532
-91.012,913.536,-36.844
-83.936,901.336,-25.132
-33.428,914.756,-36.844
-37.576,921.344,-31.232
-61.488,902.556,-14.152
-50.264,896.212,-19.276
-13.664,918.66,-33.672
-15.128,922.564,-2.44
19.764,931.836,12.444
38.796,943.548,24.888
40.016,944.524,34.892
53.68,968.924,-7.32
28.792,979.172,-17.324
17.568,972.096,-18.3
48.8,957.212,-43.432
58.804,945.256,-50.996
54.168,940.864,-44.408
46.848,924.272,-25.132
49.776,915.732,-13.176
73.688,930.128,-30.744
94.428,948.672,-52.46
80.52,955.26,-64.416
81.496,957.456,-81.008
84.668,968.924,-115.412
115.656,970.144,-129.076
97.6,950.136,-79.056
116.144,926.956,-84.424
156.648,934.52,-128.588
162.992,976.732,-149.572
101.992,994.788,-126.88
163.236,1021.872,-154.452
243.756,1028.948,-132.98
264.984,1006.012,-27.816
303.292,1040.416,-5.124
319.152,1093.364,-33.672
299.876,1155.828,-63.928
321.104,1198.284,-114.68
330.132,1212.924,-135.908
314.028,1193.648,-102.48
334.28,1181.936,-105.896
364.78,1172.176,-116.632
335.744,1128.012,-95.16
322.568,1074.332,-86.62
323.788,1043.344,-88.328
278.892,1032.852,-102.724
289.384,993.324,-112.484
281.82,947.94,-101.016
237.656,920.612,-88.328
251.808,914.756,-100.772
264.74,901.336,-98.088
273.524,904.264,-106.628
216.916,887.428,-84.18
217.892,867.176,-85.888
145.18,845.216,-40.016
38.796,823.5,8.54
-14.396,791.536,18.788
123.708,769.576,-39.528
216.184,776.652,-91.5
318.664,759.816,-150.304
322.08,720.776,-184.952
244.488,720.044,-179.828
246.44,715.652,-255.712
505.08,553.88,-414.312
787.144,307.44,-381.372
972.828,294.996,-391.62
993.324,-39.04,-150.792
1024.312,-93.452,104.432
1122.644,-118.584,11.712
1470.344,-133.224,-304.756
1321.504,-169.58,-132.492
1284.416,-169.092,-35.624
1248.792,-259.128,-19.52
1231.468,-328.18,143.96
1314.672,-418.216,176.412
1325.652,-389.18,128.344
1410.32,-441.884,135.42
1569.652,-442.128,37.576
1538.664,-476.044,87.596
1620.404,-544.852,198.616
1799.744,-613.904,244.732
1994.456,-644.892,214.964
2204.54,-743.956,171.532
2378.024,-945.5,342.332
2322.392,-1023.336,384.056
2055.944,-1032.364,338.916
1913.692,-1054.568,341.356
1709.464,-1088.484,291.336
1118.496,-1006.988,311.832
637.328,-793.244,115.168
288.408,-524.112,-161.772
35.624,-265.228,-304.268
-77.836,-83.448,-368.684
-162.504,19.52,-273.036
-268.888,122.732,-239.608
-224.236,164.456,-181.78
-100.284,200.812,-175.192
26.84,229.848,-235.948
85.888,251.808,-275.232
247.172,328.912,-432.368
413.336,369.416,-559.248
705.648,358.436,-741.272
908.168,374.296,-1057.252
772.016,365.756,-1038.708
639.524,385.764,-1021.872
495.808,359.9,-956.48
359.412,264.984,-675.148
277.916,235.948,-540.216
211.06,193.492,-380.396
112.484,183.732,-132.492
142.984,137.616,145.912
276.696,91.012,282.308
457.988,29.524,332.084
593.896,-47.336,459.208
792.512,-100.528,586.576
930.128,-167.384,726.876
1059.936,-244.732,808.86
1231.712,-336.232,869.128
1354.444,-371.124,940.376
1380.796,-374.296,886.94
1415.932,-427.976,843.264
1630.408,-514.84,879.62
1766.072,-533.628,762.5
1570.628,-550.952,661.484
1430.816,-564.128,595.604
1650.416,-558.516,373.564
1751.432,-528.016,201.056
1782.176,-455.548,21.472
1661.152,-421.632,-94.672
1264.164,-356.972,-213.256
851.072,-96.624,-504.592
941.352,81.252,-690.52
1169.248,105.164,-662.46
1179.74,72.712,-462.624
997.228,62.464,-285.48
870.104,96.868,-178.608
986.492,108.824,-216.428
1006.744,117.364,-158.112
988.444,52.948,-10.248
980.392,-7.808,132.248
1015.284,-14.396,136.152
974.048,2.928,146.644
981.856,3.904,156.892
1008.696,-34.16,229.604
1017.724,-63.196,294.264
966.972,-64.172,321.836
929.152,-27.084,255.224
964.776,-27.572,265.96
997.716,-54.412,290.36
1041.88,-23.424,258.152
1009.672,5.368,205.204
994.3,-30.988,246.928
971.364,-46.848,278.648
999.424,4.148,215.696
1043.588,-9.028,201.3
1040.904,-20.984,259.372
1047.736,-3.66,236.68
1018.7,9.272,216.184
989.908,9.272,258.396
1022.36,7.32,289.384
1072.136,41.724,260.104
1072.868,65.392,231.068
1047.492,110.288,201.3
1030.168,122.0,150.06
993.08,142.496,156.892
992.104,165.92,202.764
994.3,184.708,230.58
998.448,225.456,200.568
1004.06,250.588,152.256
944.524,258.152,151.28
1005.768,225.456,133.712
1001.376,273.036,127.612
966.728,356.24,101.504
990.152,354.532,163.48
935.74,349.164,203.008
877.668,381.616,149.816
845.948,461.404,86.62
862.54,500.2,47.092
875.716,476.044,110.288
898.408,513.376,161.528
908.412,561.932,125.172
811.788,588.528,146.4
765.916,611.952,135.908
792.268,642.208,111.02
812.032,682.468,112.972
708.088,678.32,151.524
636.352,727.12,118.34
697.108,820.572,-17.568
521.672,866.444,-35.868
340.868,826.916,110.044
387.228,803.98,167.14
503.86,772.992,79.056
354.044,845.948,91.012
228.872,860.588,75.396
101.26,936.472,12.444
22.204,955.504,-23.912
57.096,990.152,9.76
165.676,1007.476,-14.884
125.66,978.196,18.788
111.264,967.216,58.56
59.536,1008.94,30.256
-22.448,1035.536,-29.28
5.856,1013.82,3.172
95.404,989.908,28.304
91.012,1019.432,-44.896
35.38,1039.44,-92.232
8.784,1032.364,-48.068
15.616,1012.844,0.244
52.216,970.876,15.372
91.012,970.632,-8.784
47.336,992.836,-13.664
20.008,985.028,-0.976
42.7,993.568,-21.96
19.032,991.128,-36.6
42.456,993.568,-42.212
80.764,1015.772,-58.56
27.816,1019.432,-44.164
5.612,997.716,-6.832
10.004,991.372,3.904
11.224,977.708,-11.712
41.48,989.664,-26.84
72.224,986.492,-10.004
49.044,975.024,2.684
-10.004,967.704,9.272
-29.28,958.432,3.904
44.408,980.636,-16.104
81.984,1021.384,-48.8
24.156,1007.72,-25.132
-22.692,973.56,10.248
-27.816,959.408,29.036
36.844,980.88,-8.296
89.792,1023.336,-61.488
42.456,1007.964,-40.016
-0.976,985.76,-12.2
-21.472,978.44,2.196
6.832,972.584,13.664
54.9,984.784,-1.952
65.88,1015.04,-43.92
27.084,1018.944,-35.868
0.976,984.54,6.1
3.66,953.552,36.844
25.62,956.236,0.0
78.812,986.248,-35.136
39.284,999.668,-40.26
-27.572,998.204,-44.896
-63.684,995.764,-40.748
-10.004,976.0,-5.856
40.26,986.736,-29.036
72.956,1026.996,-81.74
29.036,1015.04,-32.94
-14.64,982.588,-13.176
-25.62,969.9,-31.476
-9.028,966.728,-13.42
18.788,976.488,-8.296
21.228,988.688,-30.012
1.708,982.344,-41.968
-1.464,994.056,-44.652
3.416,997.96,-64.416
-5.124,999.668,-69.784
-9.516,968.924,-17.812
-17.324,948.916,3.66
0.976,966.972,-22.936
8.052,956.968,-13.176
33.916,944.768,1.464
-0.976,926.224,15.128
0.732,915.0,9.028
-10.98,922.808,13.176
-12.932,913.048,-2.684
-60.512,908.9,-8.296
-2.684,920.612,-49.776
11.956,932.568,-54.9
-14.152,928.908,-35.38
-55.876,918.416,-17.812
-47.58,903.288,-17.812
-18.3,899.628,-16.104
-0.976,893.772,-3.904
18.544,878.156,11.956
10.248,872.056,27.572
-3.904,883.768,3.172
1.708,901.092,-32.208
-8.296,875.96,-31.476
38.064,872.3,-67.832
16.592,822.768,-9.516
0.976,783.484,21.228
-6.832,779.336,9.516
14.64,846.192,-51.484
136.152,950.868,-129.32
115.412,994.3,-155.672
12.2,969.9,-145.912
-11.468,953.796,-141.276
8.052,915.732,-64.66
93.452,934.52,-90.524
175.924,971.852,-143.228
152.012,1020.652,-117.12
117.608,1044.076,-95.404
156.892,1087.264,-124.928
195.444,1098.244,-176.412
147.62,1065.304,-108.336
222.528,1125.328,-152.256
252.052,1194.38,-208.376
217.892,1188.036,-177.144
230.336,1160.464,-126.392
272.548,1195.6,-161.528
221.308,1218.292,-146.644
232.776,1231.956,-170.8
266.692,1246.352,-213.256
254.492,1231.712,-174.46
288.896,1193.404,-159.332
286.944,1135.332,-136.396
247.172,1059.936,-89.792
242.78,1008.208,-86.864
250.832,975.756,-99.796
279.868,947.452,-112.972
207.4,891.576,-75.396
147.864,848.144,-50.508
141.52,847.9,-53.68
149.572,847.168,-69.296
234.484,824.964,-82.96
151.524,750.788,-21.96
81.252,720.288,4.148
194.224,761.768,-121.024
352.58,796.416,-219.356
400.16,731.024,-267.424
504.592,614.88,-249.124
440.664,757.132,-240.584
182.024,654.652,-132.736
442.86,354.776,-194.468
662.46,34.648,-129.564
942.572,-253.516,80.276
1108.736,-374.296,132.98
1331.996,-298.9,-247.416
1785.592,-283.04,-401.624
1737.036,-122.488,-482.144
1378.6,-240.584,-152.012
1142.408,-227.408,113.46
907.436,-280.6,182.268
993.324,-406.016,253.272
1277.584,-416.02,21.472
1383.236,-440.42,-36.6
1444.48,-509.716,105.896
1519.144,-549.732,103.212
1553.548,-544.852,150.548
1876.848,-589.504,7.808
2145.492,-719.068,122.0
2296.284,-893.772,251.808
2399.74,-986.98,252.296
2424.628,-1054.568,238.144
2195.268,-1138.992,320.616
1700.436,-1143.872,437.98
1220.976,-1052.86,480.68
885.232,-864.248,293.532
652.456,-679.052,83.936
247.66,-394.548,-194.956
-38.796,-166.896,-309.636
-39.528,-104.92,-257.908
-152.5,-41.724,-109.8
-398.208,109.8,-44.896
-307.684,200.08,-49.288
-185.928,243.024,-64.904
-56.12,304.756,-149.084
56.364,376.248,-223.992
194.468,392.84,-260.104
491.172,347.212,-334.036
773.724,315.004,-467.016
993.812,300.12,-618.784
1162.172,271.572,-768.356
1276.12,242.536,-951.356
1109.224,292.556,-1022.848
965.752,271.328,-935.984
800.564,240.34,-886.94
627.568,199.836,-754.204
383.568,189.1,-651.48
262.544,192.028,-540.704
106.14,173.972,-177.388
78.08,138.592,120.78
180.56,104.188,197.152
265.716,62.952,313.54
506.056,-35.136,570.228
702.232,-148.596,825.696
821.792,-197.152,870.348
1016.748,-319.64,1046.516
1232.444,-449.448,1404.708
1263.432,-488.732,1498.648
1319.552,-514.352,1415.932
1555.744,-572.18,1316.38
1732.888,-591.212,1111.42
1602.836,-624.396,929.152
1500.6,-618.784,727.608
1629.92,-611.708,490.928
1767.048,-616.832,184.464
1605.764,-596.824,54.412
1315.16,-548.512,-98.82
1447.408,-378.2,-414.556
1392.264,-301.584,-602.436
1245.864,-120.536,-749.08
1197.796,-15.372,-907.436
1115.324,11.956,-839.36
1095.56,-55.144,-567.788
964.044,-80.764,-358.436
909.388,-89.792,-183.732
930.372,-26.352,-237.412
943.06,-9.028,-200.324
981.124,-35.624,-69.052
978.44,-71.004,43.188
946.232,-59.536,64.904
975.268,-46.116,71.98
984.296,-62.952,116.388
1005.036,-71.98,168.604
1033.34,-75.884,193.492
1073.112,-66.368,226.188
1116.3,-54.168,261.08
1133.624,-93.452,299.144
1063.84,-110.044,252.784
972.34,4.148,104.432
1003.084,100.528,69.052
1143.14,111.752,138.104
1237.812,86.132,197.884
1124.108,106.628,148.108
933.3,151.28,39.04
773.968,247.66,10.004
885.72,266.692,51.24
1031.876,323.3,98.332
922.32,274.256,247.416
785.436,245.464,251.076
912.316,370.392,2.928
945.988,491.904,-142.252
929.884,498.004,-87.84
868.884,505.812,2.684
821.304,502.64,82.716
806.42,537.044,121.756
940.376,628.3,-16.348
930.128,698.084,-105.896
868.64,723.948,-137.128
777.384,712.236,-79.544
532.408,693.692,77.836
455.548,702.232,135.908
472.872,758.352,92.72
491.416,816.912,62.464
564.372,836.188,-18.3
406.016,819.352,15.372
338.428,886.452,-31.964
184.952,976.976,-113.216
89.792,983.808,-92.72
199.348,972.828,-114.192
292.068,969.412,-147.62
234.484,1044.076,-180.56
45.872,1098.0,-171.044
1.708,1060.668,-147.62
80.52,993.568,-147.864
87.596,984.54,-127.368
111.508,1002.352,-91.988
24.644,1002.596,-47.092
-43.92,978.196,-41.968
-10.98,956.236,-55.388
8.296,974.048,-53.192
34.404,1009.916,-67.1
-18.544,1006.988,-40.992
-30.5,970.144,-30.012
-72.468,939.4,-37.576
-72.712,945.012,-80.032
-133.956,967.46,-68.32
-134.2,1002.84,-110.776
-168.848,988.444,-122.976
-130.54,976.732,-105.652
-124.928,968.436,-76.616
-90.28,962.336,-39.04
-89.06,933.3,-2.928
-78.08,940.62,-3.66
-84.18,974.292,-50.508
-88.084,1005.28,-81.008
-66.856,1000.4,-70.028
-91.744,978.196,-52.216
-119.072,961.604,-44.896
-95.16,976.244,-29.28
-61.0,998.936,-53.436
-52.216,1000.4,-78.08
-76.372,999.18,-73.932
-113.46,983.808,-48.8
-107.36,970.632,-43.188
-74.664,963.8,-39.772
-29.036,980.148,-56.12
-80.52,988.688,-54.9
-95.892,988.2,-55.876
-75.152,984.784,-47.824
-80.764,981.368,-34.404
-66.612,965.02,-35.38
-81.984,979.172,-68.808
-98.576,981.856,-69.052
-99.552,978.684,-40.748
-84.668,973.56,-44.408
-63.928,990.396,-59.78
-79.544,970.632,-44.164
-107.36,984.54,-30.256
-98.332,981.124,-42.7
-59.292,980.148,-34.648
-55.876,964.288,-19.276
-103.944,960.628,-20.496
-105.896,969.656,-36.356
-101.504,960.628,-20.74
-110.532,962.824,-21.228
-88.816,957.212,-26.84
-91.012,950.868,-25.864
-92.72,974.048,-31.964
-94.428,985.76,-28.304
-98.82,962.092,-19.032
-98.576,933.056,-10.004
-92.232,925.736,-14.884
-63.684,935.496,-17.324
-50.02,945.256,-24.888
-88.572,935.252,-19.276
-92.72,931.104,-25.376
-112.972,926.224,-42.944
-151.768,923.052,-49.532
-138.836,915.488,-56.12
-105.408,915.976,-56.12
-71.248,895.48,-30.988
-64.416,885.964,-36.6
-101.26,877.668,-39.528
-120.536,870.836,-63.44
-134.932,891.332,-86.376
-122.0,882.548,-65.636
-104.188,870.592,-34.648
-38.308,885.476,-45.14
-65.636,895.724,-5.612
-67.344,903.532,1.22
-18.788,933.544,-44.896
-28.06,950.868,-58.316
-43.188,952.088,-43.432
-16.348,955.504,-31.964
-7.808,977.22,-53.436
-3.172,983.076,-58.316
-17.812,971.364,-31.964
-13.42,962.336,-48.8
10.248,981.368,-98.332
-6.588,950.624,-90.768
-19.276,903.288,-67.832
14.64,925.98,-76.86
40.992,945.012,-88.328
40.504,957.212,-115.9
54.412,945.5,-116.876
37.332,939.888,-91.744
49.532,969.412,-96.136
45.628,1014.064,-124.44
69.296,1089.46,-187.148
48.312,1153.388,-218.38
68.564,1207.068,-253.272
80.764,1193.16,-242.048
71.004,1188.036,-218.624
112.484,1209.996,-242.536
127.612,1226.1,-259.86
91.988,1195.844,-250.832
89.304,1127.036,-221.064
140.3,1079.944,-192.272
175.192,1071.404,-188.124
154.452,1068.964,-196.176
101.26,1044.076,-189.588
110.288,1014.796,-181.292
159.332,1018.456,-203.008
142.984,1014.796,-192.76
119.316,986.492,-170.8
122.732,956.968,-157.868
111.996,942.084,-142.252
149.084,966.728,-182.268
223.016,951.112,-204.716
109.8,921.1,-133.956
65.148,904.996,-131.516
-43.432,906.216,-107.604
122.976,935.252,-218.624
474.58,973.56,-394.304
366.488,983.564,-330.864
223.016,967.704,-254.736
49.044,931.104,-123.464
-74.908,804.712,49.044
17.324,743.224,30.256
477.02,593.652,-206.912
741.272,454.816,-299.388
557.784,426.024,-171.044
742.248,440.908,-344.528
782.752,158.844,-120.78
740.296,15.86,-16.592
1092.632,-141.52,-115.9
1554.036,-87.352,-468.48
1358.348,44.164,-361.12
1159.488,3.904,-138.836
916.22,29.28,-76.86
831.552,-75.396,25.864
1070.428,-167.872,-21.472
1200.724,-186.172,-38.308
1242.204,-226.188,-9.516
1114.104,-205.204,4.636
1083.36,-188.856,-32.94
1165.588,-227.408,-37.576
1303.692,-253.272,-13.664
1379.82,-278.648,-30.988
1439.844,-304.024,-19.032
1534.028,-282.064,-46.36
1865.868,-329.644,-130.784
2049.356,-429.44,30.744
2227.476,-502.396,95.892
2482.212,-624.884,1.708
2499.78,-752.984,66.124
2249.924,-821.304,132.248
1920.036,-853.268,254.492
1762.9,-814.472,181.048
1480.104,-761.768,35.136
1006.256,-702.476,98.088
700.28,-572.424,43.676
473.116,-425.048,-41.236
236.192,-245.952,-172.02
-5.124,-81.008,-238.876
-107.36,15.372,-257.176
-155.428,100.772,-231.068
-194.468,191.784,-209.596
-232.044,251.564,-167.14
-246.928,317.444,-160.552
-90.036,371.368,-227.896
87.596,410.408,-345.992
273.768,422.608,-442.86
523.624,411.384,-546.072
658.556,448.716,-795.44
775.188,514.84,-1103.856
895.48,502.396,-1254.404
906.948,456.524,-1214.876
735.66,381.616,-1044.564
553.392,298.412,-888.16
400.648,235.704,-694.912
289.384,233.264,-420.168
124.196,194.224,-82.716
72.224,163.968,88.328
114.436,188.124,108.824
235.704,144.936,214.232
489.708,5.368,436.76
766.892,-94.184,606.34
1009.184,-168.36,736.636
1006.988,-233.752,938.668
1144.604,-368.196,1135.332
1470.344,-376.736,1099.952
1603.324,-419.436,1098.732
1511.58,-486.292,1122.4
1532.808,-548.756,964.288
1596.004,-566.324,880.352
1768.268,-609.756,597.8
1756.556,-550.22,311.588
1474.98,-508.984,199.592
1416.908,-518.256,179.584
1578.68,-409.676,-239.852
1704.34,-237.412,-676.124
1731.912,-55.388,-882.06
1534.516,4.148,-837.896
1226.1,46.36,-653.92
1180.228,74.42,-611.464
1186.328,194.712,-769.332
1071.892,206.18,-686.128
868.884,88.328,-338.184
908.9,19.276,-142.008
1019.676,-42.944,16.836
1002.84,-1.22,56.608
907.436,93.94,-61.0
872.544,100.04,-40.016
921.832,40.504,89.548
921.588,51.972,116.388
994.544,19.276,169.092
1092.876,-5.856,194.956
1162.416,47.58,134.932
1154.12,84.18,122.732
1098.732,65.392,133.712
1038.22,61.488,171.776
1066.768,67.588,205.448
1079.456,135.176,135.664
999.668,208.376,89.792
942.084,206.912,144.448
990.396,161.284,210.572
1064.084,214.476,224.724
1074.332,259.372,174.46
939.644,334.768,115.412
898.896,388.936,67.344
855.708,465.308,56.608
803.492,450.912,162.504
863.76,453.84,181.292
937.204,455.06,160.552
930.372,488.488,163.968
838.872,512.888,190.076
695.4,550.708,204.472
665.144,662.948,58.56
691.496,730.292,-35.868
670.756,745.664,-4.636
659.288,734.44,41.236
719.556,762.012,19.276
697.108,814.472,-11.712
530.944,819.108,43.188
481.9,820.084,38.064
488.976,838.384,0.0
444.08,856.196,-8.54
402.844,872.544,9.028
352.336,831.796,67.1
304.756,825.94,85.644
282.796,951.844,-86.864
235.216,974.292,-143.96
333.548,958.676,-160.064
316.712,966.484,-140.3
220.332,990.884,-131.76
159.82,994.788,-95.892
208.62,967.948,-72.224
190.564,951.112,-99.308
211.304,945.5,-126.392
185.684,966.972,-117.12
152.988,1010.404,-129.564
125.66,1000.888,-111.508
102.968,987.956,-82.716
80.52,965.996,-90.28
86.62,962.092,-124.196
56.364,987.224,-114.68
-6.588,1027.972,-117.364
-1.464,992.348,-116.632
-25.376,961.36,-87.108
45.872,982.588,-127.612
51.972,1029.436,-162.748
0.488,1028.216,-125.904
29.28,985.272,-86.864
52.216,976.488,-81.252
22.448,971.608,-58.804
34.892,986.248,-98.82
84.424,991.128,-126.148
78.08,1005.28,-125.904
36.356,1022.116,-142.008
27.084,984.54,-100.772
-7.076,941.596,-46.36
60.268,980.148,-105.896
52.704,1022.848,-130.052
79.056,1034.072,-135.42
40.748,1013.332,-107.116
15.86,975.024,-69.784
3.66,939.4,-22.448
70.76,928.664,-50.02
115.656,963.068,-105.896
38.552,994.544,-96.868
9.76,983.808,-65.636
12.444,982.344,-91.744
40.748,983.564,-109.556
68.076,999.912,-113.948
58.56,1012.6,-116.388
32.452,996.984,-95.648
49.288,970.632,-66.612
62.22,966.728,-70.272
89.792,983.32,-99.796
50.996,986.248,-85.4
10.248,979.904,-74.908
7.32,980.88,-89.548
-0.976,971.364,-93.208
40.26,980.148,-123.22
64.172,1007.232,-150.06
36.844,1005.524,-120.536
42.456,967.704,-82.228
33.916,965.752,-82.228
44.896,980.392,-87.84
64.416,998.448,-106.872
34.892,992.836,-105.408
9.272,965.508,-67.344
18.056,963.556,-84.912
17.324,981.368,-78.08
67.1,1011.624,-98.82
34.404,999.912,-90.524
16.104,989.908,-94.184
6.344,971.12,-82.228
25.376,971.12,-81.252
54.656,983.564,-85.156
33.672,989.908,-81.496
12.2,990.884,-89.548
0.732,986.248,-78.08
45.628,992.104,-87.108
91.5,1003.328,-110.532
37.332,976.976,-69.296
-6.588,942.084,-40.504
1.708,953.064,-70.028
26.596,983.808,-103.7
42.7,986.004,-90.524
38.308,965.996,-69.296
0.976,939.156,-46.116
-17.568,938.18,-64.66
14.64,953.064,-88.816
19.52,975.756,-102.968
16.836,968.68,-103.944
4.636,942.572,-82.472
29.768,927.2,-81.008
21.472,923.54,-76.616
27.084,925.98,-78.08
26.596,925.248,-86.864
-9.272,909.388,-79.544
-8.052,893.284,-64.172
21.96,893.528,-64.172
49.532,920.856,-86.132
49.288,940.376,-113.46
19.032,931.104,-98.332
-1.952,909.632,-60.268
26.84,900.604,-49.776
60.024,909.876,-78.08
73.932,925.492,-98.576
57.096,929.884,-98.088
26.352,915.0,-94.672
28.304,885.232,-63.928
82.716,868.152,-67.1
117.12,880.108,-81.008
101.504,920.124,-100.772
93.452,959.164,-146.888
88.084,953.552,-131.272
84.912,921.832,-118.34
141.52,894.016,-120.048
165.92,879.62,-99.796
172.508,884.744,-121.268
202.032,905.24,-149.084
111.996,916.22,-169.824
37.332,904.508,-166.896
119.316,931.592,-203.984
146.644,975.756,-213.5
175.192,972.096,-191.54
230.092,976.488,-207.4
191.052,1008.94,-209.108
172.508,996.008,-166.408
245.464,993.324,-151.768
301.096,1027.972,-201.056
245.22,1059.936,-239.608
232.532,1062.132,-257.176
263.764,1033.828,-224.236
308.904,985.272,-150.06
299.144,997.96,-124.684
303.048,1058.716,-197.152
282.064,1131.184,-269.864
329.888,1169.736,-312.076
339.16,1155.584,-299.876
336.72,1104.588,-236.924
348.188,1064.328,-204.472
345.504,1066.28,-220.332
354.532,1070.916,-243.512
345.26,1040.416,-239.608
342.576,993.08,-216.916
349.164,950.38,-205.448
345.504,923.052,-196.176
330.62,906.46,-211.304
284.504,886.208,-201.788
345.748,873.032,-225.456
283.772,858.636,-193.736
251.32,842.044,-197.64
251.564,817.644,-192.028
217.892,802.516,-152.744
258.64,803.98,-171.532
340.38,834.724,-262.788
310.612,816.424,-268.644
222.528,783.972,-199.592
73.444,809.348,-194.468
178.852,691.252,-231.556
326.716,561.688,-231.068
419.68,490.684,-241.072
592.432,396.256,-332.572
785.924,277.916,-363.316
834.724,244.488,-330.62
851.316,155.672,-245.464
968.436,61.244,-242.536
857.66,-80.764,-143.716
1137.284,-199.104,-183.732
1477.42,-157.868,-303.048
1568.188,-234.484,-272.548
1483.764,-294.264,-107.848
1540.616,-372.344,-146.156
1804.624,-344.528,-302.072
1948.584,-374.784,-389.18
2083.76,-465.064,-357.704
2252.852,-530.456,-441.64
2293.112,-612.44,-433.832
2216.496,-715.652,-360.388
2316.048,-809.836,-288.408
2350.452,-972.584,-183.0
2246.02,-994.3,-301.828
1964.2,-1084.824,-206.424
1659.444,-1050.176,-56.364
1324.432,-985.76,-38.064
893.528,-876.692,-61.976
618.54,-762.744,-124.44
277.184,-566.08,-195.2
-93.94,-326.716,-300.852
-298.412,-182.512,-209.108
-257.176,-66.612,-178.852
-25.62,-66.856,-197.884
43.676,-31.72,-339.648
-132.98,107.36,-521.428
-315.004,219.6,-592.676
-295.728,330.864,-746.396
-42.456,374.296,-887.916
103.212,416.996,-1077.748
51.728,451.156,-1128.012
-143.716,412.604,-998.448
-312.808,384.544,-795.684
-299.632,308.66,-599.508
-156.892,234.24,-323.3
-78.812,182.024,-116.388
-159.332,206.912,-39.528
-179.34,167.872,113.704
125.416,-5.856,325.496
513.62,-111.752,396.012
809.348,-226.676,429.196
1063.596,-330.864,543.144
1157.78,-439.688,727.608
1324.92,-523.624,815.936
1538.42,-553.392,849.608
1768.268,-623.664,924.76
1946.144,-664.9,963.8
1934.188,-697.352,981.856
1908.08,-719.312,879.376
2017.148,-674.904,619.272
1903.932,-607.804,396.744
1673.84,-610.244,347.944
1708.244,-647.332,291.824
1830.976,-668.804,38.552
1785.348,-484.584,-304.756
1470.344,-402.112,-349.896
1213.9,-359.412,-288.652
1230.736,-253.516,-489.708
1345.172,-83.204,-712.236
1186.572,25.62,-804.224
1006.256,-0.732,-616.588
916.952,-30.5,-417.24
737.368,94.428,-530.456
739.808,156.648,-579.256
851.316,71.98,-381.616
942.328,-15.372,-125.416
892.796,-50.02,-24.4
883.768,-60.512,4.148
968.68,-40.26,5.368
1007.964,58.316,-137.372
1047.736,82.716,-164.7
1082.384,7.076,13.908
1109.712,-61.488,156.404
1044.808,-54.656,160.308
974.78,-20.74,166.164
988.444,-27.572,233.996
1051.152,-28.548,252.296
1111.908,31.476,107.116
1067.5,59.048,37.82
1058.228,85.4,71.492
1129.476,98.576,93.94
1090.68,126.88,24.156
938.668,164.212,38.308
930.372,146.156,121.024
1028.216,169.336,150.792
1075.308,220.576,90.28
1029.436,181.536,93.696
956.236,192.272,97.6
821.548,245.952,71.98
831.552,346.724,20.008
878.4,409.92,-28.06
922.564,412.36,23.668
958.432,470.188,10.492
885.476,461.648,28.304
837.164,520.452,-6.1
833.992,585.6,-94.672
817.888,627.812,-108.58
816.668,677.588,-110.288
833.016,778.604,-173.24
817.888,803.004,-225.456
652.944,768.356,-95.648
563.64,765.184,-32.94
610.732,833.992,-60.268
598.532,828.624,-95.892
563.152,846.68,-102.724
504.592,870.836,-103.212
339.892,836.188,10.98
438.224,881.816,18.544
369.66,890.844,-45.384
239.608,895.724,-85.644
308.416,972.828,-140.788
393.084,1081.164,-183.488
330.62,947.94,-93.208
203.008,933.056,-1.952
137.86,920.368,-51.484
133.224,918.416,-51.972
136.884,930.86,-11.712
158.112,989.42,-58.56
75.396,1001.132,-108.824
25.864,992.104,-77.104
53.192,974.292,1.708
134.932,988.444,-14.396
116.876,991.616,-21.472
90.28,972.34,0.0
84.424,981.124,-19.52
44.896,984.784,-31.964
103.944,991.128,-30.256
141.032,988.688,-3.904
67.588,960.872,17.324
34.648,930.86,39.04
25.62,941.108,46.36
62.464,960.14,-0.976
100.284,989.908,-46.36
83.692,1018.7,-24.4
53.924,1013.82,-11.224
39.528,977.952,0.732
75.64,974.536,17.568
80.52,996.984,-9.516
71.736,1010.892,-15.86
64.66,983.808,10.736
63.928,975.756,29.28
87.84,986.736,20.252
88.572,992.348,-18.3
70.272,991.372,8.296
46.848,982.1,16.104
74.176,981.124,3.172
113.948,989.908,-1.708
85.4,1006.744,-2.196
53.924,970.876,14.152
38.552,989.908,-0.244
73.444,1013.332,-40.504
108.092,1022.36,-47.58
80.276,988.444,-22.448
40.016,950.136,22.448
31.476,946.232,13.42
71.248,973.56,12.444
101.748,998.448,-6.832
59.78,993.568,-13.176
58.072,992.104,-20.496
49.776,1000.4,-12.932
51.972,1009.428,-20.252
71.004,992.836,-18.3
56.852,972.34,-7.808
33.672,985.272,-2.44
48.312,1001.864,-22.204
48.068,994.056,-8.54
69.54,986.492,-10.004
43.188,985.516,-8.784
25.132,988.932,-34.404
46.848,995.276,-39.772
67.1,1006.988,-35.868
48.068,1005.524,-15.86
31.232,982.344,-8.296
32.696,972.584,-7.076
68.076,1002.596,-33.184
67.344,1016.748,-32.452
45.384,991.616,-6.832
24.4,964.288,-3.172
14.396,965.996,-2.44
35.136,977.708,-9.028
79.3,1003.084,-27.816
91.256,1012.6,-50.264
34.404,971.12,-9.028
10.98,952.576,3.416
7.564,953.308,-19.032
45.628,977.708,-36.844
114.436,996.008,-64.172
57.096,963.312,-19.032
2.196,950.38,-1.708
8.54,965.508,-17.08
52.948,990.396,-31.72
85.888,994.056,-24.888
83.204,975.268,-7.076
71.004,972.096,-20.984
49.776,977.952,-10.98
72.224,987.468,-10.492
103.212,1019.92,-18.788
91.256,1026.508,-34.16
42.456,1003.084,-19.276
38.552,996.984,-17.08
30.5,1004.792,-44.164
37.332,1010.404,-67.344
34.648,1000.4,-42.212
40.748,999.668,-47.824
63.44,1013.576,-51.484
71.492,993.324,-33.672
57.34,980.392,-18.3
59.536,991.128,-40.504
78.324,997.228,-43.432
107.116,1009.428,-37.088
63.684,982.1,-12.2
53.192,958.676,3.904
66.124,962.58,-0.488
81.252,1006.744,-48.8
69.54,999.668,-70.516
37.82,1001.376,-88.084
31.232,999.18,-62.708
64.172,981.612,-36.6
55.388,966.972,-2.196
55.876,968.68,14.396
99.308,1012.112,-20.74
170.312,994.3,-69.784
192.516,926.224,-54.656
224.236,909.632,-54.9
123.708,879.864,32.452
98.088,994.788,-10.736
56.12,877.912,-124.196
96.136,718.336,-133.224
328.912,778.848,-187.392
504.836,781.044,-259.372
418.704,690.52,-136.64
559.004,619.516,-254.248
600.24,380.152,-152.5
915.732,277.672,-219.112
1180.228,172.264,-211.304
1185.108,113.948,-12.688
1157.78,192.76,-105.164
1301.252,164.944,-275.964
1156.56,59.78,-160.308
1098.732,53.924,-53.68
1149.972,-1.22,-48.556
1134.356,-83.204,-17.08
1174.616,-83.936,-20.252
1358.348,-93.696,-96.38
1371.524,-114.436,-47.092
1500.356,-162.748,39.772
1785.836,-251.564,-40.26
2160.864,-385.764,-85.644
2201.612,-468.968,38.552
1932.968,-500.932,181.536
1780.224,-499.224,274.012
1811.944,-521.184,189.1
1644.56,-430.172,71.492
1283.928,-370.88,78.08
1072.868,-265.716,-41.968
928.908,-286.212,41.724
762.744,-196.176,58.072
514.108,-85.4,-61.732
161.04,104.432,-183.244
42.212,240.828,-304.756
112.24,318.176,-308.172
237.656,360.388,-353.312
126.636,391.376,-384.3
180.804,375.028,-389.668
447.252,332.572,-422.852
565.592,402.356,-589.26
694.18,428.22,-716.384
800.808,419.924,-816.668
916.708,420.168,-942.328
870.348,424.316,-1098.976
721.996,417.24,-1007.476
538.996,337.452,-707.356
418.46,333.06,-556.564
223.748,381.128,-418.948
163.48,389.912,-243.268
347.212,316.956,-138.104
474.336,276.696,-79.544
417.728,248.636,58.804
384.788,212.524,235.216
448.716,190.808,334.768
571.204,135.664,459.208
723.948,72.956,547.292
894.992,-8.052,613.416
1012.356,-53.68,653.92
1038.464,-69.052,678.32
1039.44,-89.304,730.536
1159.976,-200.812,823.744
1404.952,-278.648,788.852
1517.68,-291.092,707.6
1499.136,-338.184,670.756
1594.784,-375.516,605.608
1617.72,-349.652,499.956
1624.308,-392.108,470.188
1545.252,-414.8,352.336
1426.668,-390.644,295.728
1410.564,-391.376,193.248
1516.704,-374.784,-33.672
1516.948,-274.744,-293.044
1363.472,-191.296,-316.224
1063.352,-164.456,-215.208
911.828,-99.552,-224.236
1170.712,-26.108,-376.98
1162.904,72.224,-540.704
1083.604,157.624,-579.988
857.172,197.396,-528.26
743.468,208.864,-408.7
776.408,198.86,-328.424
910.364,278.16,-481.168
974.048,265.96,-392.84
984.784,158.6,-142.252
1067.988,57.34,44.896
1014.308,35.868,144.204
901.58,114.68,51.972
842.288,174.216,-23.912
920.856,160.796,76.616
1015.772,143.716,166.652
1015.772,162.992,114.436
1062.132,160.796,58.56
1101.66,161.528,68.076
1103.612,159.088,149.816
1087.264,152.256,239.364
1060.912,149.572,291.824
1049.2,196.176,183.0
1033.34,231.556,36.112
934.032,241.804,85.644
960.872,218.38,193.004
1038.464,233.264,235.46
1057.984,291.092,153.476
944.768,330.864,119.316
910.364,321.836,139.324
945.012,315.248,167.384
997.472,401.136,115.168
967.216,403.82,101.504
882.06,423.34,139.812
872.544,466.284,175.192
877.424,480.192,181.048
843.996,432.124,241.804
843.752,457.012,250.344
810.812,534.848,233.264
798.856,583.892,193.492
717.36,577.792,223.016
720.532,624.64,217.404
760.548,675.636,163.48
749.324,680.028,141.764
718.336,685.64,203.74
713.7,690.032,230.824
685.152,721.996,189.588
584.624,730.048,164.944
554.368,749.324,178.608
652.7,782.02,128.832
674.904,783.24,157.624
611.22,835.944,161.04
556.564,851.316,83.936
530.456,846.68,78.568
483.364,821.548,147.62
525.576,866.932,126.148
503.616,885.72,62.464
472.384,895.48,50.508
502.884,923.296,38.064
487.024,951.356,66.612
434.564,921.832,114.192
366.244,925.492,65.88
323.544,925.492,60.024
345.26,898.408,110.044
392.352,955.016,76.372
285.48,952.088,37.82
207.644,894.992,76.128
253.516,884.988,135.664
284.26,953.796,90.524
228.872,1004.304,-2.44
177.876,968.192,50.752
173.484,952.088,66.368
152.5,1004.548,-14.884
135.664,991.616,-22.936
121.268,971.608,47.092
108.824,957.7,45.872
102.968,976.732,4.392
97.112,996.984,-9.516
103.212,978.196,53.192
130.052,970.876,58.072
-0.976,986.736,24.644
-17.568,952.82,64.172
70.76,968.192,55.144
36.112,1000.644,16.592
2.684,991.128,23.424
-0.976,975.024,44.896
54.412,1003.572,-2.684
-1.22,986.98,32.452
-14.64,994.788,42.212
47.092,1037.732,-19.52
54.168,1042.612,-16.104
-5.368,992.592,49.776
-15.616,985.028,51.484
7.564,986.492,-10.004
33.672,989.908,10.492
69.052,1017.724,16.592
39.528,1019.92,19.032
-46.116,949.16,41.968
-34.16,959.408,35.38
41.968,1019.188,-39.772
5.856,1021.872,-10.248
20.008,1005.28,5.856
-45.628,959.652,39.04
-6.1,983.32,19.032
27.328,1011.38,-2.684
5.368,1012.356,11.224
-2.44,992.348,2.196
-47.336,958.432,49.288
-37.332,964.044,25.864
-17.812,993.568,7.808
53.436,1010.16,-17.568
-2.928,981.124,23.424
-27.328,961.116,22.448
-97.356,945.5,6.588
-57.828,967.216,21.228
4.636,986.736,-2.196
24.4,1013.82,-12.444
-12.688,996.74,5.368
-29.524,996.496,11.956
-28.792,1001.132,5.368
-11.712,990.64,-11.956
-46.604,993.812,-18.3
-20.252,1003.328,-12.2
-11.224,990.64,12.2
-7.808,994.3,-0.244
-10.736,966.728,13.908
-19.764,972.34,28.792
-26.352,1011.38,-15.372
-1.708,1026.02,-25.864
11.956,983.076,17.324
-11.468,953.796,22.448
-96.136,921.344,31.232
-30.744,950.868,-5.124
1.708,979.904,-22.936
8.052,990.64,-4.148
-7.076,965.264,6.1
-48.312,941.352,4.148
-58.56,937.692,17.324
-26.108,922.32,14.64
7.808,952.332,9.76
9.76,953.308,9.76
-10.492,935.008,16.104
-14.884,928.664,25.376
-8.54,904.264,26.352
-42.944,903.288,20.252
-53.924,934.52,-28.792
-30.256,930.372,-10.248
3.416,921.344,11.224
-20.252,919.636,8.54
-59.536,891.088,8.296
-47.824,896.456,-19.032
-50.264,889.624,-18.544
32.94,914.268,-7.32
15.128,928.664,8.296
-31.232,921.344,4.392
-21.228,945.5,8.296
10.248,956.968,-4.88
45.628,970.632,1.464
78.812,953.308,13.908
97.356,931.348,74.908
118.828,901.336,102.48
98.088,858.148,50.752
25.864,860.588,14.396
34.892,936.228,-20.74
117.608,1009.184,-84.424
82.716,1020.896,-54.168
23.668,1012.844,-31.964
48.8,1021.872,-47.336
112.484,1049.932,-52.948
143.472,1098.488,-92.476
95.648,1111.176,-127.124
70.76,1088.728,-91.988
63.684,1082.14,-70.272
121.268,1073.6,-71.248
172.752,1071.892,-79.788
143.228,1095.56,-76.86
105.408,1134.112,-105.164
141.276,1170.956,-133.712
153.476,1138.748,-107.848
188.368,1123.62,-107.604
153.232,1096.78,-114.68
126.636,1072.624,-128.832
126.88,1057.74,-143.228
134.444,1018.944,-129.32
148.84,982.1,-96.136
123.464,933.3,-67.588
147.62,966.484,-108.58
72.224,960.14,-113.46
142.496,982.832,-129.808
225.7,934.764,-105.896
249.124,926.712,-87.596
323.544,938.912,-166.164
390.888,830.088,-102.724
459.208,819.108,-44.896
410.652,820.328,-63.196
396.012,712.48,-100.528
469.456,677.344,-118.584
428.464,717.36,-136.64
419.192,616.344,-162.26
605.852,328.424,-78.812
826.672,365.756,-240.828
858.636,233.02,-196.42
879.376,18.3,-50.752
1131.672,20.74,-58.804
1392.508,6.344,16.104
1412.76,-82.228,193.492
1367.62,-129.076,147.62
1296.372,-67.588,-49.044
1196.576,-94.916,-42.212
1078.48,-184.22,68.32
1186.572,-196.42,80.032
1334.68,-162.992,-55.144
1273.68,-197.884,-10.736
1368.108,-254.004,64.904
1408.124,-238.632,25.376
1560.38,-302.316,66.368
1931.016,-352.58,-1.708
2009.096,-404.552,-43.188
1969.812,-457.744,27.084
1984.208,-511.912,88.328
2039.108,-529.236,57.34
2065.704,-563.152,14.396
1852.448,-601.704,142.496
1556.476,-637.328,290.36
1236.104,-546.316,159.332
867.664,-463.356,130.052
419.68,-260.348,26.596
103.456,-43.92,-140.056
44.896,69.052,-210.572
60.756,101.992,-189.588
15.86,162.016,-245.708
-132.248,250.1,-383.08
-65.148,316.224,-430.172
179.34,371.856,-552.172
397.476,440.176,-706.38
491.172,450.912,-777.14
555.832,488.244,-898.896
672.464,469.7,-973.56
772.992,418.948,-991.86
780.8,422.364,-989.42
620.248,406.504,-925.736
473.604,356.728,-763.232
418.948,331.108,-686.372
282.796,311.832,-569.252
151.768,248.636,-326.716
80.52,164.944,-41.48
123.22,74.908,224.968
154.696,67.588,325.496
241.072,84.424,331.84
541.192,-71.248,582.184
842.776,-204.96,874.984
852.78,-244.976,1002.108
847.9,-288.408,1103.368
1107.516,-341.112,1184.62
1284.66,-355.02,1133.136
1260.992,-360.144,1082.14
1224.636,-387.472,1032.364
1254.892,-407.236,962.336
1339.316,-479.46,845.948
1601.128,-523.136,638.304
1743.136,-616.832,678.808
1794.376,-721.996,708.82
1730.692,-761.768,538.02
1763.876,-767.136,407.48
1956.636,-725.656,132.98
1844.884,-607.316,-255.468
1644.804,-506.788,-498.248
1375.916,-323.544,-820.816
1178.764,-108.58,-1137.04
1082.628,-8.54,-1191.94
1054.324,-16.836,-973.56
1015.528,-19.276,-796.416
893.284,66.856,-802.272
868.396,113.704,-707.112
882.548,66.368,-467.992
902.556,-3.904,-236.68
939.156,-55.144,-9.76
993.568,-67.588,81.496
1009.428,2.928,10.492
1009.428,21.472,28.06
964.776,5.856,158.6
999.18,2.196,305.488
1038.22,42.456,201.788
973.56,85.644,79.544
860.832,166.164,50.264
863.272,212.036,-1.464
900.116,318.42,-59.536
1019.188,312.32,-111.264
1109.712,304.512,2.196
1045.296,393.816,88.572
999.912,374.784,209.108
1016.016,425.048,203.008
974.048,488.976,82.96
888.404,590.48,0.488
845.948,623.176,-2.684
766.648,585.6,127.856
765.916,583.648,129.564
773.968,678.808,88.816
749.08,731.512,28.304
665.876,766.892,27.816
671.732,788.852,-26.84
687.348,814.472,-14.152
554.612,785.924,21.96
514.108,791.048,48.8
618.784,892.796,9.76
589.504,848.876,18.3
437.98,790.56,64.66
401.38,791.536,72.468
459.696,871.324,14.396
381.616,901.336,67.832
402.6,919.88,-42.7
303.78,925.248,-98.576
271.328,994.788,-99.796
197.64,930.372,-3.416
132.492,861.564,30.988
127.856,891.088,-3.904
188.612,922.32,-18.788
238.388,990.396,6.588
171.288,1016.504,-96.136
117.608,986.492,-27.084
35.868,953.796,-32.696
-5.612,981.368,-38.796
62.22,982.588,-29.036
121.268,1006.256,-82.716
50.508,960.384,-8.54
-5.856,958.188,-27.328
-27.572,965.508,-78.324
-51.484,987.224,-106.628
-21.228,1009.672,-113.948
10.98,1026.508,-74.908
-4.392,1057.74,-71.492
-2.196,1031.388,-72.956
-27.328,990.884,-54.656
-7.32,1004.792,-47.336
20.252,1033.096,-91.5
28.792,1025.288,-61.488
-23.668,979.416,-33.916
-9.76,994.788,-39.284
10.492,1023.824,-89.06
-3.172,1003.328,-71.492
-11.956,981.612,-58.56
-61.976,965.508,-50.752
-40.26,978.44,-79.788
-39.528,987.468,-67.832
-2.196,996.74,-82.472
4.636,976.0,-75.884
-8.052,963.8,-60.756
-23.912,954.04,-60.268
-28.304,956.236,-54.168
-43.92,969.168,-91.988
-19.276,984.052,-86.132
7.32,985.272,-56.608
-17.568,987.956,-67.588
-51.728,974.292,-83.936
-30.256,971.364,-67.588
4.88,989.664,-36.112
10.736,1006.256,-43.676
-7.32,1011.624,-72.712
-6.1,1009.428,-81.496
-18.788,1000.888,-54.9
10.736,1008.208,-32.452
31.232,1010.16,-71.004
-11.224,998.692,-72.224
-29.036,996.496,-80.764
-25.864,1009.184,-100.284
6.1,1003.816,-84.912
-17.324,973.072,-62.952
-35.38,957.7,-79.056
-22.448,970.144,-83.936
10.248,997.228,-88.084
-2.684,982.1,-63.928
-31.72,960.384,-64.172
-11.712,984.54,-90.524
-1.464,1005.524,-97.356
-1.464,995.52,-81.008
-10.248,957.944,-59.78
-20.496,955.748,-62.708
-7.32,983.076,-80.764
-17.08,997.472,-102.724
-17.568,995.764,-105.164
-21.472,980.88,-96.38
-17.812,966.24,-78.568
-6.588,969.9,-72.224
0.488,990.152,-93.208
-0.488,1006.744,-109.068
-20.252,992.104,-98.82
-26.108,974.292,-93.696
-17.324,969.168,-79.544
25.376,998.448,-93.208
0.488,996.984,-99.552
-15.616,990.396,-106.384
-6.1,995.032,-89.06
19.276,1017.968,-88.084
-4.88,990.152,-101.26
-3.904,991.616,-99.796
8.784,994.3,-78.812
13.176,1002.108,-80.52
3.904,990.64,-88.572
-12.2,985.516,-95.892
-9.76,994.544,-91.5
6.832,1003.572,-95.648
-0.488,995.52,-96.624
-4.148,977.22,-86.864
-7.808,987.468,-107.36
-6.1,997.96,-111.508
14.884,1007.72,-117.12
-5.856,977.952,-90.524
-21.228,946.476,-51.484
-25.132,949.892,-62.708
-6.832,979.904,-86.132
13.908,1010.892,-126.88
2.44,1009.184,-100.772
-4.88,985.028,-77.348
1.464,980.148,-84.424
-11.224,982.832,-91.256
0.976,981.368,-75.396
-0.732,972.34,-81.496
-4.148,998.936,-114.192
-5.612,991.86,-82.716
