acc_x[mg],acc_y[mg],acc_z[mg]
-142.496,972.096,-77.592
-142.496,974.048,-69.54
-141.032,980.636,-62.708
-126.148,976.244,-51.484
-123.464,973.56,-43.676
-113.216,979.66,-59.78
-119.316,986.248,-71.98
-147.376,979.66,-64.416
-143.96,972.096,-59.78
-153.476,968.436,-55.144
-158.6,973.804,-61.0
-146.156,974.292,-74.664
-138.592,978.684,-82.472
-147.864,974.536,-62.952
-151.28,977.952,-60.512
-153.964,974.78,-49.776
-151.768,969.656,-37.82
-142.496,973.072,-47.58
-149.572,977.952,-52.704
-152.5,977.708,-58.804
-147.376,977.708,-55.876
-142.496,979.172,-47.824
-148.352,974.78,-34.16
-146.644,969.9,-29.28
-132.248,975.512,-44.652
-139.568,981.856,-54.168
-145.668,979.66,-52.948
-150.548,982.1,-52.948
-142.74,982.588,-62.22
-152.256,980.392,-50.02
-145.18,977.22,-46.848
-140.3,977.22,-44.896
-145.912,977.952,-43.92
-134.932,985.272,-67.588
-155.672,973.804,-43.676
-158.112,962.092,-26.108
-157.868,973.56,-37.332
-144.448,983.076,-57.096
-150.06,983.076,-49.288
-128.1,990.884,-55.632
-129.076,989.908,-55.144
-142.008,985.516,-55.876
-159.332,975.024,-52.46
-155.672,969.168,-53.192
-153.476,969.168,-44.164
-144.204,968.924,-47.092
-134.932,976.244,-56.852
-141.764,979.172,-56.364
-150.304,968.924,-41.968
-147.132,967.46,-42.944
-145.424,969.656,-44.652
-142.008,972.34,-53.436
-143.716,972.34,-48.556
-145.18,974.536,-53.192
-146.644,978.684,-61.732
-151.036,975.024,-54.656
-143.96,975.024,-55.388
-141.764,985.028,-64.172
-145.668,984.296,-59.78
-147.376,977.22,-50.752
-145.18,974.536,-51.484
-142.496,980.392,-58.56
-150.06,977.952,-50.264
-153.476,969.168,-41.724
-147.376,973.072,-54.656
-148.596,973.56,-60.268
-159.332,970.144,-47.092
-155.672,964.776,-42.7
-157.624,969.412,-46.36
-163.968,974.292,-47.336
-152.988,976.732,-47.824
-138.836,987.224,-57.34
-150.548,985.028,-43.676
-149.572,988.932,-46.36
-143.472,989.176,-55.632
-134.932,991.128,-68.564
-133.956,991.128,-78.568
-142.496,985.028,-78.568
-158.356,976.488,-78.324
-156.16,963.556,-75.396
-155.916,955.26,-63.196
-144.204,964.044,-69.296
-136.884,968.924,-77.348
-145.668,964.288,-65.88
-143.96,959.164,-60.512
-171.532,955.504,-47.092
-163.968,963.068,-56.12
-153.72,969.168,-55.388
-139.324,968.68,-59.292
-141.032,960.628,-61.0
-171.044,952.82,-55.144
-193.004,954.772,-58.56
-176.412,962.58,-71.004
-155.184,964.776,-65.636
-141.032,961.604,-62.22
-151.524,962.58,-45.14
-149.816,942.328,-36.844
-172.264,939.4,-26.596
-184.952,941.108,-43.432
-166.164,957.944,-65.148
-157.868,945.012,-37.088
-142.008,941.352,-23.912
-173.484,925.248,12.932
-185.928,919.636,14.152
-181.048,935.74,-45.872
-168.848,928.42,-122.976
-213.5,900.848,-76.616
-259.86,864.736,2.196
-248.636,861.564,30.5
-219.356,889.38,-24.644
-222.528,890.844,-53.68
-255.956,861.076,-41.724
-275.476,855.952,2.928
-241.56,867.42,30.012
-208.62,878.4,50.996
-147.376,915.0,19.52
-57.828,920.124,-16.104
-76.616,926.712,-11.224
-188.368,860.832,65.636
-182.268,976.244,-42.456
-161.772,1078.724,-172.996
-107.36,987.224,-144.204
-20.252,921.832,-45.628
-17.08,885.72,8.296
-168.116,845.704,115.412
-162.504,859.612,20.984
-29.768,1026.02,-266.692
-21.716,1090.68,-281.088
-58.072,1008.94,-14.152
-18.788,963.556,130.296
33.916,1034.804,28.792
61.0,1118.74,-132.98
29.524,1138.504,-198.86
30.012,1117.764,-144.692
68.32,1086.044,-67.344
147.376,1099.708,-79.788
104.188,1131.916,-112.972
70.272,1141.676,-137.616
84.18,1129.964,-143.96
68.808,1097.024,-100.284
92.72,1098.0,-114.192
97.356,1114.592,-134.688
93.94,1072.136,-106.14
84.424,1052.128,-98.088
84.912,1022.116,-115.412
69.784,1023.824,-159.576
52.216,1010.404,-154.452
64.904,992.592,-115.9
71.98,959.652,-55.876
95.404,928.908,-39.528
129.076,930.86,-99.308
108.336,969.412,-155.672
39.04,956.724,-128.588
47.336,948.916,-90.524
40.016,906.948,-16.104
20.008,881.816,-40.748
7.32,882.792,-98.332
40.504,873.276,-136.152
221.796,938.424,-219.112
98.332,848.144,-102.724
-87.352,852.78,6.832
-108.824,877.18,77.592
44.652,756.888,-116.388
185.196,756.156,-224.236
257.664,699.06,-210.572
515.816,644.892,-210.572
642.208,581.94,-260.104
310.856,511.912,-136.152
203.74,417.972,6.1
622.688,333.548,-86.376
949.16,179.828,-189.1
914.024,55.876,28.792
1198.284,30.5,-91.744
1323.7,73.2,-333.792
1100.684,-0.732,-213.988
1050.908,-53.68,-18.544
1097.756,-167.14,88.084
1191.94,-190.076,-70.76
1349.564,-127.856,-278.16
1288.564,-193.98,-264.008
1243.18,-285.48,-54.9
1307.84,-327.204,37.82
1646.268,-360.632,-22.692
2074.732,-438.468,-97.356
2264.808,-507.032,-30.5
2235.528,-553.148,202.032
2502.952,-610.0,406.26
2834.548,-681.248,221.796
2985.34,-894.992,89.548
2755.004,-1046.272,115.9
2258.22,-1139.968,276.208
1733.132,-1116.056,349.896
1177.3,-1074.576,299.144
725.412,-853.512,222.528
459.94,-741.272,37.332
331.352,-643.184,-96.624
148.596,-521.916,-178.608
-16.592,-440.908,-146.156
-85.888,-396.5,-17.324
-89.548,-296.704,54.656
-57.096,-152.5,74.176
78.568,-55.388,30.988
368.196,36.844,-233.02
650.748,128.344,-478.972
757.864,223.016,-631.472
768.6,245.708,-657.58
788.852,258.396,-675.88
880.596,251.564,-766.648
815.936,291.336,-947.452
558.272,316.468,-968.68
361.364,289.872,-911.828
210.816,252.54,-823.744
153.72,214.232,-649.284
91.256,193.492,-430.172
-80.032,215.452,-221.308
-120.78,174.948,-19.276
64.66,98.332,101.016
264.74,35.868,265.96
341.6,-15.372,469.456
416.508,-65.88,655.872
492.392,-99.308,845.704
726.144,-126.636,925.492
952.332,-136.884,890.844
1058.716,-160.796,858.148
1218.78,-220.576,855.952
1443.26,-237.9,814.472
1641.144,-279.38,719.068
1827.56,-351.36,708.332
1977.376,-355.752,635.132
2056.92,-354.288,485.56
2168.916,-375.272,331.108
2101.816,-398.452,199.348
1691.408,-382.592,241.316
1417.152,-314.76,-21.716
1341.268,-126.392,-551.684
1238.056,28.304,-898.652
1123.376,101.748,-1011.38
1028.46,120.048,-957.212
954.284,111.264,-730.78
868.396,106.384,-567.056
919.88,110.288,-472.384
925.492,117.852,-391.132
996.984,121.024,-216.184
1084.58,126.88,-88.084
1089.46,137.86,-16.836
1004.792,196.664,-45.14
915.732,229.604,-89.06
920.612,235.46,22.448
1008.696,254.248,85.888
1007.232,306.464,51.24
892.552,347.212,-21.472
856.928,346.968,-110.532
835.212,411.384,-143.228
750.056,525.332,-72.712
672.22,608.536,51.972
770.064,659.776,-69.54
766.16,625.372,-132.492
619.76,650.26,-20.74
610.244,753.96,-33.672
693.448,853.512,-181.048
552.66,819.108,-111.02
359.168,837.408,52.46
403.82,866.2,29.28
450.424,922.564,-34.16
216.184,887.428,63.684
121.512,926.956,58.072
135.908,971.852,-34.648
166.652,1027.972,-133.712
27.572,1058.716,-96.624
-56.12,1065.548,-52.704
-57.584,1021.628,-28.548
-20.496,1005.28,-67.832
-10.736,1006.5,-97.844
-58.316,1008.208,-85.644
-92.72,1022.116,-59.292
-145.668,1039.196,-58.072
-140.788,1033.584,-38.796
-5.124,1025.776,-87.596
19.52,1038.708,-111.752
-79.788,1025.776,-70.272
-133.468,998.448,-12.932
-129.808,997.96,-10.736
-108.824,957.7,-15.616
12.932,953.796,-11.224
25.376,985.516,-61.0
-89.304,980.88,-39.04
-123.464,969.412,-7.808
-128.344,936.472,15.128
-102.968,947.208,-9.76
-69.052,954.04,-46.36
-73.444,969.656,-71.004
-89.06,996.496,-98.088
-145.424,965.752,-21.96
-135.664,925.248,46.116
-98.82,942.328,4.636
-18.544,961.36,-71.736
-32.696,973.072,-41.724
-109.312,964.288,-5.124
-116.876,979.66,-15.616
-149.084,954.772,10.492
-116.632,955.504,-1.708
-28.304,1000.156,-76.616
-67.588,1006.744,-50.264
-100.772,1003.816,-14.884
-105.164,988.932,-8.54
-78.812,988.2,-25.132
-59.536,973.804,-6.344
-60.268,971.608,3.66
-84.668,990.884,-27.816
-104.92,991.128,-37.088
-103.212,975.268,-22.448
-92.72,957.944,-10.736
-80.52,958.188,-19.032
-84.18,966.728,-15.616
-68.808,972.828,-21.228
-90.524,978.928,-16.836
-103.456,967.46,-1.464
-80.764,975.756,-22.204
-70.028,993.08,-46.604
-71.004,995.52,-48.556
-80.276,971.12,-18.3
-66.856,978.44,-3.172
-74.908,967.46,19.276
-57.828,953.552,27.572
-45.384,946.964,17.324
-81.74,948.184,9.76
-90.524,951.112,-27.084
-73.2,950.38,-40.748
-62.464,958.92,-29.28
-68.808,940.132,7.32
-50.996,930.86,33.428
-54.656,927.688,35.868
-69.784,913.292,29.768
-110.288,917.196,20.008
-102.236,937.204,-5.368
-89.06,971.852,-41.236
-100.772,965.02,-32.696
-92.232,944.524,-17.568
-108.58,943.304,22.692
-79.3,956.48,4.636
-60.024,954.284,-17.812
-76.616,951.6,-19.52
-95.892,966.972,12.932
-45.14,976.0,-40.748
-54.412,956.968,-19.764
-77.836,937.204,41.968
-45.872,956.236,17.324
-43.432,952.82,-23.912
-72.224,955.016,-3.904
-86.864,972.828,15.86
-54.168,976.976,-15.128
-36.844,945.744,-1.464
-64.66,939.4,34.648
-43.92,968.192,-21.716
-74.664,965.264,-67.344
-108.092,970.876,-33.184
-71.736,967.46,-36.6
-35.868,959.408,-20.984
-28.304,940.132,18.788
-4.88,954.04,-3.904
-38.796,961.604,-43.188
-25.376,972.828,-66.856
5.368,957.7,-55.876
19.52,971.852,-41.48
28.06,946.964,-50.996
44.652,924.272,-34.892
-44.896,953.308,-39.528
-102.968,965.264,-66.856
-77.104,947.696,-84.18
-35.136,942.328,-69.784
-22.204,960.14,-83.448
-4.148,993.568,-115.9
-24.4,968.68,-89.06
-40.504,960.384,-70.516
-8.54,996.496,-140.3
21.96,1019.432,-233.264
25.864,1039.684,-225.212
21.472,1040.904,-137.372
16.348,1022.848,-69.784
78.08,1015.284,-65.148
83.692,1001.376,-100.528
29.524,1010.892,-104.188
46.116,1050.908,-178.852
51.972,1052.86,-193.492
37.088,1070.672,-120.048
82.716,1074.088,-128.1
135.176,1067.744,-173.24
85.888,1032.364,-85.156
69.052,1048.956,-71.736
138.104,1080.92,-170.068
133.224,1072.136,-127.612
121.512,1074.332,-47.092
148.596,1099.464,-85.888
170.8,1099.22,-112.24
123.464,1090.68,-50.264
149.572,1127.28,-114.924
180.804,1123.132,-178.12
162.504,1115.324,-114.924
188.124,1088.484,-94.184
206.18,1062.376,-89.548
189.588,1024.068,-63.196
174.46,1016.26,-77.348
182.512,994.056,-113.216
187.636,990.152,-92.476
179.584,958.432,-92.964
156.648,936.96,-61.732
176.412,933.056,-78.812
162.992,935.74,-72.956
188.856,936.96,-77.348
238.388,948.672,-110.776
205.204,918.416,-71.736
155.184,928.664,-30.988
141.276,905.24,-46.604
175.436,919.88,-68.808
275.964,918.904,-149.084
355.508,923.54,-175.924
365.024,899.628,-88.328
438.956,876.692,-108.336
331.108,896.456,-117.852
75.396,943.06,-100.772
41.968,845.46,-118.34
-62.708,818.132,-105.896
-116.144,799.1,-94.428
351.604,660.752,-285.236
722.484,440.908,-529.724
372.1,493.124,-152.744
230.824,452.864,76.86
415.776,164.212,-6.832
435.052,-45.384,-11.712
1024.068,-253.272,-165.432
1465.464,-472.872,-476.532
1225.612,-331.596,-236.924
1136.552,-304.756,7.808
1224.148,-437.736,53.192
1296.128,-446.764,-39.528
1469.124,-438.712,-189.588
1312.232,-462.38,-132.736
1257.82,-534.116,109.8
1299.788,-528.016,137.372
1428.132,-520.208,-23.912
1449.116,-599.508,50.264
1491.328,-614.636,110.776
1661.152,-600.972,-2.44
1792.424,-636.596,1.22
1873.188,-664.9,70.028
1991.772,-701.5,145.912
2338.74,-889.624,135.908
2562.732,-1083.848,244.488
2653.012,-1295.396,437.492
2459.764,-1423.252,499.712
2068.632,-1447.652,565.592
1865.38,-1466.196,509.96
1580.388,-1379.332,200.08
1007.72,-1271.728,81.252
507.276,-1081.408,60.512
206.18,-915.976,-43.188
-75.396,-687.592,-167.384
-360.144,-459.696,-295.972
-550.952,-284.26,-259.86
-579.988,-163.968,-157.38
-459.208,-46.848,-108.092
-329.156,114.68,-277.916
-175.924,201.544,-347.456
-56.364,295.24,-417.728
113.216,363.072,-547.048
252.296,412.604,-736.392
282.796,437.492,-798.124
306.22,459.208,-926.224
390.156,454.572,-1022.116
382.104,395.524,-971.364
360.144,317.2,-832.528
283.04,285.236,-692.716
197.884,247.66,-514.352
207.888,164.456,-206.18
259.372,114.68,14.152
182.512,84.668,163.48
140.544,6.588,375.516
356.24,-72.956,599.02
802.516,-149.816,709.308
1060.18,-210.816,758.84
1129.72,-284.748,928.664
1128.988,-309.636,1048.712
1157.048,-310.124,974.292
1256.356,-305.488,846.68
1477.42,-312.076,722.484
1484.496,-322.324,609.756
1346.392,-323.788,553.88
1453.264,-358.68,569.496
1757.044,-392.596,420.168
1831.952,-410.408,231.556
1880.996,-447.74,226.432
1925.404,-468.48,169.58
2181.116,-470.92,45.14
2032.276,-455.304,-75.64
1552.816,-411.14,-174.704
1081.164,-218.624,-450.424
840.092,0.976,-812.032
809.348,202.032,-1155.096
823.744,324.52,-1294.176
734.928,303.78,-1055.056
748.104,234.484,-698.816
772.26,107.848,-384.3
604.388,113.948,-295.972
905.728,131.76,-193.004
1060.424,152.256,-113.216
1135.82,187.148,-29.28
980.88,188.368,-27.084
794.952,177.876,-90.768
1088.24,230.58,-60.268
1262.456,269.62,5.124
1330.288,318.176,-27.816
1011.624,312.808,-8.784
611.464,428.952,-24.644
728.828,641.476,-111.02
807.64,671.0,-158.844
725.412,625.616,2.928
641.232,560.956,165.188
670.024,599.996,128.588
778.36,691.984,-13.42
531.676,815.448,-16.836
312.564,873.276,-12.2
189.588,837.408,11.712
334.036,869.616,-61.0
437.004,945.988,-122.732
321.836,1022.36,-136.64
67.588,1044.808,-82.228
-27.572,1023.092,-9.272
248.88,929.152,-79.788
261.812,933.544,-54.412
-6.1,964.776,61.976
-70.028,992.592,-14.152
-74.664,1019.676,-114.436
-41.48,1031.632,-140.544
0.976,1022.36,-110.288
-9.516,1011.868,-41.968
-20.252,1025.532,-1.22
-32.696,1028.216,7.076
25.864,1007.72,-32.94
43.92,994.788,-50.996
-31.72,1008.208,-36.6
-74.42,1041.148,-75.64
-74.664,990.884,-37.576
15.86,943.304,-4.392
62.464,966.728,-35.868
-13.908,1003.572,-50.996
-37.576,1012.6,-77.836
-17.324,997.228,-76.128
-22.204,981.368,-44.652
27.328,988.688,-33.916
84.18,984.784,-50.508
60.512,1010.404,-47.092
7.808,990.152,-14.396
-12.932,977.952,-12.444
-13.42,989.176,-38.308
57.096,993.324,-90.036
37.576,1008.452,-74.908
1.952,1000.888,-44.164
-4.148,988.444,-32.452
6.344,965.264,-7.564
40.504,976.976,-32.208
56.364,988.2,-57.828
38.064,1006.5,-54.168
5.124,1004.792,-47.092
0.976,997.228,-52.46
15.372,982.832,-40.992
51.24,989.176,-50.264
24.4,1002.108,-47.336
28.792,999.18,-57.096
5.856,985.028,-33.184
8.052,983.564,-43.676
10.004,995.52,-58.804
-2.44,988.2,-41.724
18.544,987.468,-45.14
27.084,989.176,-48.068
18.056,999.912,-50.264
20.984,1010.16,-67.588
4.88,1007.476,-65.392
-16.592,993.812,-39.528
7.808,978.928,-40.016
46.848,976.976,-55.388
34.16,992.836,-60.756
5.124,1001.376,-57.828
-1.708,991.86,-42.456
5.856,973.804,-19.032
25.376,977.952,-30.5
32.94,993.08,-51.484
12.688,991.372,-53.192
1.952,991.372,-46.36
15.128,996.008,-56.364
9.76,986.736,-40.748
32.208,981.856,-43.188
28.06,981.124,-42.456
9.76,988.444,-34.404
1.22,986.98,-37.088
12.444,991.616,-49.532
16.348,992.836,-54.656
28.304,995.276,-56.364
16.348,1007.72,-52.704
13.664,992.592,-48.556
4.392,974.292,-21.228
16.348,981.612,-26.352
14.884,987.224,-34.892
30.5,991.616,-53.924
20.008,990.64,-50.02
9.76,980.148,-33.672
2.196,980.636,-34.16
4.392,986.492,-38.796
-7.076,978.684,-33.428
-0.976,963.8,-39.04
20.252,976.488,-66.612
7.564,975.512,-68.564
-10.98,977.464,-51.972
-6.1,972.096,-47.092
-2.684,952.82,-38.796
-5.856,943.792,-35.136
-10.736,945.012,-50.264
-13.42,960.14,-70.76
-17.812,950.868,-51.484
-1.708,944.524,-46.116
-10.248,946.476,-37.332
-7.564,939.644,-46.116
-20.496,939.4,-49.288
-15.86,942.084,-51.24
-1.464,951.356,-66.368
-1.464,952.332,-71.736
-22.204,959.896,-68.32
-5.124,945.5,-75.152
27.328,930.128,-72.224
-15.128,906.46,-12.2
16.104,911.828,-32.696
-27.816,912.804,-10.736
-40.504,926.224,-7.808
-7.564,958.92,-50.752
-17.812,972.096,-41.724
2.44,968.192,-41.236
17.568,970.632,-52.704
30.256,967.704,-46.116
10.736,935.252,3.904
15.128,908.168,24.156
14.396,950.136,-29.524
3.66,979.416,-63.196
-0.488,979.416,-50.996
68.32,971.852,-61.732
62.464,974.292,-41.968
10.736,952.576,35.136
42.456,951.844,45.628
93.94,975.268,-21.716
61.976,1009.916,-65.392
11.712,1028.216,-69.052
24.4,1025.288,-77.104
55.632,985.272,-59.536
81.496,976.244,-34.16
70.272,977.464,-20.496
24.156,987.712,-35.624
33.428,1015.284,-115.412
16.836,1038.22,-141.764
17.568,1022.848,-115.412
37.332,990.396,-82.716
92.964,968.68,-78.08
63.196,984.052,-95.648
28.06,985.516,-127.368
37.82,968.924,-148.108
24.888,953.796,-98.332
38.796,961.604,-90.28
37.82,983.808,-127.368
1.708,1060.668,-184.708
-0.976,1124.84,-264.252
7.564,1109.712,-247.66
42.456,1062.376,-178.364
74.908,1058.96,-138.348
80.032,1063.352,-122.976
97.6,1078.236,-161.772
80.764,1084.824,-164.944
93.208,1091.412,-163.48
93.94,1085.312,-162.992
67.588,1068.964,-151.036
83.692,1052.616,-147.864
101.992,1027.484,-103.212
145.668,1030.656,-98.088
170.068,1038.952,-113.216
140.3,1026.264,-99.308
118.828,1023.58,-122.244
133.712,1028.46,-150.06
126.148,1028.948,-142.984
127.612,1013.82,-127.124
143.716,1000.644,-127.612
116.388,977.952,-113.46
104.676,962.824,-120.048
117.364,948.916,-132.98
140.544,946.476,-127.856
136.884,955.26,-132.736
107.36,951.356,-124.196
94.184,927.688,-110.776
106.872,932.812,-134.688
103.212,959.164,-162.26
134.2,957.7,-162.016
132.492,951.6,-121.756
136.884,952.088,-112.728
137.616,958.92,-122.976
114.436,965.752,-136.396
129.076,984.784,-168.604
131.272,995.764,-172.752
135.176,991.616,-151.768
138.592,981.856,-139.08
126.148,974.78,-134.2
124.684,977.952,-142.252
113.216,975.756,-140.544
125.904,976.0,-149.328
128.344,954.772,-136.884
120.292,952.576,-143.716
91.256,946.476,-139.324
64.172,905.484,-113.948
167.872,907.924,-183.488
162.748,938.18,-213.256
212.28,937.692,-240.096
172.264,867.908,-175.436
87.352,832.528,-91.744
188.856,821.304,-135.176
270.84,754.936,-150.06
297.68,602.192,-126.636
334.28,544.608,-160.796
480.68,372.832,-194.956
744.2,127.124,-182.756
1220.488,122.0,-491.416
1195.844,72.712,-388.448
1155.828,22.692,-146.888
1042.124,-114.192,38.308
928.664,-122.732,111.508
1078.968,-182.756,-54.168
1148.508,-143.716,-194.468
1082.14,-187.88,-46.848
1059.448,-244.732,24.156
1030.9,-209.352,-93.208
978.928,-252.052,-66.124
1040.66,-311.588,-33.184
996.008,-276.208,-133.468
970.876,-305.732,-65.148
991.86,-334.28,-40.26
1069.452,-375.76,-60.268
1078.48,-422.608,16.836
1165.1,-428.464,27.816
1288.32,-396.744,-30.012
1474.004,-409.92,-37.332
1745.088,-461.892,-46.116
1978.352,-474.092,-101.016
2112.796,-570.96,47.336
2301.896,-706.136,274.988
2506.856,-744.688,195.2
2695.468,-785.924,55.388
2710.352,-896.456,58.804
2557.364,-994.544,93.94
2327.516,-1068.232,120.292
2130.608,-1137.528,113.216
1787.788,-1128.012,-12.2
1231.468,-1083.604,-122.0
497.272,-912.072,-103.944
135.908,-749.812,-165.188
-47.58,-622.688,-199.836
-123.952,-498.736,-235.948
-292.8,-356.972,-212.036
-463.356,-233.996,-110.044
-532.896,-54.9,-149.084
-397.72,133.712,-276.208
-270.84,323.3,-435.54
-114.192,429.684,-587.308
14.152,452.132,-639.28
44.164,462.136,-630.252
46.848,467.26,-582.184
137.616,460.428,-583.892
149.816,489.952,-682.224
220.576,457.988,-678.076
263.764,407.48,-586.576
279.868,326.96,-411.628
254.736,250.344,-230.58
278.892,206.18,-102.724
342.332,169.092,41.48
429.44,113.704,177.876
444.568,56.852,285.968
566.324,-27.816,402.356
868.64,-95.16,580.232
1159.976,-149.084,653.432
1223.172,-181.536,696.62
1212.924,-271.572,935.252
1269.288,-362.584,1096.78
1396.412,-386.74,1016.26
1546.228,-423.828,960.14
1698.24,-421.388,841.8
1674.328,-392.352,722.972
1590.392,-457.5,717.848
1757.776,-476.776,560.468
1831.952,-479.216,402.844
1713.124,-438.712,255.224
1740.94,-319.64,-158.356
1592.832,-99.308,-771.528
1212.436,96.868,-1002.352
954.284,142.496,-826.428
1074.576,176.168,-875.96
1285.392,140.3,-823.988
1166.808,58.072,-600.728
829.356,163.724,-589.992
793.0,241.56,-605.608
905.24,223.016,-419.192
1069.94,150.304,-174.216
1043.1,129.564,-18.544
880.108,230.092,-109.068
785.68,309.148,-213.256
826.428,316.224,-218.624
981.856,297.68,-136.64
1022.848,222.04,5.856
1118.252,247.66,24.644
1202.92,313.296,-80.52
1004.06,323.788,-132.492
795.196,376.98,-110.776
802.516,446.032,-125.172
786.9,527.04,-127.368
819.84,532.652,-88.084
830.332,555.1,-35.868
803.736,598.044,-34.648
797.636,661.24,-61.0
732.976,655.628,-45.384
643.672,675.148,23.912
684.664,689.3,-6.344
736.636,715.896,-38.064
640.012,689.056,110.044
650.504,764.208,94.672
635.376,847.412,10.98
589.016,848.876,-37.82
476.532,902.068,34.648
394.792,915.244,71.004
357.46,916.708,69.296
292.312,947.452,72.468
242.048,961.604,43.676
246.684,963.556,-18.056
136.396,973.316,29.524
75.884,998.692,33.672
39.772,1027.728,7.32
60.756,1055.056,-57.34
84.668,1047.98,-82.716
37.332,1002.84,-12.2
66.612,959.164,-5.124
49.776,947.452,46.36
-11.712,970.632,84.424
-3.904,987.224,36.6
45.628,1021.384,-40.504
30.744,1020.408,-13.664
-23.668,1004.06,31.964
-54.168,999.912,24.644
-48.556,994.3,11.224
-52.216,956.724,43.188
-7.32,957.456,-7.32
6.588,971.12,-28.304
-43.432,977.22,7.564
-67.344,991.128,1.464
-43.92,978.684,0.732
26.352,975.512,-14.64
96.868,1001.376,-71.98
5.124,1011.868,-23.668
-25.864,1010.892,-11.956
-44.164,1001.864,-16.836
-29.768,989.176,-20.74
-3.904,976.732,-13.176
37.088,989.42,-34.16
-5.612,992.104,-5.368
5.124,996.252,-1.22
21.96,1004.06,-6.1
18.544,1008.208,-17.324
20.74,1002.352,-26.108
20.496,996.984,-37.332
-19.276,990.396,-17.08
-9.76,997.96,-24.4
21.228,1000.888,-50.996
19.52,997.96,-33.916
-3.416,993.324,-7.808
-10.736,988.2,-16.592
-5.368,971.852,-8.052
21.228,972.096,-21.716
10.248,983.076,-36.844
-10.492,998.936,-48.312
-21.96,991.86,-38.552
-17.568,986.736,-31.476
-19.032,972.584,-21.716
13.908,977.464,-54.412
26.84,991.372,-65.148
4.392,999.424,-64.66
-15.86,992.592,-45.628
-27.816,965.996,-20.252
7.32,973.072,-49.288
18.788,999.668,-71.736
10.98,1005.036,-59.292
-16.348,1000.644,-25.132
-25.132,987.712,-6.344
4.148,989.176,-34.892
15.86,1005.036,-65.88
4.636,1015.284,-68.32
-10.98,1007.72,-40.748
-16.104,986.004,-1.464
-3.172,976.488,-3.172
16.104,987.712,-33.672
9.76,997.472,-44.408
5.124,1003.084,-50.752
-13.176,1002.352,-32.94
-5.856,985.028,-20.496
-2.44,969.656,-8.784
24.644,976.488,-37.332
0.488,995.764,-42.212
-12.932,1001.376,-45.14
-13.908,992.104,-41.968
-8.296,997.716,-51.972
1.952,984.052,-44.408
6.1,978.196,-22.204
16.592,986.004,-22.936
-14.396,990.396,-14.396
-12.932,997.96,-32.452
-7.564,1009.428,-51.728
14.152,1011.136,-57.584
12.2,1001.864,-45.628
-15.128,986.736,-15.128
-10.492,976.0,-11.224
-1.952,982.832,-26.84
-6.1,1000.4,-56.12
-22.448,998.936,-61.976
0.488,987.468,-51.972
-3.416,982.588,-34.648
-1.22,987.712,-37.82
-0.976,982.588,-34.404
-20.252,958.92,-12.932
-8.784,954.04,-16.836
6.588,957.7,-32.208
-9.76,976.976,-46.116
-27.328,977.952,-30.012
-25.62,962.092,-19.276
-11.468,956.48,-31.964
-11.224,963.068,-44.896
2.196,981.368,-62.708
-21.96,998.936,-59.536
-45.628,968.68,-28.304
-31.232,946.476,-6.344
-36.112,931.592,16.836
-13.176,943.06,-13.176
-34.404,926.956,-13.664
-46.116,930.128,2.196
-84.424,931.592,23.912
-60.024,935.984,-3.66
-29.036,924.028,-26.84
-38.796,917.684,-22.692
-53.68,894.748,-9.76
-51.484,924.028,-31.476
-53.68,919.148,-28.792
-33.672,907.436,-28.06
-38.064,903.532,-11.224
-38.796,894.748,-5.856
23.424,920.612,-71.492
-4.636,945.012,-81.252
-44.164,939.888,-47.824
-44.408,941.108,-53.924
-24.156,934.52,-60.268
6.1,914.024,-62.22
21.716,928.664,-79.056
0.0,965.508,-107.116
-18.056,946.72,-101.016
17.568,926.224,-100.04
38.308,907.68,-67.1
29.28,904.752,-45.14
53.924,936.472,-72.956
46.36,965.508,-101.992
41.48,985.76,-131.272
37.332,985.76,-125.416
64.172,986.736,-122.976
78.08,986.98,-93.94
122.488,991.372,-94.672
140.788,996.008,-103.456
141.032,972.828,-84.424
161.04,941.596,-90.524
173.24,928.664,-97.844
173.728,948.184,-90.768
132.736,970.144,-63.928
195.932,1020.164,-112.972
187.88,1057.252,-129.076
178.12,1100.196,-160.064
182.268,1142.164,-203.252
187.636,1140.944,-197.64
265.228,1159.976,-221.308
217.892,1150.704,-170.068
223.016,1115.568,-144.692
214.964,1087.996,-125.172
277.672,1089.704,-174.216
284.016,1091.656,-190.564
249.368,1072.38,-177.144
253.516,1051.64,-173.24
229.116,1020.896,-146.156
248.636,1007.72,-151.524
280.356,1020.896,-175.192
254.736,1022.36,-161.528
269.132,1013.088,-176.412
256.688,991.86,-159.576
257.42,988.932,-165.188
263.032,984.784,-162.748
263.52,968.192,-145.424
257.908,958.92,-144.448
274.988,954.772,-156.404
246.928,932.812,-129.808
237.9,922.32,-124.928
243.756,935.008,-144.448
244.488,930.372,-150.548
254.736,924.76,-153.232
251.564,922.808,-148.108
236.436,912.56,-132.004
207.888,910.608,-117.852
195.444,895.236,-105.896
137.616,884.5,-73.444
143.96,887.672,-98.088
301.096,916.22,-258.64
316.712,924.516,-298.168
221.552,909.144,-233.508
180.804,829.844,-157.868
148.596,713.456,-39.528
233.02,617.32,33.672
287.432,549.732,-5.856
452.376,493.368,-160.064
502.64,459.94,-247.416
593.896,282.308,-231.556
1009.916,114.924,-304.024
1158.756,55.876,-275.232
1310.28,51.484,-332.816
1129.964,19.52,-142.74
1062.62,-73.688,109.556
1176.324,-142.008,111.508
1041.636,-125.904,89.06
1108.736,-128.832,-64.66
1369.084,-125.904,-178.852
1293.688,-125.172,-117.608
1242.204,-154.696,-13.176
1224.636,-191.54,8.54
1146.556,-212.036,15.372
1199.748,-217.648,-41.236
1255.136,-226.188,-69.296
1264.652,-242.292,-14.884
1294.664,-225.456,-16.348
1348.1,-206.668,-60.512
1453.508,-180.804,-102.968
1569.164,-173.972,-65.392
1793.644,-182.512,-17.324
2186.728,-151.524,-103.7
2450.248,-178.12,-164.212
2572.98,-316.224,-20.74
2661.064,-516.06,224.236
2764.764,-685.64,309.88
2653.988,-823.5,260.104
2478.552,-894.992,168.116
2093.764,-942.816,44.896
1513.288,-963.556,31.476
855.708,-855.22,-42.456
230.092,-673.928,-206.912
-69.54,-582.916,-210.084
-82.472,-561.688,-170.8
-176.656,-501.908,-89.548
-420.9,-302.316,-161.528
-575.596,-40.016,-309.636
-537.776,129.808,-315.248
-320.372,224.724,-318.42
-177.876,304.024,-314.272
-204.228,386.984,-366.976
-91.012,491.904,-471.408
56.12,534.36,-598.288
176.412,581.696,-705.892
260.104,600.484,-809.836
341.356,546.072,-791.78
388.204,472.872,-698.816
247.416,393.572,-524.356
262.788,299.876,-376.98
362.096,223.016,-240.584
394.792,170.068,-79.788
364.78,110.776,81.496
354.288,40.26,326.96
456.768,-34.16,548.512
696.864,-43.92,540.216
846.436,-51.972,486.78
879.62,-125.172,618.784
1220.488,-190.564,728.584
1396.168,-233.264,843.996
1291.492,-269.376,870.836
1301.496,-299.388,803.004
1442.04,-329.888,750.788
1569.408,-356.484,681.248
1781.444,-400.648,609.756
1880.02,-469.212,591.7
1869.04,-429.928,494.1
1887.34,-353.312,228.384
1906.128,-278.648,-67.344
1780.712,-164.944,-271.572
1484.496,-76.372,-390.888
1304.668,-43.676,-447.008
1188.036,2.684,-491.416
1106.784,89.304,-628.056
1053.592,136.152,-639.524
1019.188,123.464,-514.108
1025.532,151.768,-440.42
824.72,228.872,-542.9
787.388,253.516,-459.94
959.408,183.732,-289.872
1077.748,100.528,-165.676
922.564,130.54,-110.532
772.748,242.78,-121.512
805.444,309.88,-99.796
987.224,342.088,-57.096
1127.524,326.96,-39.528
1159.0,286.944,-15.372
1029.68,256.2,88.816
898.652,249.612,208.864
845.948,335.744,187.88
879.62,405.772,112.972
925.98,546.072,20.496
947.696,607.56,-58.072
850.584,530.7,4.636
828.38,632.936,3.66
737.856,599.264,47.58
639.768,628.056,194.468
712.724,679.784,120.048
626.348,758.84,87.108
539.972,801.296,67.832
475.8,811.3,64.904
352.58,848.632,96.868
330.132,918.66,38.064
276.452,918.416,56.608
196.664,922.32,62.22
126.148,961.116,0.0
90.036,975.024,-23.668
63.684,988.688,-24.4
40.016,996.252,-31.476
-25.376,1011.868,-71.248
-83.936,1026.02,-101.016
-121.024,1028.704,-89.792
-115.168,1015.528,-73.2
-100.528,996.008,-64.904
-71.98,984.784,-62.22
-66.368,998.204,-74.176
-115.9,996.008,-71.004
-204.472,981.124,-43.676
-247.904,993.568,-54.9
-100.04,968.436,-95.16
-31.964,952.576,-62.22
-72.712,952.088,-17.08
-91.012,1000.644,-49.288
-118.096,996.74,-53.192
-117.364,976.732,-37.332
-53.436,996.008,-85.888
-1.952,1019.676,-116.144
-47.092,1001.132,-56.364
-50.02,976.488,-17.324
-85.888,971.12,9.516
-83.936,953.308,21.96
38.064,962.58,-54.168
62.464,1002.108,-96.136
-70.028,1007.232,-19.032
-45.14,1023.092,-50.02
-70.516,1006.744,-25.62
-52.704,984.296,-10.98
5.856,996.984,-43.92
-21.716,1000.644,-35.136
-27.328,1002.84,-49.776
3.66,1024.556,-95.648
-56.608,994.056,-31.72
-56.12,972.34,-5.368
-41.968,967.704,-21.228
-37.332,964.532,-32.208
-21.96,982.832,-54.9
-31.964,996.496,-57.828
-47.092,986.004,-29.524
-45.628,978.684,-20.496
-17.08,984.296,-38.796
-3.416,987.712,-44.652
-11.468,988.932,-36.112
-27.328,997.228,-38.064
-34.16,993.324,-46.604
-45.872,979.904,-31.476
-22.692,973.072,-46.604
-4.392,992.592,-68.808
-15.372,1012.844,-68.32
-44.408,1001.376,-28.06
-46.604,981.124,-9.76
-21.96,986.98,-35.868
5.124,1005.768,-72.712
-15.616,1010.404,-63.684
-34.648,994.788,-29.524
-30.012,996.008,-42.212
-35.868,987.468,-38.552
-44.164,965.752,-10.492
-8.296,967.704,-21.472
14.64,990.884,-55.144
-9.76,995.276,-51.484
-45.14,978.684,-24.644
-66.612,974.048,-17.324
-45.872,978.928,-30.256
-9.028,986.004,-39.528
4.148,1012.356,-60.268
-12.2,1010.404,-51.972
-26.108,997.96,-32.452
-23.668,985.028,-23.424
-29.28,990.64,-27.816
-11.224,999.668,-38.308
4.636,997.228,-44.652
-2.684,997.472,-46.604
-30.744,995.032,-27.084
-22.448,991.86,-27.084
-24.644,993.08,-22.692
-23.668,989.176,-22.692
-8.54,992.836,-37.82
-14.152,1002.596,-44.652
-10.004,1000.4,-46.848
-7.808,995.52,-34.648
-17.324,986.98,-17.08
-8.296,976.488,-19.764
4.88,971.364,-18.3
-5.124,976.0,-20.984
-8.784,983.808,-38.796
-16.836,993.568,-47.336
-26.596,991.86,-33.428
-7.076,993.324,-36.112
-3.66,979.66,-20.496
14.64,974.292,-22.204
7.808,985.028,-30.256
-15.372,991.86,-38.552
-7.076,992.348,-51.728
-7.32,975.512,-39.284
-17.812,953.064,-17.08
-19.276,952.088,-19.764
-8.54,951.112,-33.428
-17.08,943.792,-32.696
-12.688,947.696,-35.624
-9.272,951.356,-26.596
8.052,963.8,-47.336
15.372,968.68,-58.56
-19.52,963.312,-36.6
-26.596,960.14,-30.744
-6.1,954.04,-39.284
8.296,951.6,-29.768
-11.224,953.552,-15.128
-0.488,960.14,-33.184
-7.32,955.504,-36.112
-27.328,936.96,-17.568
-3.416,936.716,-33.428
8.052,936.716,-53.924
-2.196,908.656,-30.5
27.328,888.892,-30.5
-20.74,898.164,-20.008
-36.6,912.56,-47.58
-37.82,934.032,-79.056
-33.184,937.936,-76.128
-16.592,942.328,-75.884
-11.224,942.328,-56.364
17.568,945.744,-45.628
29.28,934.52,-28.548
23.912,948.672,-54.656
46.116,958.432,-98.576
-9.272,961.116,-70.028
-43.432,975.268,-58.804
-41.968,986.492,-66.368
-35.624,994.544,-71.736
-31.232,997.228,-84.18
-13.42,991.616,-99.796
-30.256,991.86,-74.908
-29.768,983.076,-49.532
17.324,998.936,-77.592
45.872,1029.924,-122.976
47.824,1032.12,-119.316
41.724,1014.552,-84.424
105.408,995.52,-88.084
90.524,975.024,-36.356
78.324,958.92,-12.2
109.8,997.96,-96.38
76.372,1023.824,-125.172
20.252,1031.876,-96.624
25.62,1033.34,-96.624
85.156,1033.34,-124.44
99.064,1057.984,-145.18
39.772,1055.788,-100.04
52.216,1053.104,-97.6
86.376,1052.86,-105.652
111.264,1053.836,-119.072
107.116,1060.668,-123.952
88.084,1071.648,-133.712
84.912,1079.944,-155.428
91.5,1065.304,-149.328
114.924,1047.004,-134.444
100.772,1043.1,-118.584
120.048,1055.544,-138.104
122.732,1063.596,-146.4
125.66,1068.72,-150.548
117.608,1054.08,-123.22
138.836,1038.952,-118.096
149.572,1036.756,-129.32
134.688,1020.408,-105.408
141.52,1002.352,-99.796
136.152,993.324,-108.824
128.1,996.74,-126.88
113.46,994.788,-128.588
138.836,988.2,-133.468
122.488,966.972,-95.892
108.336,949.16,-74.908
133.712,961.116,-109.068
138.836,977.708,-132.004
128.344,981.856,-121.268
117.852,971.852,-109.068
119.804,958.432,-99.064
132.736,960.628,-109.8
132.492,965.264,-114.68
129.32,976.0,-120.536
126.392,967.46,-103.944
136.152,962.58,-101.26
132.004,974.292,-119.804
117.364,983.564,-128.1
92.476,990.884,-142.496
95.648,975.024,-117.852
124.196,954.772,-92.476
117.12,937.936,-47.58
180.56,920.856,-70.028
129.564,963.312,-112.24
80.276,955.016,-109.312
91.256,910.12,-96.136
109.312,882.06,-82.96
111.264,902.068,-125.172
115.656,879.376,-160.064
150.548,774.456,-71.004
129.076,798.612,-66.368
83.448,890.6,-151.28
127.612,741.272,-167.14
100.04,545.584,-106.384
21.228,427.976,-58.804
329.156,358.192,-237.412
646.844,107.116,-376.248
955.016,-289.628,-183.488
1048.224,-434.808,144.936
1131.184,-377.224,83.936
1142.896,-347.944,71.248
1193.16,-376.98,129.564
1177.544,-291.336,-47.824
1270.02,-295.24,-207.888
1155.096,-394.304,7.076
1126.304,-476.044,136.64
1300.032,-477.02,62.952
1347.612,-467.504,-10.98
1277.34,-455.548,-27.084
1152.168,-466.04,26.108
1097.512,-488.732,107.848
1211.216,-494.588,30.988
1366.888,-494.344,-19.276
1431.548,-490.44,-65.392
1502.796,-501.664,-75.64
1618.452,-560.956,13.42
1888.316,-601.216,75.152
2332.64,-732.488,-34.16
2696.932,-947.94,42.944
2774.524,-1151.924,303.536
2757.2,-1271.972,477.508
2513.688,-1356.152,477.996
2228.696,-1364.448,376.736
1925.16,-1339.804,238.876
1400.072,-1215.364,23.912
621.224,-1047.736,11.468
227.164,-814.716,-70.272
83.936,-615.856,-231.556
-36.6,-476.776,-322.568
-251.32,-368.684,-199.348
-491.904,-174.704,-177.388
-572.18,10.492,-247.416
-420.168,144.448,-239.12
-195.444,209.84,-215.452
11.956,277.916,-297.68
18.056,371.612,-372.1
-0.244,432.368,-388.204
246.928,467.016,-446.032
347.212,496.784,-544.12
428.22,499.468,-615.368
457.744,518.256,-731.756
429.44,511.912,-781.776
381.128,467.016,-697.108
299.144,393.084,-548.268
364.292,268.4,-318.176
354.288,220.576,-137.128
237.9,198.616,-37.82
116.144,159.576,93.208
268.156,51.972,292.556
497.76,-12.2,358.924
575.84,-58.804,366.0
679.052,-196.176,608.292
877.424,-320.372,842.044
1152.168,-367.22,891.088
1243.18,-366.488,843.752
1327.604,-426.756,824.72
1561.356,-436.028,804.468
1567.7,-448.472,815.692
1423.74,-520.452,878.644
1569.896,-562.908,785.436
1862.696,-567.3,621.712
1911.496,-586.576,557.54
1900.272,-617.32,497.516
1866.356,-553.88,235.948
1643.828,-455.06,-40.748
1483.764,-299.388,-346.236
1482.3,-116.388,-789.584
1404.464,10.736,-1004.304
1195.6,50.996,-887.916
933.056,92.476,-737.124
911.34,113.216,-667.828
930.616,99.308,-578.768
986.98,32.208,-334.524
979.416,9.028,-122.732
980.392,67.344,-134.2
957.944,100.04,-124.196
767.624,103.456,-54.656
722.972,99.796,80.032
961.604,30.988,233.02
1207.068,17.812,239.364
1361.52,1.464,190.32
1176.568,31.476,174.216
958.432,100.284,152.012
901.336,185.684,127.368
904.02,230.824,155.672
946.72,283.284,155.672
1014.552,354.532,79.544
1026.752,482.388,-48.068
958.188,498.492,-70.028
740.052,508.74,102.236
756.644,524.844,130.54
773.236,563.396,97.112
637.084,652.212,91.256
671.244,693.692,3.416
749.324,732.488,-61.732
731.756,755.912,-89.304
648.796,811.3,-101.504
455.548,780.8,-30.5
277.184,835.7,79.056
219.844,943.792,47.824
230.824,984.296,-68.564
189.832,954.528,-83.204
164.944,950.624,-58.316
120.78,921.588,-39.528
5.612,950.868,-22.204
-37.576,1071.404,-160.308
-46.848,1087.02,-211.06
60.268,1027.972,-172.996
59.536,989.908,-60.756
15.372,983.076,-25.864
-30.5,975.268,-1.464
-40.504,982.344,-10.98
30.988,991.616,-84.424
-3.904,999.912,-90.524
-31.476,1015.284,-69.296
-61.244,1001.132,-31.232
-98.576,978.196,20.008
-61.0,963.312,12.688
10.492,967.704,-27.084
58.56,1001.376,-85.156
-29.28,1017.236,-72.224
-70.028,1017.968,-64.66
-86.376,994.3,-36.112
-1.464,968.68,-39.284
24.644,973.072,-42.7
7.564,995.52,-59.78
25.62,1020.164,-101.748
-51.972,1007.476,-39.772
-43.188,972.34,-9.028
-5.368,974.536,-25.132
33.428,981.368,-67.344
-12.688,986.248,-47.58
-14.152,992.348,-57.584
7.32,1004.06,-85.4
-33.916,1004.548,-51.484
-17.324,995.52,-53.924
-15.86,981.368,-44.896
10.492,979.416,-38.064
14.884,987.956,-39.284
18.788,996.008,-35.868
16.348,983.32,-17.812
-4.148,977.22,-6.588
-5.856,979.66,-20.008
5.368,998.936,-59.292
-8.296,1010.648,-65.148
-11.712,995.276,-44.164
16.104,979.66,-30.5
6.344,978.684,-13.664
8.296,993.08,-35.624
14.396,1000.4,-56.12
-6.588,997.716,-44.164
-0.732,990.884,-49.532
-4.636,978.928,-45.628
10.004,976.732,-48.312
4.636,980.636,-46.848
-10.248,978.44,-42.944
-17.812,972.34,-32.208
2.196,975.756,-37.82
25.62,995.032,-75.884
12.444,1011.624,-86.132
-10.736,1014.064,-72.712
-19.032,992.104,-44.408
-3.904,976.488,-40.504
19.276,982.588,-55.876
27.328,994.788,-57.34
-0.732,1001.132,-45.628
-24.156,993.812,-28.304
-9.272,998.692,-37.576
5.368,989.176,-55.876
19.276,985.272,-58.804
-17.568,982.832,-26.352
10.492,993.08,-59.292
3.172,997.716,-63.44
-24.644,976.488,-19.52
-8.784,967.216,-20.008
24.644,980.392,-49.044
-1.708,996.984,-56.12
-3.904,984.784,-56.12
-3.904,969.656,-31.964
-7.076,965.508,-19.276
13.42,977.708,-42.212
13.908,982.588,-54.656
5.368,975.756,-44.652
-15.86,971.608,-36.356
-2.196,970.144,-46.36
1.22,962.092,-48.312
7.076,948.672,-37.088
-4.148,935.252,-20.74
-20.252,919.636,-1.464
13.42,924.272,-34.892
15.128,945.744,-53.924
-7.32,955.992,-47.58
2.684,959.896,-59.78
15.128,959.408,-52.216
7.564,955.26,-38.064
24.4,962.58,-60.756
11.224,971.608,-63.684
5.612,993.08,-83.204
-1.22,991.128,-83.936
0.732,984.052,-66.124
42.7,982.588,-97.356
18.056,970.876,-80.276
-2.684,964.288,-67.832
3.172,956.48,-76.128
4.88,964.532,-80.032
24.156,959.164,-83.204
12.444,957.7,-54.168
11.712,964.776,-57.584
48.8,985.272,-112.728
8.784,993.08,-98.088
-10.492,986.736,-78.568
24.156,986.248,-104.188
-2.928,967.704,-86.376
1.708,974.78,-99.552
8.052,967.216,-106.872
12.932,982.588,-96.38
28.548,985.272,-96.38
16.836,983.808,-65.88
29.524,986.736,-54.656
51.484,996.008,-71.004
64.416,1005.524,-82.228
68.564,1025.776,-77.348
85.156,1050.42,-94.184
81.984,1059.448,-101.26
75.64,1052.616,-98.82
74.664,1032.12,-91.744
75.396,1001.376,-56.364
83.204,985.028,-26.596
120.536,969.9,-30.5
105.408,972.584,-31.476
80.032,988.444,-35.38
73.2,994.788,-46.36
85.156,999.668,-56.364
71.736,1004.06,-50.02
86.132,1007.476,-60.756
114.436,1013.576,-64.172
108.58,1016.26,-53.436
98.576,1008.208,-36.356
131.028,1008.94,-44.652
132.492,1017.236,-61.732
101.016,1017.968,-53.924
128.588,994.3,-57.828
133.468,987.224,-38.552
115.9,994.544,-30.012
148.596,1003.572,-67.1
136.64,1006.988,-55.876
119.804,995.52,-30.988
118.584,989.176,-28.792
146.644,988.2,-56.12
138.104,997.472,-60.268
118.096,994.544,-47.58
126.148,991.616,-50.264
145.912,981.124,-54.412
161.772,978.684,-60.024
124.196,973.072,-33.916
125.66,967.46,-42.944
132.98,977.22,-72.224
111.508,980.392,-79.3
108.092,994.788,-93.208
125.172,1014.796,-114.68
133.712,1025.776,-117.852
165.676,1026.508,-124.928
140.3,1022.116,-99.552
145.18,1019.432,-98.576
161.284,1025.776,-103.944
177.876,1016.504,-95.16
173.972,1007.72,-83.692
155.672,991.86,-66.368
167.14,985.76,-70.516
157.624,987.224,-74.176
151.524,996.496,-96.624
149.084,997.96,-103.456
147.62,986.98,-96.868
146.888,971.608,-89.06
154.208,974.048,-98.332
126.148,980.148,-94.916
162.26,975.756,-112.972
149.572,970.388,-99.064
137.86,972.584,-86.376
153.476,980.392,-98.088
161.284,983.808,-103.7
141.764,985.272,-99.308
141.764,989.176,-113.704
156.892,971.852,-99.308
166.652,963.068,-87.596
165.188,966.972,-90.768
165.676,975.268,-106.628
151.28,974.536,-99.308
144.936,973.804,-96.38
143.472,987.224,-114.192
138.836,983.32,-106.14
145.912,972.34,-91.988
170.556,980.148,-108.58
171.532,991.616,-119.072
140.788,983.32,-91.744
161.528,971.364,-91.5
158.112,973.072,-96.624
152.256,973.56,-99.064
137.616,969.412,-90.524
156.648,958.188,-110.776
146.644,936.472,-99.552
123.952,918.416,-82.716
95.648,906.216,-61.488
13.42,899.872,-20.496
-88.084,881.816,19.52
-54.412,843.264,-23.424
170.556,796.66,-143.472
368.196,803.736,-266.204
328.912,826.428,-218.38
250.1,804.224,-163.236
275.72,781.532,-180.072
408.212,729.804,-219.356
440.664,599.752,-160.796
649.04,484.828,-106.384
669.78,352.336,20.984
610.976,252.296,105.164
764.94,87.596,98.82
956.724,-61.0,87.596
1249.768,-73.444,-44.896
1188.524,-57.828,-51.484
1065.06,-106.384,58.316
1075.308,-155.428,35.38
1143.14,-194.468,-0.488
1255.868,-183.488,-96.136
1334.192,-168.848,-187.88
1234.884,-240.096,-25.132
1207.8,-294.508,55.388
1181.204,-311.344,50.264
1157.536,-333.06,52.46
1172.42,-360.876,50.752
1212.192,-354.288,20.252
1296.616,-355.752,-2.44
1444.236,-385.764,-5.612
1551.596,-380.64,-45.872
1693.604,-351.116,-117.852
1793.4,-376.736,-61.732
2293.6,-546.316,68.808
2812.1,-704.916,10.004
2778.672,-842.532,121.024
2481.48,-1005.28,459.452
2414.868,-1093.852,619.272
2386.808,-1176.812,592.92
2109.136,-1167.784,397.232
1504.016,-1108.492,217.648
786.656,-953.064,97.112
379.664,-766.16,-62.464
274.256,-649.772,-153.964
141.032,-562.176,-136.152
-198.616,-409.92,-93.208
-405.772,-238.632,-140.056
-446.764,-53.68,-243.268
-280.356,137.86,-439.932
-72.224,301.828,-647.088
-35.624,382.592,-645.624
-98.82,436.516,-547.292
-114.924,497.028,-544.852
-28.792,544.852,-634.644
170.8,566.08,-749.08
323.056,544.364,-808.616
363.804,514.108,-812.764
339.892,436.516,-685.64
196.664,367.22,-488.244
176.412,303.292,-283.284
234.972,270.108,-144.936
215.696,244.976,-77.348
233.508,161.772,53.192
339.892,85.888,182.024
569.008,10.248,289.384
751.032,-81.252,463.6
775.188,-172.508,640.5
824.476,-220.088,777.872
966.24,-270.84,866.932
1169.736,-339.892,878.888
1386.164,-373.808,833.748
1475.468,-414.556,880.84
1345.904,-457.012,980.148
1279.048,-537.044,1006.5
1555.988,-560.224,884.744
1763.632,-553.636,762.744
1703.852,-604.144,680.76
1749.236,-607.072,518.012
1886.12,-554.612,236.192
1953.22,-468.968,-132.248
1864.16,-361.852,-400.16
1557.452,-234.728,-602.192
1349.564,-87.352,-764.452
1202.188,15.86,-884.256
1020.652,149.328,-984.784
1104.344,169.824,-874.252
1109.712,120.292,-662.46
1141.676,71.736,-476.532
1064.816,40.016,-331.84
917.196,0.732,-154.208
804.956,65.636,-132.492
809.836,129.808,-94.428
879.864,153.476,-41.48
999.18,144.204,30.256
1127.524,132.98,85.4
1089.948,84.668,192.272
905.484,111.752,268.156
802.76,172.264,236.192
890.6,247.66,173.728
1021.628,285.968,123.464
1163.636,335.744,80.52
1167.296,345.992,58.316
1019.188,352.336,103.456
793.976,417.484,201.788
797.392,457.988,196.908
896.212,508.252,123.952
929.64,537.532,94.916
870.836,575.108,61.732
813.496,631.228,18.788
732.976,680.76,23.18
648.308,666.608,99.308
661.728,657.092,146.644
835.456,696.62,66.612
784.46,750.3,-0.732
498.736,795.44,34.404
319.64,852.048,59.048
303.78,885.72,56.852
388.448,888.648,4.148
376.98,915.732,-2.44
273.524,949.892,17.568
232.288,974.536,6.832
157.624,981.368,17.568
120.292,962.092,40.504
114.436,978.684,51.972
184.22,1007.964,-44.896
102.236,1020.896,-39.04
141.276,1018.212,-40.016
34.648,993.08,53.436
-29.524,973.316,130.296
-4.88,963.312,73.688
40.016,976.244,-9.76
-8.784,1010.404,-17.324
-40.992,1016.992,-14.152
-37.332,1009.672,-26.108
-68.808,995.52,-0.732
-35.868,968.924,15.128
61.488,977.464,-22.204
80.276,971.364,-0.732
63.928,974.292,20.008
28.792,994.788,9.028
5.124,985.272,11.468
7.808,968.68,21.472
65.88,962.336,0.244
52.704,977.952,4.148
5.612,1010.404,2.684
-6.588,1012.112,3.904
30.988,990.64,3.66
60.268,981.124,2.196
59.292,984.54,9.272
67.832,996.252,5.612
59.048,1016.26,1.708
15.86,1015.528,18.3
11.224,999.912,19.032
36.844,984.54,4.392
70.272,1003.572,-27.816
31.232,1009.428,-13.664
5.856,998.204,25.376
1.22,967.704,58.316
37.088,957.212,38.796
97.112,975.024,-12.932
56.608,992.836,6.588
34.16,996.008,12.2
49.044,990.396,-8.052
15.372,976.488,25.132
22.692,969.168,33.916
64.172,983.32,0.732
50.508,1002.596,-3.904
36.356,1017.236,-18.3
25.62,1013.088,-9.028
16.104,998.204,5.856
27.328,983.32,10.248
29.524,990.396,17.324
32.208,999.18,6.832
35.136,1005.524,-10.004
30.988,995.276,-10.98
39.528,979.904,9.272
46.848,975.512,14.884
25.62,973.316,19.764
17.812,970.876,17.324
41.236,973.072,1.22
41.236,978.44,-1.708
44.652,986.492,-9.028
27.572,988.688,-7.32
13.42,985.272,1.952
35.624,975.024,-5.124
30.012,970.144,1.464
12.444,969.412,10.736
33.672,957.212,5.612
29.28,955.26,-3.904
30.5,966.972,-1.952
15.86,980.148,3.66
8.54,982.588,-10.248
33.428,971.608,-12.2
72.712,966.972,-16.592
22.936,963.312,18.056
36.112,953.064,20.252
33.672,957.7,10.492
26.108,958.188,10.492
-1.22,962.092,3.416
11.712,968.436,-13.908
-2.44,971.608,-3.66
-0.976,967.216,5.124
35.136,975.756,-23.424
41.236,985.516,-59.292
22.204,986.98,-51.24
37.088,982.588,-49.288
27.572,977.708,-24.644
-14.152,962.092,14.64
9.028,957.456,-8.784
36.112,951.6,-37.088
44.408,963.556,-36.6
4.636,964.776,-18.788
-29.28,948.672,9.76
-14.396,934.276,2.928
27.816,952.82,-39.528
-10.004,953.064,-34.648
-35.38,959.896,-29.768
-30.988,970.388,-22.204
-6.344,966.24,-52.216
-5.612,974.048,-22.692
-34.648,952.332,-48.556
-41.236,955.748,-30.5
-41.968,940.62,-26.84
-57.584,980.636,-24.888
-23.18,998.692,-48.068
-8.54,1010.648,-68.564
-24.156,1000.888,-53.924
-27.816,983.32,-14.152
1.708,984.54,-2.196
13.176,986.004,-5.368
-5.124,998.204,-13.908
-2.928,986.98,-24.156
-8.052,986.004,-1.708
3.904,1014.796,-15.372
16.592,1033.584,-29.768
24.644,1029.192,-40.748
20.74,1041.88,-37.088
3.416,1043.588,-3.416
31.72,1028.46,-30.5
-0.732,973.56,0.488
16.348,1006.744,3.172
45.384,1017.724,-20.008
44.652,992.348,-9.028
9.516,984.54,7.808
15.86,991.616,-5.856
26.108,947.94,-13.908
17.568,939.888,-3.172
-0.488,964.044,-9.516
10.492,975.268,-53.436
4.636,1000.4,-64.66
-9.516,970.876,-43.676
-15.86,956.48,-24.888
-1.464,960.14,-34.404
21.96,963.556,-68.076
5.124,1000.4,-52.948
57.584,1015.284,-93.94
50.02,1017.48,-74.664
8.296,997.716,-16.836
38.064,1012.112,-44.164
39.04,1007.476,-76.616
38.552,1015.04,-87.84
42.7,1022.36,-103.944
10.736,1045.54,-84.912
17.812,1051.64,-108.092
22.204,1057.252,-107.116
26.352,1052.128,-99.796
45.872,1034.072,-105.164
35.868,1009.916,-90.524
28.792,1019.92,-90.768
52.46,1039.928,-122.732
61.244,1047.004,-102.968
69.784,1037.244,-88.328
62.22,1035.536,-81.984
49.044,1033.584,-105.896
60.268,1015.528,-91.256
89.06,1035.292,-92.964
100.284,1048.712,-128.344
84.912,1049.2,-93.94
84.424,1034.56,-97.844
71.004,1026.02,-90.768
84.18,1011.38,-98.82
84.912,1010.16,-95.648
81.252,1006.988,-102.48
74.908,999.668,-93.208
83.936,984.784,-92.72
91.5,978.684,-82.228
86.132,988.2,-77.104
99.064,996.008,-104.432
91.256,990.396,-106.14
65.148,989.176,-81.496
88.816,973.56,-93.208
96.624,983.076,-89.792
95.404,999.912,-107.116
88.328,995.032,-107.36
76.616,976.488,-89.06
88.816,979.904,-98.332
92.476,991.616,-116.388
85.4,985.028,-104.188
76.616,973.804,-76.128
81.496,977.464,-93.452
81.496,960.872,-106.872
57.584,952.82,-84.424
61.244,989.176,-109.312
62.464,1005.28,-190.32
42.456,986.248,-158.356
41.48,981.612,-112.972
57.828,961.116,-118.34
92.476,932.324,-110.044
30.744,937.692,-99.552
-3.172,938.18,-109.312
100.528,914.512,-144.936
125.66,784.704,-102.236
246.44,759.572,-42.212
373.808,716.628,-66.124
237.9,690.52,-13.664
112.972,727.608,-113.46
317.444,526.308,-197.152
497.516,340.136,-151.524
513.62,203.252,-36.6
840.58,-149.328,-7.32
1332.972,-247.904,-232.044
1195.356,-85.156,-306.952
1050.664,-177.876,96.38
1081.408,-348.92,288.408
955.992,-365.268,148.84
1096.78,-289.872,-6.588
1217.56,-345.748,-122.732
1338.828,-302.804,-44.896
1301.984,-364.048,20.008
1093.364,-411.872,81.008
1202.676,-437.248,155.672
1296.86,-451.156,67.588
1418.372,-447.496,-6.344
1494.012,-493.612,49.532
1546.716,-498.736,91.012
1617.476,-506.788,96.136
1912.228,-516.304,32.696
2277.252,-658.8,46.604
2441.464,-706.136,132.004
2548.824,-762.744,173.728
2713.036,-879.62,222.772
2747.44,-1073.6,301.096
2392.42,-1179.496,399.916
2082.296,-1250.5,435.784
1725.812,-1223.66,342.088
1135.576,-1149.484,294.264
479.948,-922.076,163.968
118.34,-662.216,-91.256
36.6,-508.496,-226.92
-114.68,-435.296,-186.172
-354.532,-329.888,-180.316
-562.176,-146.644,-162.26
-579.256,19.032,-131.516
-406.504,172.752,-189.832
-39.284,249.124,-297.924
213.256,306.22,-325.984
198.86,380.152,-376.248
93.696,456.28,-439.932
181.292,550.464,-547.292
394.548,568.52,-617.32
609.756,565.836,-769.82
684.176,602.924,-955.26
546.804,597.312,-1046.516
396.256,571.692,-1019.432
329.4,478.484,-893.772
335.5,356.728,-627.568
268.156,244.976,-366.976
76.616,170.556,-156.648
0.0,95.648,23.424
111.996,64.904,120.536
339.648,5.856,194.956
444.812,-134.444,438.712
480.68,-248.392,722.484
571.204,-298.9,871.812
857.66,-350.384,931.836
1106.052,-450.668,1130.208
1227.564,-521.428,1229.028
1275.876,-571.448,1201.944
1463.268,-546.072,1175.592
1625.772,-576.572,1137.772
1564.772,-593.164,957.944
1626.26,-557.54,848.876
1947.12,-567.056,696.376
2335.08,-579.256,340.136
2317.756,-554.124,225.944
2060.824,-638.548,435.052
1931.748,-688.812,328.912
1734.352,-518.988,-151.524
1604.056,-342.088,-491.66
1532.564,-136.884,-739.076
1252.696,14.884,-1021.872
1016.016,223.748,-1146.312
952.088,258.64,-1005.524
1012.356,200.08,-823.012
1020.652,139.812,-609.024
857.172,159.82,-507.52
671.976,238.632,-490.44
665.632,230.092,-339.16
718.336,209.108,-198.372
754.936,190.32,-116.876
816.668,170.068,-5.856
901.336,134.2,149.816
1011.38,110.044,187.636
1118.496,175.68,153.232
1064.084,193.248,187.392
972.584,193.004,174.948
949.404,201.788,165.188
924.76,292.556,156.648
965.264,403.576,65.636
951.112,464.82,44.408
875.96,472.628,7.076
779.092,516.792,55.388
732.0,564.616,75.884
801.296,681.736,67.1
899.628,733.708,-100.772
930.128,772.748,-111.02
744.2,723.46,49.532
564.128,650.26,234.24
643.672,804.712,126.88
694.912,894.992,-19.764
569.496,861.32,-13.42
431.88,818.132,102.236
414.068,813.496,108.58
405.04,945.744,30.256
313.54,944.524,13.908
232.044,957.456,32.452
124.44,864.736,31.964
43.92,894.992,42.7
69.052,889.868,21.96
-30.988,928.176,115.9
-91.256,1025.288,149.816
-9.76,1043.588,0.0
-5.856,1010.16,-36.844
-108.58,986.004,-5.368
-182.756,977.708,23.912
-182.756,967.948,8.052
-163.236,943.548,22.448
-165.188,965.996,8.052
-145.668,1025.044,-84.424
-152.256,1032.364,-87.84
-225.7,1034.072,-12.2
-207.888,989.42,50.508
-88.084,961.116,20.984
-5.124,996.008,-25.132
-42.456,1000.156,11.956
-89.304,988.444,40.992
-104.676,1011.868,43.432
-135.664,966.484,65.148
-55.144,959.896,37.088
-17.324,992.104,13.42
-6.1,1007.232,-15.616
-63.684,998.204,40.26
-73.688,960.14,71.248
-89.548,971.364,97.356
-40.26,996.252,46.604
15.616,996.008,-33.672
-59.78,1004.548,14.884
-110.044,994.544,52.216
-86.132,981.856,40.748
-49.044,970.876,39.772
-91.744,971.608,58.316
-73.932,991.86,27.572
-28.304,1005.768,-21.472
-55.144,1002.84,9.516
-73.2,994.788,30.744
-98.82,960.628,41.236
-115.412,967.704,54.412
-69.784,970.876,29.036
-26.596,1002.352,-13.176
-62.464,998.448,-3.904
-83.204,969.656,46.604
-95.892,948.184,83.448
-100.284,960.14,60.756
-39.284,977.708,-9.028
-56.852,994.3,-4.636
-82.472,995.032,21.472
-83.692,983.32,37.088
-70.272,981.368,26.108
-73.2,994.3,21.472
-44.164,1007.476,-17.08
-45.384,997.228,-2.44
-81.252,992.104,47.092
-80.764,984.296,44.164
-64.904,980.392,28.548
-64.416,972.584,23.424
-42.7,1000.4,-11.224
-57.828,999.912,-13.42
-105.408,989.664,27.816
-93.452,955.992,33.428
-73.444,946.476,33.428
-49.044,964.044,15.372
-36.112,977.708,-15.616
-56.608,977.952,12.444
-85.156,987.712,22.936
-75.64,982.1,3.172
-53.68,961.604,-2.928
-86.376,933.788,48.068
-53.68,935.496,30.744
-39.528,940.864,1.708
-69.784,936.472,36.844
-70.516,928.908,27.572
-80.52,916.22,24.4
-90.768,922.564,33.916
-75.396,932.08,13.664
-89.792,986.248,-19.276
-58.316,1013.088,-78.568
-77.348,988.688,-42.944
-84.912,993.08,-4.636
-83.204,961.848,2.196
-97.356,948.428,22.936
-92.476,951.356,22.936
-63.196,984.052,-34.648
-76.372,988.444,-50.02
-84.912,989.176,-33.916
-95.16,973.072,-23.424
-121.756,950.624,-4.148
-107.116,941.108,-11.956
-122.488,931.592,-2.684
-98.576,934.764,0.0
-88.084,958.432,-37.82
-84.424,974.78,-76.372
-110.288,947.208,-73.688
-150.06,950.38,-5.612
-95.404,949.16,-44.164
-61.244,924.272,-24.888
-61.976,932.324,14.884
-49.288,935.74,-18.788
-61.488,955.016,-32.94
-70.76,979.904,-51.728
-63.928,973.072,-53.192
-73.932,986.004,-28.548
-74.908,983.32,-27.572
-49.776,1002.596,-60.756
-38.064,1012.844,-70.76
-80.52,1020.164,-49.044
-40.26,1010.16,-79.3
-24.4,1004.06,-69.784
-35.38,976.488,-41.968
-15.372,972.096,-12.444
25.376,999.18,-48.8
20.008,1029.68,-65.636
-15.128,1033.34,-91.744
-35.136,999.912,-74.42
-28.06,969.168,-33.184
15.372,960.14,-14.152
52.46,969.9,-30.744
29.28,984.54,-44.652
1.708,972.34,-36.844
32.452,963.8,-43.92
55.388,982.344,-79.056
34.648,1024.312,-70.76
49.288,1049.932,-77.836
44.896,1051.396,-79.056
24.156,1036.512,-75.884
12.688,1014.552,-44.652
33.916,1033.828,-58.072
38.552,1057.008,-104.676
46.36,1060.668,-135.42
0.488,1027.728,-107.116
10.492,997.96,-97.356
0.488,963.312,-51.972
46.848,962.824,-88.816
68.076,965.264,-124.196
33.428,962.58,-85.4
30.744,978.196,-73.932
103.944,1000.644,-126.148
82.96,1004.304,-79.544
67.588,1018.944,-66.368
110.044,1027.728,-108.58
92.232,1021.384,-81.496
83.692,1022.604,-42.944
98.82,1028.704,-63.44
104.188,1057.008,-82.228
105.164,1046.516,-95.404
91.988,1046.516,-59.292
76.616,1078.968,-82.472
92.476,1081.896,-137.86
94.184,1057.252,-108.336
80.032,1072.38,-104.432
70.76,1066.28,-124.684
67.1,1059.692,-128.588
57.584,1023.824,-99.552
77.348,1013.332,-99.308
99.552,995.52,-115.168
105.408,993.08,-115.9
78.812,958.676,-82.96
51.24,958.92,-58.072
72.224,949.892,-99.308
62.464,956.724,-100.284
71.248,977.464,-131.516
58.56,969.9,-137.128
78.324,961.36,-122.244
84.668,936.716,-93.696
64.66,945.012,-78.324
99.064,967.216,-126.636
103.944,971.852,-128.588
77.104,977.952,-123.22
66.124,980.148,-126.392
70.272,984.54,-131.028
87.84,1001.62,-157.136
85.644,1030.168,-175.192
61.0,1006.988,-147.376
60.268,974.292,-106.14
88.572,973.072,-96.38
110.532,964.532,-131.272
140.788,954.284,-136.884
149.084,947.94,-178.608
121.268,985.76,-133.224
135.176,921.1,-80.276
114.68,848.876,-44.896
125.416,904.02,28.06
328.424,855.22,-117.12
513.864,775.676,-156.16
518.988,732.488,-105.652
328.18,767.38,6.1
367.708,846.192,0.732
493.856,608.78,-102.968
457.012,487.024,-48.312
530.944,512.4,-49.044
732.488,324.032,-172.752
716.872,261.568,-157.624
684.42,109.068,-31.476
935.984,-38.552,-34.648
1040.172,-79.056,-102.236
957.212,-143.716,-21.716
1008.452,-244.732,95.892
1097.268,-282.796,92.476
1244.644,-249.856,-125.66
1088.972,-296.216,-33.184
1141.676,-322.08,91.744
1211.704,-366.488,37.82
1175.348,-343.796,-13.42
1215.608,-399.672,41.724
1229.028,-436.76,47.092
1277.584,-447.984,61.488
1283.928,-464.576,101.016
1408.612,-488.976,63.44
1518.9,-480.68,-7.076
1549.888,-488.244,-21.716
1626.26,-616.832,248.392
2117.676,-769.82,425.292
2590.304,-813.74,216.916
2791.36,-859.856,50.264
2766.228,-948.428,186.904
2852.116,-1122.4,271.816
2851.384,-1358.348,341.112
2447.32,-1574.288,448.96
1796.816,-1636.752,463.112
1135.332,-1559.404,446.276
591.944,-1372.744,290.36
189.832,-1007.964,-137.372
-152.012,-755.18,-355.752
-418.216,-552.416,-368.928
-787.144,-335.5,-392.108
-960.628,-134.932,-265.228
-753.716,104.432,-377.712
-337.452,324.276,-631.472
-76.616,430.66,-794.708
-31.964,463.356,-726.144
30.5,492.88,-755.424
156.404,522.892,-894.748
255.712,540.704,-971.12
368.196,500.932,-968.924
400.16,444.568,-935.984
273.036,352.092,-800.808
133.468,295.972,-635.864
68.808,215.452,-420.9
89.548,127.856,-217.16
141.764,13.42,-30.744
260.592,-60.268,158.844
347.7,-117.852,335.012
276.452,-233.02,665.388
338.184,-343.552,911.828
691.74,-397.72,1022.604
1000.4,-434.564,1133.868
1082.628,-532.164,1240.984
1092.876,-601.704,1323.212
1231.224,-618.052,1337.364
1273.436,-653.676,1302.228
1305.888,-779.092,1176.812
1528.904,-845.948,1134.6
2037.644,-928.908,1015.04
2158.912,-1032.852,769.82
2310.924,-1053.104,523.868
2421.212,-1020.652,280.844
2241.628,-925.98,-47.336
1930.284,-777.872,-313.296
1588.44,-621.224,-509.96
1524.024,-459.696,-791.048
1299.544,-209.108,-1172.908
1110.688,29.768,-1328.58
1039.196,-11.468,-1084.336
1039.928,11.224,-820.816
1163.148,84.424,-846.924
996.984,64.904,-683.932
854.0,18.3,-361.364
813.74,22.204,-222.528
878.644,78.812,-145.912
939.4,162.016,-200.08
981.368,171.776,-147.62
1008.696,162.016,-37.576
962.336,85.644,149.572
855.464,41.724,420.168
962.336,149.572,352.092
1069.208,336.476,45.384
975.024,349.652,38.308
828.38,288.408,131.76
786.168,427.732,320.616
1021.872,570.228,122.488
901.824,608.536,-2.684
643.184,674.904,5.856
564.86,730.292,152.988
682.468,779.092,178.608
636.596,762.744,200.812
651.724,849.364,90.768
524.844,965.996,8.784
271.816,952.576,76.616
400.404,986.004,95.16
481.412,874.496,-8.052
238.876,956.724,54.9
12.444,977.22,94.916
26.108,941.84,41.724
116.876,996.984,47.824
205.692,1005.768,-19.52
108.336,971.12,0.244
-77.592,962.092,-14.396
-157.38,945.744,59.292
-38.064,899.384,70.76
-33.184,881.816,93.696
32.452,1041.392,-6.1
-35.136,1062.62,-87.108
-186.904,1006.988,-55.144
-151.036,1005.036,4.392
-20.984,985.516,-71.98
-20.984,1010.16,-71.492
-82.472,999.424,-3.66
-91.256,970.876,43.676
-28.792,1014.552,-5.124
35.624,966.484,-50.264
35.136,944.524,-31.476
-18.544,941.596,59.048
-32.452,945.256,44.652
-75.64,917.684,68.808
-33.672,967.948,69.54
26.84,994.056,3.172
52.948,1006.5,-37.088
-31.72,996.984,2.44
-75.64,973.072,60.512
-7.808,966.972,22.448
-13.176,961.116,57.584
45.384,1004.06,23.668
45.628,1014.796,-39.772
-30.012,1009.916,-21.228
-57.096,996.74,-7.808
-82.472,979.416,40.504
-6.1,993.324,-15.128
70.76,1003.816,-77.592
7.564,1016.504,-1.952
-24.4,989.176,15.616
-28.304,987.468,38.064
-4.148,982.1,10.492
29.036,990.152,-25.376
15.128,1010.892,-24.4
-16.592,993.812,-19.52
-35.868,979.416,19.032
-10.492,948.428,45.384
21.228,971.608,44.164
39.772,1008.452,2.44
5.856,1021.14,-35.624
0.732,1005.036,-33.184
-36.844,989.908,10.492
-36.844,970.388,24.644
8.296,955.992,-19.276
13.908,976.488,-19.276
-14.396,981.612,-2.928
-19.764,978.44,-3.66
-20.496,986.004,-1.22
-10.248,995.032,-8.052
-27.084,975.756,-10.004
-3.416,968.924,-29.524
15.86,986.492,-17.568
-33.916,990.396,14.152
-43.188,968.436,9.028
-6.344,970.876,-6.832
43.92,995.032,-53.924
-4.88,997.228,-40.748
-20.496,1006.012,-12.444
1.708,976.0,-19.276
5.368,963.068,4.636
1.952,974.048,10.248
11.956,1018.212,-28.548
8.296,994.3,-28.304
17.08,974.78,-7.808
4.148,1003.084,-7.808
14.396,993.812,-53.192
-12.932,990.64,-19.52
0.244,981.856,-13.664
14.64,979.904,-24.888
-3.172,978.196,-6.344
-6.344,958.676,2.684
5.368,970.632,-4.88
-7.076,964.776,-17.08
-8.54,965.02,-13.908
-23.18,956.968,4.148
-8.54,961.604,-3.66
12.2,953.064,-15.128
2.684,945.012,-14.152
-8.052,954.772,-7.076
-11.224,957.456,0.0
1.708,951.844,14.152
37.82,962.824,-4.392
6.1,962.824,-7.808
-10.248,962.58,-19.764
-33.428,961.848,-18.056
-17.568,971.12,-23.424
-7.32,976.732,-32.696
-26.596,999.424,-30.5
-43.432,994.788,-51.484
-30.5,998.936,-55.876
-17.324,966.24,-18.056
15.616,959.408,-8.052
43.92,965.264,-28.304
-0.732,984.54,-31.72
-9.76,1000.644,-47.092
24.156,997.96,-71.492
26.352,990.64,-43.92
37.332,968.68,-33.916
37.576,977.22,-36.6
41.48,956.236,-39.284
48.8,956.236,-42.456
22.692,949.892,-44.896
2.196,980.148,-56.852
28.304,986.004,-93.452
10.492,1017.48,-82.472
40.26,1020.652,-75.396
69.296,1000.156,-71.98
33.428,956.724,-21.716
65.636,986.248,-32.208
121.024,969.412,-79.544
62.708,998.692,-16.348
68.808,986.736,-81.496
86.376,1010.892,-113.216
48.312,996.008,-76.616
71.736,989.908,-54.9
108.336,984.052,-85.4
111.264,1019.432,-77.104
69.052,1007.72,-23.18
70.028,1008.696,-20.252
21.96,1023.336,-46.116
0.0,1036.756,-74.908
77.348,1041.636,-139.812
52.704,1042.856,-129.32
20.74,1041.636,-65.392
18.788,1014.796,-60.756
31.72,1009.428,-70.272
76.86,1038.952,-101.26
76.128,1026.02,-96.868
43.92,1038.22,-98.82
39.528,1030.168,-101.748
20.496,1019.676,-55.876
43.432,1009.672,-57.584
126.392,1042.856,-123.22
83.936,1046.028,-88.816
74.176,1035.048,-64.904
68.808,1001.864,-75.152
40.992,986.98,-46.604
114.192,1024.068,-101.016
129.076,1044.32,-132.004
67.1,1039.684,-71.98
61.244,985.516,-70.028
48.312,954.04,-33.672
73.2,985.516,-74.908
116.144,1036.024,-159.332
123.952,1046.028,-122.0
103.456,1012.844,-48.8
110.776,987.468,-42.944
117.12,952.088,-60.512
107.848,952.332,-69.296
63.44,966.728,-81.496
57.828,1016.26,-160.552
66.124,1028.216,-179.096
72.224,1006.744,-111.264
82.716,986.492,-99.064
57.828,961.36,-85.156
75.396,959.408,-105.408
63.928,948.672,-89.792
75.152,963.556,-112.484
116.144,999.912,-165.676
87.84,984.784,-96.136
71.492,964.532,-77.592
90.036,942.816,-81.496
110.776,958.432,-88.816
162.992,969.9,-141.032
150.304,967.46,-144.936
142.252,901.092,-123.952
160.308,840.092,-118.096
211.304,890.356,-159.576
99.552,943.548,-173.484
93.208,846.68,-131.272
135.908,731.756,-126.88
-28.304,774.944,-122.976
-140.788,858.636,-54.168
-53.436,617.076,-41.48
268.644,605.852,-225.212
710.528,515.328,-669.78
646.6,458.964,-483.852
521.672,423.584,-206.424
537.776,457.256,45.628
463.356,23.424,130.784
1125.816,-147.376,-263.276
1733.62,-169.58,-625.616
1349.076,-88.816,-99.552
1177.544,-101.748,302.804
1005.524,-163.724,294.996
909.632,-107.848,47.092
1069.696,-168.116,-78.568
1194.136,-280.6,96.624
1215.852,-387.716,216.672
1178.032,-370.636,266.448
1297.104,-389.18,100.772
1503.04,-321.104,72.468
1442.528,-348.92,167.14
1448.14,-383.812,222.528
1578.192,-390.644,110.776
1938.58,-304.268,-44.164
2271.152,-280.112,27.084
2357.772,-411.14,234.24
2630.808,-536.068,238.632
3125.396,-526.064,-139.08
3253.252,-604.632,-321.592
2831.132,-816.18,-63.928
2416.332,-874.252,52.948
2113.528,-943.548,55.144
1626.016,-1041.636,90.524
940.62,-1016.748,169.092
365.024,-908.656,168.848
42.7,-752.008,-47.824
-109.8,-625.616,-12.932
-286.7,-488.244,-27.816
-498.004,-339.16,-36.112
-490.684,-189.832,-81.252
-306.22,-42.944,-207.888
-193.492,107.36,-354.532
-79.056,230.092,-491.172
-75.64,367.708,-607.072
-7.32,464.088,-690.032
137.86,499.956,-777.14
174.704,519.476,-836.432
238.876,497.028,-867.664
178.852,497.516,-897.676
25.864,462.868,-797.88
-111.508,396.5,-657.336
-64.172,304.268,-467.992
31.964,248.148,-317.444
-7.32,198.86,-165.432
187.148,61.244,-40.26
493.368,-70.272,215.208
647.82,-150.304,496.052
754.936,-191.784,744.932
880.108,-260.104,1075.064
1223.904,-270.108,1216.096
1361.764,-183.732,1082.384
1308.084,-250.832,1159.244
1418.616,-301.584,1126.792
1433.256,-281.088,1015.04
1431.792,-381.372,933.788
1632.116,-388.204,809.592
1836.588,-431.392,574.132
1917.108,-457.744,311.588
1940.044,-418.216,402.112
2003.972,-541.68,421.388
2071.56,-552.416,38.796
1676.036,-537.044,-200.324
1430.572,-290.848,-528.26
1398.12,-29.036,-1023.824
1355.908,75.396,-1214.632
1275.876,37.576,-1013.332
930.616,5.368,-845.216
661.728,62.708,-788.12
664.656,122.0,-659.776
857.904,116.632,-569.496
1033.096,146.888,-460.672
1050.664,148.84,-354.044
791.78,220.332,-357.216
618.54,287.92,-373.808
697.596,344.528,-293.776
921.588,283.528,-152.988
1054.08,167.14,24.644
1068.964,210.572,147.376
1029.68,320.128,53.924
957.212,398.452,-26.596
904.264,359.9,-66.856
950.136,432.612,-63.44
977.464,480.436,-89.06
919.392,441.152,-47.58
838.872,511.668,60.756
838.628,575.596,-17.812
787.876,630.252,-99.064
711.504,665.876,-140.3
648.796,693.448,-37.576
690.52,806.664,-36.844
748.836,898.408,-202.032
561.932,779.336,-127.856
508.008,849.12,-10.736
663.192,887.672,-85.644
702.72,936.96,-156.16
584.624,985.516,-112.24
423.096,894.748,12.932
399.916,934.52,-4.392
301.34,793.0,50.996
294.264,821.792,111.752
366.244,1049.2,-24.156
181.048,1046.028,-91.256
-41.724,1059.692,82.716
43.432,1042.124,114.436
229.604,904.508,-0.244
225.456,851.316,46.604
56.364,1016.504,65.88
-82.96,1042.856,22.692
-46.848,1024.312,0.0
-40.26,937.936,58.316
-4.392,962.58,54.168
-94.672,881.572,2.684
-198.616,892.064,61.488
-130.296,961.604,65.148
-5.612,965.996,-20.984
-4.148,964.044,-15.372
-111.508,957.7,64.904
-218.868,907.68,91.5
-165.188,940.62,26.108
-35.624,970.632,-54.412
-13.908,984.052,-57.34
-99.796,1047.004,-38.308
-154.452,1026.752,-37.82
-187.636,995.764,-14.152
-159.576,958.188,4.148
-76.372,980.88,-18.544
29.524,1012.356,-62.952
2.196,1005.036,-72.712
-107.848,977.708,14.396
-155.672,959.896,61.0
-163.724,921.832,59.78
-80.52,981.368,-28.548
-19.032,997.472,-86.132
-38.796,1012.112,-61.0
-91.256,1015.528,-16.592
-111.508,987.712,-9.76
-89.06,979.172,-13.908
-59.78,986.248,-32.94
-64.66,965.996,-29.524
-75.152,982.344,-16.348
-71.736,999.668,-32.94
-69.54,999.912,-31.72
-98.332,952.576,12.932
-76.372,950.868,9.516
-60.268,981.612,-18.544
-37.576,1003.816,-53.436
-81.984,996.74,-17.324
-101.016,990.152,-2.196
-88.084,976.732,-20.252
-49.044,989.176,-27.572
-42.456,980.88,-31.964
-61.976,992.348,-24.644
-98.82,973.56,-2.196
-106.872,956.968,20.252
-96.868,945.5,13.42
-65.148,948.916,-8.784
-21.472,998.204,-58.316
-53.68,1021.384,-74.664
-88.816,983.808,-28.548
-109.556,926.956,33.672
-78.08,943.792,17.812
-41.48,956.48,-40.26
-66.612,968.436,-29.28
-62.22,991.616,-42.944
-86.864,955.504,-5.368
-116.388,945.988,42.456
-84.912,941.84,0.732
15.128,945.256,-60.512
-39.284,947.94,-24.644
-85.644,971.852,8.784
-81.74,970.388,-8.54
-96.38,960.384,-4.148
-94.672,964.532,-6.832
-38.308,969.412,-49.044
-29.036,959.164,-35.136
-61.0,969.168,-9.516
-78.08,970.632,1.708
-86.864,970.388,23.424
-32.94,984.052,-8.784
23.18,984.784,-40.992
-13.908,977.708,-0.732
-69.54,972.096,43.188
-43.432,987.224,-8.296
-20.252,990.64,-38.796
-20.008,978.196,-19.764
-17.324,966.972,3.172
-21.716,957.944,6.1
-30.5,965.02,-7.32
-46.604,959.896,10.736
-36.112,981.368,-16.592
6.344,1024.556,-82.716
-29.036,1002.352,-57.584
-73.932,968.68,-3.904
-54.168,972.096,-16.104
-16.836,978.44,-27.084
-14.396,974.292,-31.476
-29.036,972.34,-37.576
-4.636,997.716,-71.98
-14.884,983.076,-34.16
-50.508,944.524,4.636
-27.328,959.896,2.196
13.664,999.912,-46.848
-4.392,987.712,-31.72
-19.52,977.22,-19.276
11.956,997.96,-35.624
20.008,998.936,-47.336
4.636,989.664,-54.9
-18.056,969.656,-8.54
-3.66,996.008,-34.892
-20.008,1016.992,-52.948
-40.748,1005.768,-52.704
-11.224,996.74,-47.336
36.6,1003.084,-57.584
10.736,989.176,-55.144
26.84,1001.376,-40.992
5.856,1019.432,-50.02
-18.056,996.74,-33.184
26.108,997.96,-64.66
40.504,996.252,-65.392
31.476,977.464,-42.944
44.164,994.788,-52.948
36.356,988.444,-52.704
20.008,985.272,-50.02
30.012,971.12,-78.568
30.5,979.172,-69.54
40.26,969.412,-78.812
55.632,998.204,-98.576
36.356,986.004,-99.796
30.988,997.472,-83.936
50.02,986.004,-61.976
52.948,998.448,-63.196
61.488,1022.848,-75.152
64.66,1061.644,-106.872
40.748,1068.476,-112.24
40.992,1059.448,-99.064
73.444,1060.18,-65.88
109.312,1075.064,-84.18
105.652,1052.86,-74.42
95.648,1046.028,-72.468
64.172,1018.7,-56.364
76.372,1025.532,-61.0
117.364,1044.808,-99.796
108.824,1061.4,-114.68
62.708,1044.076,-80.764
74.42,1017.724,-62.22
90.28,1003.816,-74.176
109.556,1025.532,-111.996
96.136,1000.644,-87.108
102.48,993.568,-67.588
91.744,971.12,-77.348
93.208,969.168,-69.54
109.312,987.712,-89.06
104.92,974.292,-94.672
71.492,968.192,-74.42
87.84,956.724,-85.4
101.016,952.332,-85.888
99.308,961.116,-85.888
109.312,964.288,-91.988
120.048,966.484,-102.48
90.524,959.652,-83.448
73.444,952.332,-74.176
120.048,975.756,-101.26
168.116,972.34,-129.076
154.696,955.26,-111.508
125.416,925.492,-49.044
133.956,922.808,-48.068
161.284,948.916,-85.644
187.636,965.996,-124.928
205.204,962.824,-121.756
155.916,937.204,-83.448
114.192,905.728,-66.368
155.672,892.796,-59.048
257.176,993.568,-148.596
286.944,941.596,-226.92
330.62,905.24,-184.22
323.788,867.664,-95.648
242.048,727.852,-42.212
195.2,811.056,-31.232
255.956,774.944,-102.724
423.096,692.96,-196.908
528.992,695.644,-202.764
587.064,539.24,-238.144
532.652,439.688,-190.564
554.856,466.284,-146.156
593.164,287.92,-148.352
866.444,173.728,-188.856
1297.836,238.388,-409.676
1349.32,50.508,-438.712
1130.696,-90.524,-133.712
1043.344,-64.172,123.952
1021.872,-72.712,128.344
1063.596,-198.128,-0.488
1186.572,-141.764,-70.76
1297.592,-171.288,-129.32
1311.988,-244.732,-76.86
1205.604,-285.48,-9.028
1229.76,-287.432,31.232
1386.164,-287.676,-12.444
1431.06,-298.656,-4.636
1573.556,-291.336,16.104
1753.14,-293.044,-131.76
1883.68,-266.936,-234.972
2225.768,-307.684,-108.092
2399.252,-415.044,14.884
2538.332,-489.708,66.368
2853.092,-515.084,-25.864
3151.016,-686.372,-114.192
3197.376,-1106.296,111.264
2710.84,-1358.104,399.672
2101.572,-1368.352,307.44
1350.54,-1331.752,152.5
700.524,-1148.996,112.24
201.3,-972.096,-59.048
-32.696,-794.708,-208.62
-296.216,-676.124,-176.168
-575.596,-477.508,-78.568
-683.2,-239.608,-139.812
-550.708,6.1,-232.044
-408.7,146.888,-373.076
-403.82,344.772,-563.64
-378.2,379.664,-500.2
-361.608,425.292,-406.504
-248.392,509.472,-495.808
-201.3,569.74,-569.984
-151.28,624.64,-707.844
13.908,637.328,-888.404
166.408,568.764,-950.868
205.692,477.508,-825.94
116.144,408.212,-600.728
-38.552,402.6,-529.968
2.196,324.032,-453.596
227.408,151.036,-234.728
364.292,20.008,8.296
386.496,-83.204,155.184
519.232,-161.772,292.556
832.04,-259.372,533.872
1087.02,-327.204,671.0
1122.644,-392.108,788.608
1241.228,-452.62,1024.8
1307.108,-478.728,1145.092
1228.54,-510.204,1077.748
1385.92,-521.916,962.336
1533.784,-523.136,919.148
1451.556,-571.204,877.18
1548.424,-611.464,776.896
1918.816,-649.284,817.156
2168.916,-725.9,700.524
1976.156,-730.78,504.592
1807.796,-688.08,382.104
1764.364,-595.36,13.664
1696.044,-452.62,-397.964
1652.612,-347.7,-639.28
1413.004,-149.328,-958.432
1113.128,59.292,-1108.98
893.772,101.992,-951.6
1014.308,132.004,-862.296
1151.436,147.62,-784.46
1138.748,56.12,-592.432
1007.964,69.784,-537.532
822.768,55.144,-402.844
682.224,57.096,-187.636
785.436,76.616,-1.952
960.384,107.116,128.832
1169.248,269.62,68.076
1091.656,403.82,-9.272
1018.212,79.788,-88.816
920.856,-84.668,31.232
863.76,243.024,205.448
947.94,348.676,54.412
958.432,497.028,-49.532
764.94,482.388,-13.908
702.232,380.884,19.276
844.728,504.836,35.624
889.868,636.108,-23.668
684.42,711.26,-84.912
422.12,818.864,-76.372
323.3,928.42,-91.5
398.208,813.74,4.392
615.612,748.348,91.012
798.368,1019.188,-73.444
672.22,1191.94,-281.088
293.044,949.648,-73.2
189.832,966.484,61.976
261.812,999.18,-33.184
283.284,849.852,-1.952
283.772,933.544,7.564
295.484,1158.024,-114.924
199.836,1083.604,-103.944
59.292,915.0,20.496
11.956,912.316,-6.588
78.08,1000.4,-167.628
173.728,999.668,-155.672
80.032,949.892,69.296
-49.532,989.42,144.448
18.3,1016.016,-0.976
14.396,915.976,-47.092
-107.848,911.584,11.224
-115.656,935.008,-17.568
3.66,1009.916,-100.772
-9.76,955.748,-38.552
-99.308,1004.06,15.372
-25.376,1061.888,-89.06
-13.908,1027.484,-68.564
-71.004,937.692,-10.492
-93.696,915.732,6.832
-32.94,952.82,-20.008
44.652,978.196,-24.644
76.86,999.668,-55.632
-7.32,924.76,7.32
-56.608,931.836,-9.76
-18.056,979.416,-72.468
-7.32,970.876,-34.648
-12.2,975.024,-36.844
-9.76,1001.62,-49.532
51.484,1019.92,-87.596
40.504,982.1,-30.744
-7.32,971.364,-3.172
-27.816,985.028,-31.232
-1.952,1005.28,-48.312
46.116,1017.968,-38.064
60.512,1021.14,-21.228
64.904,995.764,-8.54
35.624,967.46,29.768
48.068,1004.792,18.3
51.972,1029.436,-20.496
44.896,1041.392,-17.812
84.668,1036.756,-15.86
81.74,1020.652,-13.664
51.24,1000.4,5.612
68.32,995.764,-9.272
50.752,1017.236,-24.156
58.316,1006.256,-44.896
57.584,994.3,-11.224
75.884,1011.38,-23.18
63.928,1016.992,-16.104
49.532,987.956,-12.444
49.776,974.536,25.62
46.848,996.252,6.588
43.188,971.12,19.032
38.552,989.176,23.18
43.188,979.416,1.22
25.132,984.296,15.128
34.16,999.18,-2.928
47.092,1041.148,-33.184
36.356,1017.968,-8.052
57.34,979.904,38.064
50.508,964.532,61.732
31.964,964.776,52.704
41.48,1009.428,9.028
36.356,1015.04,-10.248
13.908,975.512,32.94
18.544,990.64,38.308
28.548,998.692,17.324
21.472,1021.14,11.224
28.792,1042.368,-50.264
1.952,1023.824,-13.664
9.272,1008.94,22.692
19.276,1002.352,27.816
-4.88,1026.996,10.736
22.936,1042.856,-20.74
3.172,1037.488,-22.448
-4.88,1047.98,-49.288
-5.856,1002.596,-1.22
6.1,1003.572,7.808
3.416,1022.604,-27.084
-27.328,1002.84,-8.296
-28.304,987.712,6.832
-20.008,1001.376,-1.464
-36.356,979.904,8.54
-31.72,973.804,29.28
5.368,1019.676,-11.224
-20.984,1010.404,-6.344
-28.548,995.52,0.488
-16.836,990.396,8.54
7.32,968.924,31.232
-16.348,941.596,49.288
-20.74,963.068,30.988
-3.904,1007.476,-11.956
-19.276,979.904,15.128
-12.932,964.288,37.576
0.976,971.12,30.256
-7.808,973.072,33.184
-23.912,967.704,34.404
-25.62,995.764,5.368
-10.004,1015.04,-20.252
0.488,994.544,7.076
-6.832,991.372,30.012
-17.324,992.348,10.248
-10.004,992.592,3.416
-15.128,972.096,17.812
-24.888,989.42,3.172
-3.66,996.252,-10.492
-16.592,996.74,-0.244
-1.708,978.196,21.228
3.172,976.732,24.644
-3.416,981.124,24.888
-5.124,992.836,19.52
3.66,996.008,1.22
-5.368,985.516,15.616
2.928,984.296,28.548
20.74,1004.304,4.88
2.684,994.056,8.296
14.396,992.104,9.028
19.764,994.544,3.172
19.52,994.544,16.592
11.468,979.66,18.544
8.052,993.08,8.296
2.928,994.788,-7.808
4.88,1006.256,-7.564
21.472,986.492,-3.416
14.64,974.536,18.544
30.744,1005.036,-7.808
23.18,997.228,-6.588
27.328,981.124,9.76
20.496,968.924,21.228
38.796,979.904,19.52
35.624,978.684,22.692
