acc_x[mg],acc_y[mg],acc_z[mg]
99.552,949.648,-114.192
81.252,940.62,-102.236
88.084,952.088,-112.24
110.776,956.968,-111.996
87.352,965.02,-83.204
78.812,940.62,-81.008
63.928,936.472,-68.32
61.244,927.932,-73.2
72.712,936.228,-84.912
73.2,953.308,-95.16
69.54,966.972,-91.5
66.368,968.192,-98.332
67.1,986.736,-95.648
83.204,983.076,-116.632
62.464,978.196,-105.652
64.416,978.684,-103.944
46.848,981.856,-97.6
43.188,984.296,-106.14
74.176,990.64,-112.972
84.668,993.324,-114.68
98.82,999.18,-116.144
96.868,1015.04,-104.432
107.604,1015.04,-95.16
107.116,1006.5,-89.548
114.924,995.764,-98.088
99.308,993.812,-91.012
97.844,987.224,-89.06
80.032,984.296,-91.256
92.476,989.42,-101.748
69.784,1001.864,-98.332
78.568,1007.72,-98.332
77.348,1017.48,-100.04
98.088,995.032,-113.704
70.272,969.656,-129.564
33.428,971.852,-138.592
52.216,987.468,-110.532
31.232,973.804,-93.696
27.816,984.296,-93.696
70.272,1016.26,-82.96
65.88,1018.456,-73.932
58.804,994.788,-74.664
22.448,987.712,-43.188
14.64,998.448,-36.6
27.572,1000.888,-44.652
65.392,1021.384,-63.684
63.928,1024.312,-50.02
38.308,993.568,-39.284
20.008,963.556,-58.316
7.32,963.312,-57.828
6.1,993.812,-49.044
18.544,1008.94,-61.244
36.6,1013.332,-93.208
16.592,1002.84,-98.332
-29.768,976.488,-78.08
-40.016,965.02,-68.076
-23.18,954.528,-85.888
-8.052,962.824,-107.36
14.884,985.272,-101.992
-0.976,993.568,-80.52
9.028,986.248,-73.932
-12.444,964.288,-71.736
5.856,954.04,-103.7
-1.952,967.948,-81.984
18.544,971.608,-74.176
3.172,960.384,-74.908
9.516,956.236,-71.004
-9.028,950.136,-57.34
16.104,954.284,-70.028
-8.54,959.408,-39.528
17.324,967.216,-60.024
-13.42,980.148,-42.7
1.952,1001.864,-23.668
14.884,1020.652,-40.748
22.448,1022.604,-50.752
22.204,1029.436,-54.9
-14.64,1015.528,-62.464
-9.028,1005.28,-85.156
-13.42,1008.696,-96.868
-9.516,1010.892,-113.704
28.548,1020.164,-135.664
7.808,1018.212,-109.068
26.84,1009.672,-112.972
-28.548,996.252,-90.768
-37.088,972.096,-94.672
-15.128,978.44,-91.744
-5.856,972.584,-95.404
1.952,1005.28,-75.396
41.48,1006.744,-68.808
39.04,1026.508,-58.072
26.352,1034.072,-30.5
57.096,1016.504,-63.684
30.5,1009.428,-78.568
26.596,1013.82,-75.152
26.84,1001.132,-72.712
8.052,969.656,-90.036
4.148,960.14,-115.656
5.368,967.704,-157.136
4.392,993.568,-153.232
25.864,1005.036,-131.76
34.892,1000.644,-156.404
49.288,1017.968,-150.06
84.668,1043.588,-122.488
92.476,1021.628,-112.24
74.42,1001.62,-108.092
42.944,974.048,-68.808
34.16,921.344,-72.956
35.38,906.216,-110.288
13.664,937.204,-107.36
19.52,961.116,-123.952
-0.488,955.26,-118.34
-38.308,930.128,-97.112
-133.224,913.292,-74.42
-163.724,897.676,-59.292
-160.796,907.924,-61.244
-25.376,943.792,-90.768
84.18,991.372,-57.34
390.644,1094.34,-243.268
656.848,1006.988,-448.96
674.904,864.98,-388.448
571.692,869.372,-333.548
233.264,847.412,-108.824
15.372,884.5,-116.388
370.148,702.72,-217.404
690.52,558.272,-243.512
580.232,458.232,-176.656
641.72,292.556,-74.42
772.26,129.076,172.508
870.836,29.28,148.84
1207.312,-95.648,-97.356
1386.164,-235.704,-480.192
1150.948,-111.02,-143.472
894.016,-215.94,204.228
1095.56,-68.564,35.624
1362.74,-67.832,-144.936
1148.996,-84.668,-19.52
1064.572,-145.912,54.168
979.904,-239.852,157.38
1010.648,-327.204,195.2
1184.132,-355.996,91.012
1087.996,-317.688,52.216
1229.028,-255.224,6.1
1168.516,-198.128,-21.716
1180.716,-170.312,-0.488
1349.808,-198.372,-33.184
1389.824,-262.544,-10.492
1601.128,-330.62,3.172
1825.852,-299.144,28.06
2118.896,-326.716,-10.736
2665.944,-565.104,-136.396
2987.048,-790.072,-80.52
2816.004,-1015.772,48.312
2391.688,-1174.616,209.596
1761.436,-1128.5,344.284
1000.4,-900.116,318.664
264.008,-745.176,234.728
-108.824,-427.0,73.444
-383.08,-199.836,-104.676
-471.896,-42.212,-222.528
-364.048,45.628,-364.292
-239.12,157.136,-492.88
-13.42,222.528,-636.596
174.704,218.868,-597.8
275.72,251.808,-621.224
331.84,301.096,-687.836
348.188,368.928,-813.008
440.176,388.448,-966.484
454.572,347.944,-896.212
453.108,290.116,-848.144
355.508,254.004,-788.852
76.86,303.048,-721.02
-45.14,247.66,-480.192
106.628,126.148,-112.484
267.668,32.94,99.796
278.648,-75.152,401.136
415.044,-227.652,765.672
800.076,-348.92,1006.5
1096.536,-456.28,1143.384
1250.5,-537.532,1277.584
1368.596,-605.364,1378.112
1291.004,-663.192,1446.188
1440.82,-668.56,1258.064
1612.596,-694.424,1068.72
1797.304,-728.34,844.972
2033.74,-747.86,531.92
2004.216,-724.924,255.956
1669.204,-614.148,-14.64
1464.0,-430.904,-368.196
1423.008,-209.352,-829.844
1268.312,-50.264,-935.008
1068.476,74.42,-926.956
1090.436,119.56,-902.312
1106.052,86.376,-759.328
972.096,-6.1,-404.796
746.884,-118.34,-63.684
713.944,-198.86,172.02
798.368,-200.08,204.96
912.072,-178.852,251.564
1047.248,-138.592,285.968
1118.984,-100.284,256.932
1044.564,-80.764,222.04
924.272,-20.74,256.444
848.388,-10.248,312.076
882.06,36.6,229.848
1080.676,80.032,50.996
1177.3,131.76,-71.004
1190.232,156.648,-73.932
1012.844,256.932,71.492
851.072,243.756,83.936
752.496,304.512,80.032
727.608,359.9,69.052
789.34,402.6,83.936
926.224,486.292,2.44
918.904,589.504,-24.888
801.052,671.732,-124.928
582.672,706.624,12.688
655.384,738.832,109.312
755.18,757.132,57.34
825.452,861.808,-236.192
461.892,815.204,-106.384
331.596,839.848,-126.88
347.944,913.048,-102.968
399.916,1004.06,-202.764
238.388,1027.972,-149.328
188.856,1085.068,-25.132
234.24,1061.4,87.84
145.668,1017.236,103.7
14.64,956.48,23.424
7.564,959.408,-68.808
45.384,990.396,-0.488
62.464,1011.624,-61.732
16.104,1005.28,-135.664
-99.552,1023.824,-48.068
-128.832,1006.012,-16.104
-208.864,1025.288,-0.244
-127.124,1070.672,-78.08
-33.672,1072.868,-158.6
-74.664,1042.856,-131.76
-110.776,1026.996,-103.456
-122.732,998.204,-98.332
-85.156,1004.548,-115.412
12.444,1011.38,-145.912
-2.928,1026.264,-99.796
-11.712,1021.872,-107.116
-29.28,1007.476,-107.604
-63.928,988.688,-98.576
-24.644,991.372,-140.056
18.056,996.984,-112.972
42.212,999.424,-78.08
47.092,997.472,-91.256
37.576,998.448,-75.396
20.496,987.224,-77.348
-0.244,979.66,-91.012
3.172,976.488,-101.016
7.076,984.296,-95.404
9.516,996.984,-107.36
5.856,1007.964,-91.012
35.38,1006.256,-104.92
36.112,999.912,-113.46
14.64,997.228,-90.524
14.884,989.42,-96.868
40.504,989.908,-118.828
16.348,995.032,-118.828
5.856,1000.888,-89.548
31.72,996.74,-99.064
19.764,987.956,-116.388
9.028,990.884,-108.58
14.152,990.64,-99.796
16.592,991.128,-92.72
35.38,990.64,-98.576
40.992,988.688,-95.892
28.06,985.516,-78.324
30.5,984.784,-96.624
25.376,985.516,-92.476
19.764,992.104,-81.74
33.428,998.448,-111.752
26.108,1004.06,-109.312
31.232,1005.036,-90.036
30.5,1001.132,-101.504
34.404,995.52,-102.724
34.16,995.52,-94.184
34.404,995.764,-89.304
28.06,982.832,-89.792
35.136,973.804,-91.744
34.404,969.656,-87.84
21.228,969.9,-87.352
28.304,977.708,-91.5
24.644,979.172,-86.62
15.86,983.076,-89.792
40.016,987.956,-98.332
39.04,992.592,-102.724
26.352,998.204,-95.892
34.16,999.668,-83.204
42.944,1001.62,-79.3
31.964,988.444,-87.352
30.256,983.32,-97.112
33.672,987.468,-97.844
22.204,996.008,-90.768
30.744,991.616,-98.088
15.128,984.296,-93.452
24.4,978.196,-105.896
25.132,984.052,-105.164
43.432,984.54,-107.116
39.284,983.32,-93.94
20.74,974.536,-73.932
16.592,959.408,-72.712
32.452,954.284,-97.844
24.156,952.576,-90.28
27.084,955.504,-83.448
17.812,951.112,-85.644
25.62,949.404,-102.724
35.38,951.6,-111.752
21.472,940.864,-95.892
9.028,932.812,-87.108
8.54,918.172,-88.328
19.276,908.656,-75.64
51.972,907.68,-78.812
50.508,904.02,-84.18
41.724,896.212,-71.736
38.796,888.892,-67.832
44.896,896.456,-74.42
42.7,909.144,-80.764
56.12,927.2,-83.936
67.588,938.668,-79.056
65.392,944.524,-86.62
78.324,943.304,-101.26
85.4,937.448,-102.724
101.016,933.056,-108.092
122.976,934.764,-107.604
136.152,936.96,-114.192
122.244,925.98,-112.972
108.824,919.636,-110.044
135.176,928.664,-104.432
151.768,952.332,-95.892
148.352,973.56,-87.108
174.46,984.54,-103.456
192.76,1003.572,-121.756
209.352,1036.268,-124.196
218.868,1065.792,-128.588
224.236,1087.996,-127.612
254.98,1095.072,-170.312
257.664,1103.368,-174.704
272.304,1113.128,-167.384
271.572,1112.64,-157.136
277.428,1092.144,-164.212
279.624,1075.064,-151.768
280.356,1060.18,-112.24
297.192,1045.784,-120.78
364.048,1027.972,-127.612
367.708,1017.968,-96.624
313.54,983.32,-73.444
231.556,953.064,-47.58
172.996,912.072,3.66
128.588,880.352,44.408
219.112,816.18,36.112
557.54,704.184,-184.22
863.76,631.472,-431.88
708.576,580.476,-389.912
421.632,679.784,-210.084
362.828,671.732,0.976
621.468,608.292,70.272
896.456,425.048,-151.768
754.204,244.0,-302.316
880.84,331.84,-335.5
767.868,236.436,-103.456
840.092,119.56,220.82
1109.712,-48.8,-30.5
1051.884,-201.056,-309.148
1052.128,-165.432,-277.672
1263.676,-194.956,149.816
1337.852,-183.0,204.96
1537.932,-339.648,-172.752
1452.532,-460.672,-159.088
1614.792,-341.356,-19.764
1643.828,-286.212,-44.408
1554.28,-302.56,57.828
1631.628,-377.956,71.492
1685.308,-430.172,79.3
1813.652,-476.288,70.516
1932.724,-474.824,73.444
2309.704,-544.12,-141.276
2522.96,-664.412,-217.404
2353.38,-791.78,-100.528
2094.008,-1009.916,5.124
1718.248,-1102.148,159.332
1277.096,-1090.436,172.264
771.772,-959.896,102.236
236.68,-722.24,-36.844
-113.704,-440.176,-221.308
-280.356,-214.964,-366.732
-335.988,-13.176,-456.28
-280.112,109.068,-575.108
-125.416,159.82,-652.212
39.04,180.072,-645.38
71.004,220.332,-610.0
94.428,202.764,-480.924
156.648,171.044,-419.68
217.648,173.728,-353.8
132.98,203.74,-288.896
86.376,208.62,-260.104
10.248,244.976,-309.636
136.152,193.98,-190.32
276.452,71.98,81.008
441.396,-72.712,304.268
373.076,-163.724,479.704
318.42,-216.428,727.608
615.124,-317.688,1061.156
1188.28,-455.304,1155.34
1399.096,-613.904,1260.748
1523.292,-737.856,1436.916
1646.756,-816.668,1573.068
1875.14,-873.52,1368.84
1866.112,-910.12,1108.004
1895.392,-871.568,767.38
1717.272,-710.284,329.644
1492.548,-467.504,-183.732
1407.392,-235.948,-597.312
1319.308,-79.3,-787.388
1226.1,-19.52,-774.7
1165.588,-69.296,-604.876
1049.444,-99.796,-508.008
965.996,-63.684,-492.148
1040.66,-47.58,-325.74
1034.316,-71.736,-218.624
905.24,-80.276,-93.208
874.008,-111.02,-27.572
873.764,-103.944,29.524
903.776,-97.356,40.016
977.952,-112.972,105.896
1021.384,-142.252,168.116
1049.444,-142.74,187.636
1055.788,-141.52,223.748
1012.844,-170.556,262.544
1010.404,-149.328,270.84
1050.908,-128.588,248.88
1089.704,-122.732,274.988
1107.272,-124.44,290.116
949.404,-132.736,253.028
900.848,-84.424,235.216
999.424,-39.528,186.416
1027.24,-5.856,240.34
1032.12,9.76,209.596
941.108,19.764,191.052
915.976,65.148,134.688
1015.284,135.42,43.92
1019.188,193.004,56.364
1013.82,212.28,66.856
963.312,269.132,85.156
771.284,313.296,111.264
798.124,307.196,-0.244
886.208,389.912,-7.076
917.928,416.264,67.1
786.9,501.908,185.44
785.436,509.472,95.404
923.296,534.604,1.22
893.284,556.564,71.736
794.22,582.428,67.588
748.836,642.94,-28.06
681.004,696.864,58.072
716.14,761.036,9.516
615.612,820.572,-40.016
645.136,904.508,-74.908
631.96,927.688,0.244
411.628,871.324,124.196
409.92,894.016,50.752
400.892,915.0,-20.984
388.448,964.288,-3.66
345.26,947.696,52.216
391.376,986.736,-48.556
329.644,957.456,30.256
198.372,965.752,73.444
276.696,1003.084,-66.124
275.72,1046.516,-72.712
242.78,1046.272,-27.084
204.716,1037.488,-23.424
216.916,1018.7,-61.244
233.508,1061.4,-166.896
150.548,1064.084,-79.544
125.66,1058.96,42.7
132.492,1023.092,45.384
111.508,993.812,-51.484
62.708,977.708,-113.216
69.54,982.344,-63.196
89.06,1004.304,-11.224
84.18,989.664,-16.836
142.008,1016.748,-55.632
89.548,1015.528,-46.116
51.728,980.148,-2.44
83.204,976.488,-3.904
108.824,999.18,-42.944
106.14,997.96,-28.304
109.068,983.564,-11.224
93.452,977.22,-13.42
57.828,965.264,9.272
57.828,948.672,0.732
112.972,977.952,-34.648
110.776,986.492,-33.184
83.448,985.516,-55.876
52.216,979.416,-29.036
86.376,981.368,-35.136
125.904,993.568,-41.236
131.028,991.86,-26.84
104.432,957.944,6.1
102.236,941.596,10.248
127.368,976.244,-65.392
64.172,971.12,-13.664
88.572,977.464,4.392
110.776,978.928,-11.224
131.028,979.66,-24.888
139.568,989.42,-31.232
113.948,992.348,-19.032
124.928,999.668,-5.368
110.532,987.712,8.296
118.096,976.976,-22.204
131.028,991.372,-20.496
123.22,991.86,-11.468
129.076,992.592,-26.352
114.68,989.176,-5.612
115.656,994.788,-30.744
86.376,980.88,-27.328
122.0,996.008,-38.552
126.636,999.18,-34.648
129.32,995.276,-27.816
152.744,999.424,-19.032
125.416,991.616,-10.98
121.268,987.224,-40.992
111.02,984.052,-31.72
111.996,985.028,-34.648
125.66,1001.62,-42.212
139.812,1006.256,-43.92
122.0,993.08,-18.3
125.172,991.128,-42.212
131.76,988.2,-48.8
110.044,978.44,-26.596
128.344,985.76,-31.232
139.08,988.2,-38.552
112.484,974.292,-27.084
124.928,985.76,-44.408
145.424,1010.648,-81.74
122.488,1005.28,-39.284
127.124,998.448,-30.256
145.668,989.908,-56.608
127.124,984.784,-40.26
119.072,980.636,-23.668
131.028,981.612,-40.992
136.64,981.612,-37.576
130.296,976.976,-30.012
135.664,976.732,-35.136
135.176,983.564,-32.696
129.32,977.952,-50.02
129.076,986.736,-48.8
142.74,987.956,-52.704
122.488,976.0,-23.668
135.664,976.976,-48.312
111.264,966.24,-45.628
124.928,976.732,-59.048
133.712,983.32,-46.36
138.104,980.636,-35.136
118.828,973.56,-32.452
129.076,971.12,-40.748
131.272,970.876,-40.016
141.032,986.98,-70.76
121.756,985.272,-38.308
129.808,982.344,-36.112
151.28,971.608,-44.896
173.24,970.388,-32.452
167.628,961.848,-36.6
141.52,928.908,3.172
144.936,894.26,-8.296
168.604,881.816,-36.112
165.188,878.156,-35.38
157.624,869.128,-19.032
168.36,850.584,-21.472
176.412,832.284,-37.332
151.036,819.108,-17.324
123.952,811.3,-1.22
127.124,825.696,-28.548
141.032,838.628,-70.76
172.264,873.52,-78.812
135.664,855.708,-49.044
119.56,826.916,-30.256
116.632,815.692,-65.148
141.52,852.292,-88.816
113.704,847.412,-29.28
111.264,839.36,-46.36
111.752,841.068,-105.652
92.476,821.304,-114.68
133.468,851.804,-73.688
221.308,952.82,-101.504
174.704,955.504,-80.52
202.764,1006.256,-110.044
269.376,1097.024,-142.252
287.188,1191.452,-143.96
305.488,1270.752,-136.396
341.844,1336.144,-176.412
358.192,1381.04,-217.648
355.02,1382.016,-214.476
408.212,1369.816,-215.452
388.448,1308.328,-217.648
392.596,1227.564,-170.312
366.0,1115.568,-115.412
368.684,1004.06,-162.748
349.652,919.148,-127.856
324.52,826.672,-78.568
378.688,769.576,-52.46
505.812,774.7,-78.568
422.12,721.752,-71.004
344.528,638.548,-79.056
439.688,513.864,-121.268
650.26,503.128,-96.38
864.004,479.46,-209.84
799.344,451.888,-171.776
741.272,404.552,10.248
606.096,338.916,174.704
758.84,125.66,-15.372
1412.028,174.216,-568.032
1277.34,216.916,-331.108
945.988,170.556,147.132
1209.752,167.872,30.988
1238.3,89.06,-102.236
1202.92,-8.296,-100.528
1331.02,-26.596,1.22
1360.788,-51.484,111.264
1234.64,-130.54,130.54
1206.336,-171.776,98.82
1361.276,-140.788,38.796
1535.004,-116.388,79.544
1575.508,-124.684,96.624
1649.44,-144.204,81.008
1831.952,-184.952,175.924
2376.316,-297.924,107.36
2774.28,-620.98,-33.184
3027.552,-761.28,124.684
2920.436,-986.492,202.764
2375.828,-1141.676,268.4
1735.084,-1138.26,377.468
1158.024,-1131.184,458.476
609.512,-1028.948,376.004
-13.42,-706.136,-3.66
-497.516,-321.592,-303.536
-695.156,-39.04,-383.324
-644.16,100.772,-415.044
-227.896,110.044,-465.796
92.964,42.944,-407.236
151.28,56.364,-415.776
60.756,212.28,-454.084
11.224,317.688,-544.852
179.34,376.492,-619.272
317.688,407.724,-736.88
348.188,401.624,-784.216
345.016,416.996,-776.896
322.812,385.276,-726.876
325.74,287.432,-579.744
393.816,191.052,-341.6
273.768,119.072,-21.472
314.028,72.712,210.328
319.396,29.768,431.392
352.336,-31.476,608.292
661.972,-81.74,783.972
935.252,-148.352,925.736
1057.008,-224.236,1050.908
1199.504,-311.588,1148.508
1366.888,-378.688,1230.004
1472.296,-429.684,1210.972
1580.632,-447.984,1145.58
1687.016,-498.248,1070.916
1818.288,-567.056,958.92
1911.984,-569.984,854.244
1886.852,-528.748,500.444
1723.86,-474.092,198.128
1521.096,-303.536,-152.256
1317.112,-69.052,-617.32
1118.496,106.872,-833.992
990.152,196.42,-804.956
951.844,174.216,-726.144
978.928,83.692,-514.84
1015.772,-5.612,-263.032
910.12,-70.516,-15.372
845.216,-91.988,146.4
845.46,-56.608,155.184
846.436,58.072,105.896
871.324,143.716,46.36
934.032,114.924,113.948
994.788,53.924,267.424
989.42,-13.176,324.52
984.784,-38.308,308.172
923.784,4.148,329.156
947.208,84.18,275.232
925.492,130.052,224.968
822.768,176.656,327.448
984.784,175.436,309.392
1059.936,176.412,197.396
967.216,200.568,175.68
834.48,219.844,159.82
860.1,241.072,186.416
963.556,305.732,222.284
998.936,315.736,271.084
893.04,274.256,216.916
949.892,322.324,115.168
1004.06,411.384,68.808
973.56,459.696,8.296
768.356,471.896,22.448
558.76,570.716,-69.784
556.32,696.132,-97.6
673.44,796.66,-24.888
663.192,856.928,1.22
595.604,876.692,-46.116
474.824,870.836,38.308
397.72,949.16,-39.528
406.016,959.408,-48.8
416.508,992.836,-61.732
432.124,1038.708,-115.656
336.232,1060.912,-150.06
236.924,1026.996,-71.98
178.852,976.244,-22.692
216.428,1068.476,-106.14
241.804,1109.468,-118.584
203.496,1077.26,-38.308
147.132,1045.784,-126.636
222.284,1070.428,-127.612
245.22,1019.432,-33.428
202.276,941.108,-37.576
192.272,934.032,-45.384
229.36,940.62,-36.112
218.38,953.064,-44.652
201.788,993.568,-51.24
183.0,996.74,-41.968
176.412,1004.06,-72.712
150.548,994.056,-130.296
160.552,1006.988,-112.972
186.172,1018.7,-104.432
187.392,1028.46,-110.532
189.344,1035.536,-115.168
144.448,1003.572,-115.656
101.016,968.192,-123.952
124.928,978.196,-126.88
168.604,984.54,-83.448
183.488,970.388,-60.512
183.976,973.804,-81.008
162.748,980.636,-94.916
172.264,990.152,-87.596
169.58,984.54,-75.396
188.124,1001.62,-97.844
194.712,1013.088,-105.896
186.416,997.472,-71.004
180.072,991.616,-84.668
156.648,1000.156,-113.216
141.52,987.468,-94.428
162.504,971.608,-54.656
178.852,971.852,-61.976
161.284,968.68,-91.744
144.204,965.02,-76.372
156.16,992.836,-79.544
152.744,979.172,-61.0
168.36,977.952,-66.856
166.164,980.392,-61.0
157.868,962.824,-44.408
158.112,958.432,-40.748
160.064,976.488,-58.072
132.98,977.22,-71.248
113.948,961.604,-52.948
146.156,970.144,-40.992
158.112,983.076,-64.172
143.228,992.592,-66.856
143.228,990.152,-50.752
145.18,984.296,-45.14
133.956,969.412,-47.336
151.524,989.664,-53.436
140.544,986.98,-57.34
137.128,985.028,-43.92
156.16,996.496,-50.752
154.452,993.08,-56.608
158.112,1001.132,-54.656
140.544,1000.156,-76.128
134.444,975.268,-53.192
139.08,966.24,-59.292
129.808,954.284,-78.568
147.62,980.148,-74.664
132.98,971.364,-52.704
122.976,961.116,-65.148
131.516,958.188,-83.936
135.908,965.996,-90.524
134.444,978.44,-76.372
156.648,981.856,-71.004
149.572,957.944,-62.464
150.792,941.108,-53.924
128.344,925.736,-64.172
120.292,935.496,-77.836
104.92,922.076,-82.228
124.928,911.828,-54.656
150.304,920.856,-57.096
155.428,924.516,-73.2
155.672,936.472,-78.324
131.272,937.204,-89.792
104.92,913.536,-104.432
131.516,912.316,-99.552
134.688,881.084,-82.228
141.52,873.032,-90.768
137.86,836.188,-53.192
150.06,831.308,-59.292
178.608,867.42,-84.18
183.976,888.404,-99.308
186.172,870.104,-84.668
202.032,859.124,-87.352
208.864,844.484,-92.964
221.796,819.596,-89.06
231.8,814.716,-101.992
245.952,792.268,-94.428
271.084,783.972,-96.624
244.488,789.34,-109.068
235.216,787.876,-102.724
248.148,855.464,-143.716
288.164,958.188,-163.48
315.248,1005.768,-157.136
328.424,1061.888,-157.624
341.6,1136.308,-184.22
374.784,1218.292,-193.004
389.424,1266.848,-199.104
373.32,1280.512,-243.756
399.428,1295.396,-261.812
410.652,1275.632,-241.56
433.588,1263.676,-251.076
471.652,1243.912,-238.632
484.34,1144.36,-189.832
459.696,1054.568,-198.616
459.208,966.484,-138.836
457.744,889.624,-126.148
522.404,859.856,-154.94
669.536,882.548,-117.364
742.248,799.1,-85.156
694.668,655.872,-18.544
562.176,599.264,-189.1
619.76,707.6,-239.608
704.916,690.52,-73.932
749.812,649.04,-18.544
714.432,598.532,-56.364
692.472,470.432,-68.564
703.208,418.948,-143.716
667.34,400.404,-170.068
822.036,387.228,-130.784
1032.608,360.388,25.62
1083.116,281.088,31.72
1077.016,323.788,-127.612
855.464,249.612,-206.18
895.236,230.092,-149.084
984.296,184.464,18.788
1075.064,113.46,-14.64
1202.188,105.408,-172.996
1228.54,28.304,-183.976
1055.788,9.76,-7.076
1031.388,30.988,78.812
1122.4,14.152,25.132
1360.544,15.372,-156.16
1275.144,-36.6,-54.656
1219.268,-57.584,12.688
1260.748,-45.628,-101.748
1346.88,-78.812,-68.564
1645.536,-156.648,-107.848
1995.92,-275.476,-251.076
2285.548,-435.54,-332.816
2538.332,-542.656,-204.228
2905.796,-805.932,-211.792
3009.984,-1192.184,-224.968
2452.444,-1332.728,-175.436
1746.796,-1289.052,69.296
1049.2,-1138.992,150.548
344.04,-893.284,153.476
-14.884,-612.928,10.736
-428.708,-285.968,-299.876
-614.148,-3.172,-392.84
-716.384,140.056,-368.44
-668.804,158.356,-238.388
-354.288,143.96,-241.316
-78.08,127.612,-277.672
144.448,108.336,-358.68
240.584,172.508,-403.332
352.336,282.308,-510.204
383.324,378.2,-704.428
561.444,408.456,-884.012
655.14,385.764,-856.684
650.992,301.096,-745.664
579.012,202.764,-605.852
414.556,150.06,-435.052
286.944,103.212,-182.756
345.26,40.26,40.504
404.552,-25.864,238.388
417.728,-66.856,404.308
464.576,-128.1,491.416
665.144,-156.648,561.2
827.648,-199.104,645.624
1002.352,-261.08,689.3
1166.808,-325.496,768.6
1331.752,-404.308,759.816
1424.96,-471.164,808.372
1611.62,-522.648,864.98
1751.188,-556.564,787.876
1569.164,-619.272,757.132
1695.556,-691.496,880.352
2117.188,-794.464,689.788
1901.98,-844.972,396.256
1638.216,-766.648,176.412
1482.788,-599.996,-142.984
1260.016,-365.512,-515.572
1130.208,-115.168,-776.408
1048.468,65.392,-967.216
984.784,136.396,-974.536
804.956,157.38,-768.6
790.804,83.204,-551.684
768.6,-23.912,-289.628
778.116,-112.972,-85.888
797.392,-166.652,24.156
841.8,-184.708,86.376
936.96,-178.852,111.264
969.9,-159.332,145.912
957.944,-137.372,118.34
971.364,-122.244,127.368
975.512,-132.98,165.188
964.288,-109.312,174.948
1025.532,-106.872,162.26
968.924,-154.452,135.908
903.044,-120.292,101.748
990.152,-55.876,68.564
1031.388,-25.132,104.432
1058.716,-55.632,90.28
1029.436,-48.8,68.808
849.852,21.716,142.984
884.256,92.964,-58.072
969.412,157.868,-63.44
1036.268,105.408,-21.96
909.388,126.392,74.908
729.316,180.56,-1.708
731.024,232.532,-81.74
800.564,283.04,-91.256
1134.844,413.092,-213.012
1161.44,436.028,-160.796
964.532,451.4,-196.176
767.38,466.772,-186.172
813.252,563.152,-154.94
884.5,657.58,-132.98
851.804,722.728,-150.06
800.32,787.144,-136.64
751.764,858.148,-232.044
519.964,851.072,-259.86
462.136,854.976,-245.952
558.76,930.128,-196.42
566.324,966.484,-302.56
385.764,954.04,-298.656
310.368,901.092,-240.34
317.2,845.704,-163.724
366.488,878.156,-213.256
372.1,898.896,-205.448
364.048,930.86,-177.876
267.424,927.444,-200.568
279.624,965.752,-190.076
327.692,1014.308,-190.076
298.656,979.416,-173.972
318.42,1004.304,-176.168
308.66,1009.428,-153.964
297.436,983.32,-153.964
279.38,944.768,-150.304
290.36,962.58,-148.596
284.992,986.492,-182.756
253.272,986.492,-170.556
293.288,997.228,-127.856
288.408,957.456,-145.668
253.272,942.572,-160.064
271.816,980.636,-140.788
302.316,1016.016,-124.44
319.64,1017.48,-158.6
287.676,950.38,-125.66
264.008,921.832,-112.728
255.224,935.496,-131.76
268.156,956.968,-119.804
280.6,950.624,-108.58
274.012,933.056,-123.464
259.372,937.692,-112.484
255.468,947.696,-119.804
263.52,957.456,-124.44
301.34,981.368,-108.092
282.308,951.112,-95.648
237.656,931.836,-103.7
248.148,955.26,-131.028
255.468,951.356,-115.168
265.228,953.796,-113.46
277.184,966.24,-108.092
265.716,958.188,-103.7
249.612,954.284,-122.244
242.292,945.012,-121.512
252.784,951.356,-98.332
257.176,947.696,-94.184
264.496,952.332,-112.728
243.024,945.988,-113.704
236.192,948.916,-106.14
249.612,968.192,-107.848
256.444,972.096,-114.436
251.564,959.896,-120.048
246.928,956.724,-109.068
262.3,971.12,-113.216
267.424,973.072,-101.26
249.124,975.268,-110.288
221.552,962.092,-124.196
235.216,955.504,-107.604
274.988,976.488,-98.088
264.008,968.192,-87.352
252.54,959.896,-81.74
259.128,950.868,-94.184
248.88,956.724,-100.284
242.536,951.112,-88.816
250.1,946.964,-94.672
261.568,965.752,-96.136
252.54,974.536,-109.556
232.044,970.632,-135.176
242.292,964.288,-120.78
252.052,959.652,-116.144
248.148,952.088,-114.192
241.56,947.94,-109.312
218.624,928.42,-114.68
224.724,910.852,-100.284
244.976,916.708,-94.672
256.444,924.76,-95.404
245.22,915.488,-87.352
245.22,916.708,-97.6
254.004,922.564,-105.652
237.168,908.168,-100.772
208.62,865.224,-96.38
198.372,861.808,-108.336
212.036,877.668,-101.26
233.264,898.652,-107.116
255.224,903.288,-103.944
232.288,854.244,-73.932
199.836,803.492,-93.94
224.236,784.216,-112.972
252.784,801.784,-91.012
266.204,807.64,-85.888
313.296,817.888,-82.716
298.656,772.016,-50.996
252.54,789.584,-95.404
215.452,789.584,-143.96
239.12,825.94,-161.04
255.712,847.168,-145.424
258.64,834.724,-140.056
317.444,836.92,-148.352
269.376,882.548,-192.76
232.044,910.364,-268.888
228.628,921.832,-228.628
290.604,916.464,-210.816
318.664,926.712,-208.864
359.412,977.708,-213.744
320.372,1014.796,-244.976
295.728,1084.824,-287.676
301.096,1148.264,-301.34
327.448,1166.076,-289.628
372.588,1185.108,-278.892
400.16,1177.056,-275.72
391.376,1141.188,-273.524
383.812,1103.856,-265.96
370.392,1072.868,-255.956
379.42,1069.208,-248.148
395.036,1070.916,-237.9
397.72,1074.82,-247.416
406.26,1063.596,-247.416
408.944,1049.932,-239.608
416.996,1045.54,-244.732
424.072,1012.844,-217.892
423.34,989.908,-218.136
412.604,963.556,-232.532
403.576,930.86,-215.696
406.748,912.316,-212.28
416.508,892.308,-195.932
396.744,873.276,-205.204
401.624,877.912,-205.204
418.948,883.524,-200.324
412.36,867.42,-206.424
406.26,866.2,-203.496
405.528,885.232,-201.788
404.064,921.832,-236.436
413.824,943.792,-234.24
428.952,954.772,-221.552
441.396,956.48,-207.4
488.732,989.908,-210.572
572.912,1017.724,-206.18
640.5,1015.528,-180.316
577.304,945.5,-240.584
556.32,952.82,-223.26
637.328,955.992,-128.344
622.444,890.6,-111.996
666.12,873.52,-70.272
706.38,791.536,-66.124
609.024,693.692,-146.4
625.86,505.08,-49.288
732.488,415.776,74.42
776.896,427.244,-36.6
629.764,291.336,24.644
551.684,218.868,-32.696
561.688,201.544,85.888
782.996,39.772,151.28
935.984,128.832,-40.26
819.596,29.28,25.376
799.1,76.372,-43.676
1032.12,136.64,-128.1
994.3,84.668,24.156
946.232,3.416,67.344
949.648,-33.916,-54.168
1125.328,-23.18,-108.58
1169.004,-56.852,11.468
1099.952,-70.516,20.252
1176.08,-79.3,-38.308
1147.776,-109.068,15.372
1126.06,-119.56,-0.732
1178.276,-118.096,-25.864
1195.356,-138.104,4.636
1180.472,-154.208,38.552
1297.592,-167.872,21.96
1307.596,-168.848,22.204
1462.292,-202.764,-9.516
1885.144,-191.54,32.452
2442.684,-240.096,-26.596
2561.512,-289.872,-37.332
2703.032,-428.464,34.16
2697.908,-616.344,34.16
2574.2,-807.64,69.784
2257.244,-958.432,-26.596
1588.196,-954.284,169.58
928.176,-821.304,233.02
477.752,-613.904,-62.952
-47.336,-376.736,-345.016
-572.668,-87.108,-645.868
-751.276,104.432,-741.76
-565.836,50.752,-773.724
-412.116,20.984,-653.188
-221.064,13.908,-570.716
-151.768,10.98,-528.992
-121.268,70.028,-526.064
-94.184,147.376,-559.736
91.5,182.756,-565.104
186.904,174.216,-521.916
254.004,162.016,-479.216
304.756,153.476,-404.796
342.576,132.248,-339.892
282.552,125.416,-196.664
377.956,8.54,38.308
610.244,-141.276,280.356
608.78,-190.076,541.192
652.212,-245.952,783.484
959.164,-362.34,960.384
1232.2,-453.108,1105.808
1321.748,-550.708,1182.668
1487.912,-599.996,1232.2
1798.524,-697.352,1228.296
2028.372,-835.7,1092.388
2244.8,-897.92,793.976
2303.36,-855.708,509.472
2014.708,-758.352,217.892
1663.104,-696.376,-34.404
1398.852,-554.612,-315.98
1326.628,-367.708,-643.916
1187.548,-163.236,-900.116
979.904,-31.232,-957.7
826.428,-32.696,-836.676
713.7,-30.988,-688.568
782.752,-9.516,-547.78
813.74,-42.7,-387.472
812.52,-21.228,-325.74
779.092,10.248,-204.228
825.94,18.056,-59.292
854.0,-22.448,106.872
961.36,-49.044,178.852
837.652,-123.464,264.74
874.008,-121.756,265.472
1011.624,-117.852,235.46
1010.404,-103.7,257.664
1086.776,-83.448,154.94
1065.548,-62.708,152.256
1052.86,-33.428,185.196
999.912,-67.1,257.664
1014.064,-111.996,220.088
1057.252,-103.7,148.352
922.076,43.676,168.848
873.032,105.896,183.732
995.276,20.984,172.508
1064.328,131.516,71.98
1024.312,162.016,60.512
1034.072,158.6,102.236
1033.34,152.012,113.216
977.22,188.612,99.796
995.276,229.604,34.892
978.44,294.02,7.808
1006.5,336.72,-39.772
1010.16,339.16,-28.792
917.684,324.764,-2.44
902.556,418.46,-33.428
882.304,450.668,-60.024
818.62,510.692,-136.396
782.508,559.736,-116.388
801.54,672.708,-127.856
768.844,700.036,-125.66
683.444,729.316,-125.904
567.3,743.712,-147.132
519.964,788.852,-215.696
507.276,820.084,-166.164
510.448,840.092,-86.376
500.444,899.14,-125.904
381.372,881.816,-173.972
377.956,967.216,-231.8
380.152,985.76,-157.136
319.64,969.656,-184.464
321.348,1021.872,-274.256
286.212,986.248,-204.472
227.408,961.36,-138.104
161.772,910.12,-115.9
196.42,913.78,-153.232
263.52,985.028,-122.976
195.932,981.612,-97.112
189.344,981.612,-89.06
213.256,986.98,-69.54
221.552,1016.016,-114.924
204.228,1058.716,-152.256
157.38,1029.436,-116.388
166.652,1065.304,-109.8
149.816,1047.004,-116.876
135.42,988.932,-80.52
167.384,1008.696,-119.316
163.968,1021.14,-118.584
125.904,1025.044,-122.488
130.54,1018.944,-104.188
152.012,998.448,-85.644
146.888,972.34,-93.452
151.768,966.728,-79.544
150.792,964.776,-80.032
132.004,985.516,-123.708
100.284,966.24,-91.012
124.928,975.756,-105.408
153.72,983.32,-98.088
172.752,980.148,-88.816
168.848,989.908,-103.212
147.132,998.692,-113.948
127.856,976.488,-102.236
141.764,971.364,-103.456
144.692,965.264,-100.04
158.844,966.24,-87.108
166.896,973.56,-77.104
148.596,963.8,-78.324
152.5,973.56,-91.5
137.86,965.264,-117.364
140.544,988.932,-112.24
145.912,982.1,-87.84
168.116,1006.256,-99.796
176.656,1018.7,-95.648
169.824,1001.132,-68.808
167.14,1006.5,-92.476
156.16,988.688,-94.916
168.848,973.316,-88.328
168.36,964.776,-59.78
167.872,974.048,-68.808
173.484,980.636,-60.024
177.144,973.316,-52.46
152.256,964.532,-76.372
146.4,989.908,-98.332
142.496,987.956,-85.4
149.572,980.88,-87.108
183.732,998.448,-76.372
183.488,989.176,-72.956
146.888,964.288,-70.272
155.428,988.2,-95.404
151.768,970.876,-77.348
171.288,964.288,-58.804
179.584,964.288,-60.756
164.7,962.092,-66.124
169.092,979.416,-70.028
163.236,980.88,-68.564
155.184,998.936,-95.892
140.3,998.448,-99.064
147.376,986.492,-88.084
167.628,983.076,-87.596
177.144,979.416,-76.128
158.112,972.096,-76.616
160.796,971.12,-64.172
169.58,977.708,-76.128
155.184,975.756,-81.496
157.136,974.048,-70.028
151.768,962.092,-77.104
169.824,973.072,-98.088
161.04,966.728,-79.544
169.58,965.996,-53.924
163.236,965.752,-66.368
153.964,967.46,-78.324
158.844,988.2,-90.036
158.6,1002.84,-91.988
144.448,982.344,-88.328
167.872,982.588,-87.596
177.876,980.636,-82.472
164.212,967.704,-70.516
159.332,965.752,-74.908
148.108,955.748,-73.688
155.916,959.408,-71.492
155.428,952.088,-85.888
163.968,960.14,-81.74
186.904,977.952,-76.86
164.944,952.82,-75.884
161.772,941.108,-84.424
155.672,923.296,-79.3
161.04,917.44,-86.62
173.484,914.268,-75.152
186.172,908.168,-80.032
196.42,892.308,-80.764
190.076,871.08,-70.516
187.636,870.836,-84.912
187.148,851.804,-71.492
197.64,844.24,-70.272
204.716,844.728,-88.816
182.756,818.376,-94.428
177.388,810.08,-115.9
178.852,797.148,-126.88
180.072,799.344,-135.908
195.444,807.884,-117.12
238.632,827.16,-112.484
232.776,842.288,-102.48
215.208,877.912,-149.084
228.384,911.34,-158.112
247.172,946.964,-130.296
300.608,1028.704,-160.308
314.76,1066.524,-156.648
315.736,1053.348,-132.492
320.128,1092.144,-149.816
318.42,1147.288,-186.172
296.704,1179.984,-211.06
299.632,1190.964,-203.984
323.788,1212.192,-214.232
341.112,1214.388,-220.576
341.844,1171.688,-214.476
353.556,1127.768,-198.128
355.02,1064.572,-168.116
369.66,1029.924,-152.744
371.124,983.076,-137.616
374.784,947.94,-123.464
367.464,919.392,-118.584
367.952,908.9,-122.244
363.072,898.164,-120.536
373.32,886.94,-114.68
380.884,884.256,-117.12
367.952,883.768,-128.344
367.952,892.308,-140.788
368.44,892.796,-128.344
386.984,919.392,-146.4
404.308,947.696,-159.82
399.428,942.572,-147.864
399.428,936.472,-142.74
421.144,943.792,-138.592
462.624,943.06,-124.44
554.368,965.508,-134.2
598.044,953.064,-119.804
601.46,949.16,-174.46
587.796,906.216,-192.272
693.448,972.828,-245.708
721.02,820.084,-164.944
758.352,686.128,-76.86
664.656,600.484,-83.448
465.308,349.652,-95.16
420.412,139.812,-69.052
883.036,224.236,-45.872
1322.236,372.1,-195.2
996.252,287.432,-174.46
888.648,268.156,-245.952
922.808,139.568,-238.144
996.496,84.912,-46.116
1033.584,-76.372,17.08
958.432,-156.404,-63.44
957.456,-186.66,-68.808
1097.268,-110.532,-134.688
1140.944,-108.58,-123.952
1191.94,-91.988,-170.312
1222.928,-153.964,-204.96
1283.684,-144.448,-255.468
1420.568,-155.428,-233.752
1429.596,-214.72,-213.744
1552.328,-186.66,-225.7
1747.772,-164.944,-267.18
2168.672,-201.544,-315.248
2564.196,-438.712,-325.74
2889.692,-669.78,-422.852
2837.72,-857.66,-434.32
2356.552,-983.564,-284.016
1696.288,-1008.452,-62.952
990.396,-911.096,-31.476
514.596,-719.068,31.72
86.376,-584.38,-70.516
-215.696,-428.708,-79.056
-432.124,-271.816,-18.544
-471.652,-108.58,-91.744
-358.436,37.088,-200.568
-158.6,161.284,-326.472
94.916,204.228,-385.276
212.768,202.032,-392.596
478.972,232.532,-523.868
508.496,248.148,-609.268
615.124,302.804,-748.348
613.416,346.48,-859.124
553.636,353.312,-876.448
430.904,307.684,-812.764
328.668,262.788,-792.268
119.804,286.212,-703.696
61.0,231.556,-490.684
12.2,105.408,-113.704
160.308,-50.996,129.076
192.272,-108.092,331.596
437.492,-158.844,501.176
806.908,-226.676,726.632
1111.176,-260.836,865.224
1134.844,-300.852,959.896
1229.028,-342.332,1097.024
1470.344,-392.596,1170.712
1474.98,-429.684,1078.968
1460.828,-431.392,971.364
1642.12,-445.3,874.008
2023.492,-467.992,643.184
2063.752,-556.32,469.944
1984.696,-586.088,247.416
1792.668,-532.652,31.476
1686.04,-452.864,-231.312
1593.076,-393.084,-577.548
1377.624,-291.58,-802.516
1027.484,-217.892,-812.764
722.728,-111.508,-803.248
639.28,-8.296,-796.416
843.02,23.668,-782.752
1005.28,2.928,-642.696
1037.0,-88.572,-417.972
1010.892,-117.608,-238.388
944.036,-63.684,-152.988
982.588,-20.252,0.244
916.952,-90.036,88.328
898.896,-101.992,171.776
956.48,-116.632,213.744
953.308,-114.436,253.272
1017.968,-97.112,258.884
1002.352,-98.088,237.656
894.26,-24.644,200.08
904.508,96.136,78.324
877.18,131.76,47.58
1006.012,205.936,-5.856
1063.596,250.1,-42.212
910.364,231.556,-12.2
862.052,284.016,-2.44
886.452,324.52,-38.552
901.58,370.148,-48.556
864.98,384.056,8.296
805.2,414.068,20.984
766.648,467.748,10.736
777.384,489.22,19.276
835.212,573.156,-2.44
809.836,645.868,-42.456
735.904,694.912,-20.496
695.888,723.704,-32.94
693.448,749.812,-64.904
751.764,857.66,-86.864
769.332,868.396,-50.508
598.776,860.588,-63.928
496.54,898.164,-118.584
483.608,888.648,-50.752
494.1,912.072,-34.648
420.168,953.064,-87.84
341.6,966.24,-93.452
359.9,1001.62,-63.44
392.596,991.86,-21.96
403.332,983.808,-8.54
320.372,965.752,-20.496
258.396,990.152,-36.112
240.096,969.412,-31.72
259.372,964.288,-36.844
214.72,1011.136,-68.076
203.252,1020.408,-84.18
177.632,1027.24,-55.632
170.068,1041.392,-99.308
133.224,1027.728,-111.996
128.832,999.424,-98.088
149.084,1007.72,-77.592
161.528,1017.236,-83.692
136.884,1007.964,-101.748
116.876,990.152,-102.968
156.16,974.292,-68.32
153.964,971.852,-69.052
136.884,975.024,-94.184
131.028,999.18,-112.972
151.28,987.468,-91.012
152.012,987.468,-93.208
128.344,999.668,-98.332
163.724,1014.308,-95.648
172.264,987.224,-69.54
170.8,995.276,-91.988
139.812,980.88,-93.696
171.776,960.14,-57.584
226.92,975.756,-48.556
221.064,980.392,-53.68
199.348,971.364,-61.732
175.924,975.268,-71.248
155.916,959.164,-75.64
168.116,980.392,-70.028
208.864,995.764,-74.664
223.26,1003.328,-53.436
234.972,990.64,-45.628
205.448,983.076,-72.224
180.316,989.42,-81.008
175.192,972.096,-64.416
191.296,971.852,-64.172
186.66,964.288,-68.32
176.168,949.16,-62.464
203.008,945.988,-44.652
233.508,956.236,-55.388
200.324,984.54,-44.164
184.708,983.564,-68.564
157.868,987.712,-96.136
188.124,986.492,-78.08
179.828,966.484,-64.172
184.464,943.792,-79.788
192.028,965.752,-65.88
205.204,965.02,-54.412
208.62,947.452,-53.192
173.24,950.868,-73.688
165.432,946.964,-74.664
195.688,950.136,-67.344
201.544,967.704,-72.224
198.86,972.584,-76.616
190.564,956.236,-73.688
186.172,963.556,-82.716
192.516,971.12,-82.96
200.324,967.704,-80.032
216.184,966.484,-76.372
211.792,967.216,-66.124
180.56,939.156,-70.76
179.828,960.14,-96.624
189.344,976.0,-91.256
178.12,961.848,-75.64
188.612,970.144,-85.156
190.32,947.452,-101.748
197.396,997.228,-77.836
192.516,979.66,-100.772
161.772,977.708,-76.372
191.052,971.364,-85.888
199.348,955.016,-65.148
186.904,946.232,-87.596
198.372,980.148,-89.304
194.224,964.532,-69.54
182.268,960.872,-101.016
162.992,1004.304,-110.776
172.508,984.784,-114.68
148.352,1005.28,-119.316
180.804,1004.304,-136.884
180.316,1004.304,-106.384
220.82,979.904,-102.724
197.152,999.912,-113.46
199.348,974.048,-115.9
181.78,934.032,-94.184
163.48,906.46,-103.456
148.352,910.12,-124.44
176.656,905.972,-122.488
194.956,898.652,-111.752
197.152,902.068,-119.804
190.32,884.5,-120.048
166.408,874.252,-146.644
178.852,869.616,-137.372
156.648,862.54,-136.64
159.576,893.04,-147.62
217.648,894.504,-116.632
228.628,910.608,-130.052
223.016,928.908,-149.572
231.312,905.728,-136.884
205.936,894.504,-138.836
212.768,930.128,-146.888
241.804,945.744,-147.376
258.64,946.232,-148.84
256.932,944.036,-149.328
244.976,953.308,-159.576
212.768,959.408,-173.484
221.308,989.176,-182.024
272.792,1035.536,-182.512
277.428,1070.428,-199.348
271.328,1091.412,-212.768
275.964,1106.54,-217.892
275.964,1127.768,-226.676
303.536,1131.916,-210.816
307.684,1120.936,-215.94
307.684,1107.028,-229.116
299.144,1091.656,-225.944
282.552,1070.672,-222.528
309.88,1062.132,-213.012
323.788,1009.672,-189.588
323.544,968.924,-185.928
329.888,923.296,-171.044
346.48,901.824,-162.016
348.432,891.332,-157.624
363.072,870.104,-148.596
351.116,854.0,-188.124
317.932,821.548,-217.892
375.516,812.52,-206.424
502.884,838.872,-149.328
488.976,867.664,-161.284
457.012,832.772,-167.872
458.232,751.52,-118.828
509.472,702.476,-91.012
509.472,651.236,-144.448
535.336,624.396,-181.78
712.48,697.84,-212.524
859.368,791.536,-190.808
857.66,783.972,-216.184
865.956,752.252,-293.532
855.22,739.564,-231.312
991.372,635.132,-231.312
938.912,620.98,-319.884
1086.532,529.724,-189.832
955.992,354.044,-140.056
878.644,275.476,-130.052
786.656,170.068,-93.208
897.432,152.256,-84.18
1080.92,199.348,-68.808
1139.968,208.62,-109.312
1087.02,153.72,-122.976
1007.476,105.896,-110.288
1005.28,98.332,-88.328
945.988,37.088,-37.82
979.172,9.028,-10.492
1020.164,-31.232,-32.452
987.224,-27.816,-65.148
1086.044,-9.516,-109.556
1105.076,-36.112,-87.596
1045.296,-75.64,-60.024
1056.52,-108.336,-42.7
996.252,-99.552,-62.22
993.812,-74.176,-87.84
1072.136,-64.66,-118.096
1003.816,-138.104,-105.408
1027.484,-126.148,-120.048
1034.316,-154.452,-101.016
1005.768,-154.208,-105.164
985.028,-127.612,-134.444
1009.672,-111.264,-167.384
951.356,-166.164,-160.308
1006.5,-114.68,-195.444
1188.28,-53.192,-239.852
1263.432,-27.084,-227.896
1493.524,-40.504,-275.964
1795.108,-94.672,-310.856
2165.744,-106.384,-421.144
2640.08,-135.42,-491.904
2971.188,-287.188,-499.468
2867.0,-542.656,-401.624
2759.64,-702.964,-290.116
2265.052,-878.4,-114.68
1719.956,-986.004,-22.448
1251.476,-967.216,28.06
735.416,-899.384,3.66
344.04,-704.184,-102.48
-223.26,-499.712,-97.844
-620.248,-320.616,-83.692
-691.74,-146.644,-100.528
-646.112,-2.196,-127.368
-498.492,111.752,-189.344
-280.112,223.748,-321.836
20.74,313.784,-506.3
185.196,383.812,-591.7
314.028,447.252,-657.092
352.336,441.64,-710.04
472.628,424.56,-763.232
522.892,383.08,-779.336
549.488,295.972,-724.68
367.464,227.896,-581.452
207.888,258.396,-537.532
145.424,274.744,-447.252
105.164,200.568,-239.852
128.344,98.576,13.176
196.42,-8.296,260.348
410.896,-127.856,427.244
671.488,-197.884,566.568
908.412,-250.832,716.872
1069.696,-362.096,906.216
1236.104,-491.416,1002.84
1417.396,-505.324,981.368
1506.7,-475.312,907.68
1655.54,-447.496,803.736
1973.96,-440.664,620.248
2020.808,-468.968,457.5
2098.156,-473.36,294.752
2147.2,-478.972,80.032
2102.304,-532.652,-81.496
1951.024,-566.568,-235.216
1723.616,-453.84,-477.996
1398.364,-205.936,-787.876
1076.04,1.952,-942.572
836.676,146.888,-1003.328
647.576,192.272,-903.044
549.976,159.82,-707.112
716.628,112.24,-561.932
790.56,20.984,-352.824
884.5,-35.38,-200.08
845.704,-61.488,-75.64
853.756,21.96,-84.18
902.556,55.632,-53.68
915.488,29.768,-2.44
964.532,-54.656,76.616
1066.28,-80.52,106.628
1014.064,-113.948,127.612
1064.816,-76.616,100.04
1096.536,-90.768,97.356
1091.656,-67.1,84.668
1070.428,-45.384,45.872
984.784,6.588,36.356
972.34,15.128,18.3
971.12,-2.44,54.412
1004.548,-0.732,49.288
998.692,11.956,39.284
1072.624,62.952,-7.564
1051.396,62.952,0.0
1027.728,65.88,23.424
1034.804,104.92,0.244
1009.672,120.292,-7.32
986.98,139.08,-19.764
967.216,152.988,-39.528
977.952,183.976,-7.808
1009.916,222.04,-24.644
960.14,235.704,-8.052
940.376,240.584,-15.128
951.6,289.872,-75.152
954.528,353.312,-96.868
989.664,318.664,-68.076
1023.824,378.2,-68.076
955.992,392.108,-73.932
863.76,423.096,-90.768
897.188,466.284,-90.524
899.384,504.836,-114.436
893.04,513.132,-116.632
850.828,568.764,-111.508
793.976,584.624,-108.336
775.188,607.072,-103.212
774.944,619.028,-94.428
790.316,618.54,-102.236
797.636,607.316,-116.632
788.608,668.072,-126.636
741.516,701.988,-118.096
695.644,680.028,-101.992
697.596,731.024,-138.592
675.88,763.476,-148.352
653.92,774.212,-136.152
663.436,810.08,-165.432
627.812,843.02,-189.1
584.624,844.972,-179.828
558.76,833.016,-158.844
467.992,801.296,-176.9
408.212,805.688,-187.148
397.232,818.864,-184.22
399.916,862.052,-164.7
370.88,867.42,-163.968
390.888,910.608,-186.904
406.992,969.412,-173.24
332.816,925.98,-149.572
268.156,927.932,-195.932
275.476,954.284,-205.448
298.412,957.944,-158.6
282.308,978.196,-147.62
249.124,957.944,-149.084
255.468,945.5,-147.376
232.532,960.628,-143.472
225.7,960.384,-130.296
223.26,998.936,-139.568
210.572,1030.9,-169.824
183.0,1015.528,-164.212
164.7,1041.636,-172.752
168.604,1051.396,-178.608
196.908,1057.984,-167.14
174.948,1006.012,-157.136
152.256,986.98,-174.216
151.28,995.276,-154.208
144.204,956.48,-129.32
161.04,952.088,-145.424
194.956,967.948,-139.324
160.552,991.128,-144.936
136.152,997.228,-153.72
158.356,971.608,-144.204
172.508,936.716,-124.196
175.192,953.308,-130.052
171.776,965.752,-127.856
164.212,971.608,-125.904
174.948,977.464,-131.028
175.924,963.8,-130.052
175.192,946.964,-120.048
172.996,960.872,-127.612
171.288,961.116,-128.1
174.46,961.604,-132.004
183.0,956.724,-123.708
156.648,959.652,-137.372
158.844,966.728,-135.176
162.992,970.144,-141.52
119.072,981.612,-155.428
163.48,983.808,-147.132
203.008,976.488,-120.048
191.784,951.844,-111.996
158.356,943.304,-130.54
151.28,960.14,-130.296
167.14,960.384,-112.484
163.236,935.008,-114.192
171.532,921.588,-111.996
163.236,933.056,-119.316
160.064,949.648,-121.268
174.704,957.212,-119.804
172.264,952.576,-124.684
170.312,947.452,-128.344
167.628,947.208,-128.588
160.552,955.748,-136.884
160.552,954.528,-129.808
159.088,930.86,-119.804
173.484,924.516,-119.804
178.608,932.08,-127.124
176.656,940.62,-122.976
175.68,931.592,-122.0
196.908,926.224,-118.096
183.0,919.392,-115.412
180.804,931.592,-128.344
154.696,910.364,-132.736
159.088,927.688,-140.788
174.46,951.356,-144.936
178.608,957.212,-141.52
207.644,958.92,-141.032
185.44,950.868,-146.888
204.96,971.852,-153.232
188.368,982.832,-152.5
191.54,970.632,-153.476
200.324,952.088,-148.352
210.816,945.256,-147.132
244.732,952.332,-135.176
247.172,965.996,-149.572
227.164,974.536,-161.528
207.4,952.576,-147.864
196.664,930.128,-157.624
223.504,939.4,-159.332
248.392,951.6,-159.332
245.952,974.048,-159.576
254.98,957.456,-158.356
255.956,955.26,-163.48
239.12,926.956,-173.24
230.092,919.148,-177.388
226.188,904.996,-170.556
264.496,930.616,-171.532
279.136,929.884,-175.436
264.496,927.688,-172.264
293.776,932.324,-157.868
275.232,912.316,-145.424
293.044,938.668,-166.896
282.308,945.256,-168.848
300.364,989.42,-170.312
301.828,986.736,-161.04
301.584,997.716,-180.804
284.748,1019.432,-204.472
301.584,1030.9,-200.08
299.388,1041.392,-201.3
303.292,1038.708,-212.036
324.032,1034.804,-197.64
299.144,1030.9,-208.864
292.068,1017.968,-213.012
294.264,999.912,-205.692
299.388,970.388,-186.904
314.76,974.78,-186.66
322.812,999.18,-189.1
326.228,991.372,-187.636
316.468,971.12,-176.656
313.052,957.7,-183.488
318.908,950.38,-176.656
315.004,935.008,-171.532
314.76,928.664,-174.216
309.636,940.132,-176.9
315.492,934.764,-170.312
300.364,920.124,-175.68
310.612,926.224,-177.632
316.712,937.448,-178.364
322.568,952.088,-178.608
339.648,944.036,-173.24
336.476,927.688,-174.46
331.596,931.104,-178.364
334.28,933.3,-171.532
355.508,927.444,-163.236
385.52,961.116,-165.92
405.772,969.656,-179.828
431.88,1002.84,-206.668
439.2,1013.332,-201.544
428.708,992.592,-208.62
485.804,1046.516,-214.964
505.08,1034.316,-215.94
488.976,996.74,-239.608
539.972,937.692,-199.836
579.744,889.136,-191.296
619.516,841.8,-192.76
657.824,773.236,-109.8
586.332,650.992,-7.808
586.82,537.776,-57.34
578.524,430.904,-19.276
650.26,379.664,15.372
732.732,386.252,-14.396
844.972,429.684,-93.452
937.936,482.876,-142.984
851.072,462.38,-134.688
814.716,366.244,-58.072
709.064,270.108,-30.988
883.036,274.744,-96.624
959.408,223.504,-82.96
916.952,146.156,-63.44
896.944,85.644,-0.976
799.588,42.944,-3.172
870.836,-13.908,-58.804
980.636,56.12,-154.208
983.808,-5.856,-39.284
999.424,-87.108,-22.204
1106.54,-106.628,-70.272
1075.308,-197.884,-84.668
1011.136,-218.136,-53.924
1164.612,-186.416,-73.444
1150.216,-228.872,-75.64
1132.16,-244.976,-107.36
1213.168,-235.704,-162.504
1141.676,-214.476,-148.596
1088.972,-265.228,-85.156
1095.56,-306.22,-67.588
1107.516,-327.204,-109.8
1124.596,-329.888,-113.216
1189.012,-292.068,-95.892
1400.804,-321.348,-139.568
1534.272,-384.544,-113.704
1826.34,-448.716,-179.096
2154.032,-521.184,-158.112
2508.32,-666.852,-195.444
2907.016,-845.948,-251.32
3023.16,-1016.504,-257.42
2847.724,-1324.92,-63.684
2271.884,-1493.768,111.264
1620.404,-1399.584,121.268
946.72,-1248.06,96.624
293.288,-972.096,-30.988
-234.972,-608.292,-236.192
-573.644,-279.136,-370.392
-717.36,18.056,-344.528
-729.072,60.268,-318.908
-470.676,39.04,-382.348
-124.684,45.384,-493.612
-103.944,111.508,-421.144
-91.256,215.94,-441.64
19.032,281.332,-491.904
278.16,291.58,-581.696
433.588,273.768,-625.86
546.072,268.888,-680.272
535.58,322.324,-776.896
439.2,371.856,-795.684
403.332,368.196,-738.344
397.476,212.036,-555.1
341.356,68.32,-329.4
139.812,72.956,-146.156
184.22,60.024,86.132
323.056,-39.772,365.512
511.424,-158.112,622.444
658.068,-242.292,841.8
909.388,-307.44,989.664
1362.984,-394.548,1107.272
1385.676,-498.492,1264.896
1409.588,-494.832,1261.724
1616.988,-576.328,1324.92
1861.72,-700.768,1239.032
1954.684,-762.744,1060.18
2073.268,-751.032,817.888
2260.416,-757.376,514.108
2332.64,-793.732,110.044
1967.86,-777.384,-278.648
1404.952,-565.104,-682.712
1029.436,-247.904,-1054.08
780.068,51.484,-1311.988
665.388,171.044,-1262.944
740.296,193.248,-1147.044
768.356,116.632,-863.76
849.12,13.176,-592.676
935.252,-47.824,-386.008
898.896,-20.496,-267.18
905.728,30.256,-162.26
971.364,23.668,-61.976
957.7,26.108,-2.684
929.396,35.136,70.516
936.96,-13.908,135.42
876.448,-29.524,131.272
957.944,32.208,145.668
903.288,80.276,159.82
931.836,118.096,78.812
931.592,213.5,-35.136
917.196,300.852,-44.652
941.596,353.068,-99.064
990.884,392.352,-124.684
999.668,396.5,-115.168
927.2,401.624,-61.732
797.636,438.956,-65.88
797.148,497.76,-81.008
813.496,530.456,-65.636
786.412,528.748,-23.18
757.864,587.796,-38.552
710.284,610.976,-72.468
765.916,660.996,-88.328
807.396,771.04,-97.844
786.656,806.908,-73.688
700.036,837.408,-102.968
586.088,888.404,-171.532
548.268,907.192,-198.128
551.684,955.992,-163.236
513.132,935.74,-91.5
400.404,899.384,-133.468
294.264,878.644,-151.768
358.68,923.296,-88.328
286.212,943.548,-81.984
164.944,961.848,-152.012
149.084,931.836,-106.14
215.94,969.656,-122.976
263.276,1011.868,-128.344
194.468,997.96,-55.632
118.584,973.316,-46.848
112.484,985.76,-87.352
152.012,981.612,-60.268
163.724,1023.824,-68.808
128.1,1051.884,-77.836
104.676,1008.94,-61.244
92.232,1034.804,-111.02
91.5,1026.264,-61.244
115.656,1024.312,-41.724
120.048,1056.764,-75.64
101.26,1056.032,-95.648
78.568,1020.408,-84.18
60.512,1026.264,-100.772
71.248,1033.584,-79.788
89.792,1015.528,-65.88
71.248,970.144,-59.78
85.644,1007.72,-97.356
77.592,995.764,-86.62
42.212,976.488,-95.404
33.184,971.608,-99.064
73.2,993.08,-92.72
95.648,1013.576,-92.232
97.844,1006.012,-83.448
98.088,994.788,-84.668
60.512,980.636,-85.644
63.44,960.384,-71.248
95.648,963.312,-58.072
101.748,968.436,-56.608
68.32,978.196,-72.468
74.908,1014.308,-94.428
95.648,1014.552,-84.912
99.552,992.348,-66.612
93.94,970.632,-61.244
95.16,967.46,-62.22
89.792,972.096,-63.44
92.232,982.588,-74.908
91.012,991.128,-70.028
87.84,1001.376,-67.344
90.28,992.592,-65.148
96.38,971.364,-60.268
87.84,965.996,-64.172
84.668,974.536,-62.464
85.888,984.052,-63.684
102.968,997.228,-70.76
81.74,970.144,-58.804
81.984,967.46,-66.368
50.508,976.488,-91.988
55.632,986.492,-92.476
80.764,984.052,-65.88
105.164,982.344,-55.632
105.408,987.224,-69.54
71.492,970.388,-70.028
33.916,965.02,-69.784
58.316,957.944,-58.072
83.204,954.04,-52.216
75.64,956.236,-80.764
30.012,956.236,-58.316
73.444,976.732,-63.684
65.636,975.268,-64.904
63.684,976.488,-85.156
45.14,971.364,-82.96
50.264,964.532,-77.592
56.852,974.536,-77.836
71.492,990.64,-72.224
58.072,983.564,-70.028
34.16,959.164,-80.52
45.14,952.332,-81.496
51.24,965.996,-99.308
63.44,951.112,-92.476
61.488,975.024,-72.956
90.036,968.192,-74.908
78.08,957.7,-87.596
66.368,962.824,-97.6
26.596,917.196,-80.52
61.488,917.196,-81.008
38.796,916.22,-76.372
45.872,935.984,-93.208
59.78,983.32,-92.72
79.056,1007.232,-94.916
69.54,982.588,-79.3
78.812,965.996,-80.52
41.724,966.484,-99.552
62.464,986.736,-101.504
81.252,973.072,-79.544
103.212,999.668,-87.108
87.84,999.912,-93.452
80.032,986.736,-99.064
103.456,980.636,-90.768
117.364,971.608,-98.576
68.076,955.748,-100.528
94.916,994.3,-109.312
88.328,962.336,-93.94
94.916,962.092,-110.776
109.068,966.24,-126.392
89.548,966.728,-119.316
88.084,995.032,-133.956
101.016,981.612,-112.728
124.684,974.048,-113.216
152.5,959.164,-112.24
151.036,950.868,-116.632
141.764,917.196,-94.672
162.992,902.556,-92.72
156.892,874.008,-91.744
178.852,927.444,-119.804
169.824,953.064,-122.0
144.204,947.94,-122.0
134.688,963.312,-139.568
145.18,1011.868,-162.748
177.388,1046.272,-142.252
195.688,1081.408,-141.032
202.52,1098.244,-142.984
212.768,1124.596,-143.716
196.42,1127.28,-151.768
189.588,1124.596,-164.212
206.424,1134.356,-159.576
233.264,1137.528,-147.62
249.856,1119.472,-151.524
225.456,1096.048,-143.96
215.208,1050.176,-147.132
201.3,1009.916,-145.424
207.156,996.008,-152.5
214.72,989.176,-149.084
231.068,984.296,-130.052
222.04,953.064,-132.736
211.304,938.912,-137.616
213.012,928.908,-122.732
214.232,907.68,-117.852
227.164,908.9,-118.34
217.16,933.788,-134.2
211.792,948.184,-138.592
232.044,962.824,-142.496
257.664,965.264,-139.568
284.748,976.976,-125.416
275.72,996.74,-135.664
262.056,973.072,-151.036
283.772,991.86,-161.528
333.304,987.468,-158.356
377.712,1007.232,-174.216
463.844,1068.72,-134.688
486.536,1039.196,-134.2
561.444,1022.116,-123.22
531.92,978.196,-143.716
437.492,851.316,-84.424
459.208,804.224,-95.892
502.152,661.728,-105.896
531.188,513.62,-116.388
514.108,454.084,-135.664
512.888,502.152,-185.44
490.928,465.308,-39.772
606.34,251.32,61.732
844.972,250.588,-68.076
974.78,318.42,-260.592
817.888,215.208,-167.14
782.508,301.34,-182.512
932.324,202.276,-203.984
1036.512,177.632,-296.704
1066.524,117.608,-340.136
1061.644,38.796,-269.376
933.788,-0.976,-161.772
932.324,-59.536,-80.032
1130.696,-115.656,-170.8
1014.308,-97.112,-247.416
1188.28,-98.82,-234.484
1273.192,-208.376,-187.148
1306.62,-244.488,-166.652
1345.66,-227.652,-196.908
1404.22,-234.972,-134.444
1830.976,-209.108,-180.56
2275.788,-259.372,-342.82
2669.848,-336.72,-328.912
3090.016,-616.1,-258.396
3261.304,-1060.18,-62.22
3138.328,-1494.012,76.616
2433.168,-1616.012,109.8
1510.604,-1357.86,16.104
755.18,-1065.792,-79.544
68.32,-667.096,-313.54
-578.036,-292.556,-415.776
-695.644,49.776,-525.088
-628.056,141.032,-576.816
-556.564,76.372,-416.996
-22.936,-25.376,-363.072
108.092,-136.152,-202.276
262.544,-148.84,-178.608
357.216,3.904,-219.844
461.892,97.844,-244.244
521.184,162.016,-323.788
524.356,259.616,-435.052
618.54,309.636,-539.484
630.984,312.808,-560.224
610.976,309.636,-615.856
508.496,309.148,-598.044
351.848,340.38,-515.328
296.216,276.696,-325.74
352.092,162.992,-122.488
471.896,54.9,-7.564
488.976,-4.392,141.032
454.084,10.98,238.388
553.392,52.216,298.412
633.668,59.78,380.396
708.088,-71.004,569.252
873.764,-156.892,702.964
921.832,-140.3,732.732
1109.712,-152.5,729.072
1345.416,-237.168,816.668
1473.76,-336.232,887.672
1639.192,-464.088,906.704
1823.412,-559.004,884.012
2031.056,-625.616,736.636
2138.416,-750.788,654.164
2214.3,-873.276,513.62
2021.296,-932.812,228.628
1742.892,-838.628,-156.16
1545.496,-492.636,-721.508
1144.36,-96.136,-1086.288
801.296,179.34,-1205.36
513.376,351.604,-1197.064
468.236,380.152,-1016.016
600.484,282.796,-689.544
870.348,120.78,-485.072
904.508,-36.356,-212.036
863.028,-91.012,-27.572
882.06,-53.68,28.304
918.416,-38.552,70.76
894.016,-23.18,86.62
974.536,-24.156,84.912
1019.432,-34.404,81.496
1031.632,-45.628,85.4
1029.192,-48.556,82.228
1037.0,-47.336,67.344
1055.056,-57.096,32.452
1062.132,-36.356,8.052
1066.524,-27.328,8.784
1062.62,-26.84,49.776
1068.964,-57.828,74.176
1049.932,-65.636,103.456
992.348,-73.2,111.264
1040.172,2.684,63.196
1085.068,31.232,41.48
1043.1,51.728,58.804
976.244,78.568,63.44
973.072,119.804,45.628
937.204,154.208,-37.088
1034.072,223.992,-67.832
1039.684,249.856,-48.068
961.848,300.852,-14.884
911.828,323.788,-34.892
957.944,348.92,-84.668
997.472,400.648,-114.68
981.856,414.312,-111.508
1002.352,460.184,-108.092
838.872,488.488,-55.388
767.868,518.988,-56.852
792.268,533.628,-83.204
794.22,567.544,-86.62
877.18,670.756,-107.848
849.608,694.668,-66.612
722.728,669.78,-25.62
633.424,720.288,-74.908
597.8,802.028,-99.552
565.104,814.228,-85.156
528.26,895.236,-140.3
507.276,926.712,-116.632
499.224,901.092,-73.2
482.144,957.7,-125.172
382.348,979.172,-97.6
364.536,971.364,-65.148
315.004,1013.82,-134.444
246.684,942.328,-133.712
214.964,938.18,-107.36
262.056,966.24,-61.0
231.556,934.52,-43.92
193.248,904.508,-79.788
176.168,908.412,-34.16
195.688,915.976,22.204
183.0,913.536,-14.152
156.648,922.564,-60.024
136.64,974.048,-81.252
96.136,981.856,-68.32
71.004,971.852,-73.932
143.96,1002.108,-76.372
146.888,1000.156,-61.244
127.124,1032.364,-71.248
67.344,1039.684,-110.288
58.56,1018.7,-98.82
113.948,1025.532,-87.352
89.06,1016.26,-99.796
95.404,1047.736,-102.724
92.72,1026.996,-81.984
80.52,998.936,-79.056
82.96,994.056,-81.252
93.696,995.52,-57.828
103.456,992.836,-54.656
99.064,961.604,-47.336
92.232,968.924,-66.124
92.72,970.144,-49.044
94.184,973.072,-29.036
107.116,980.148,-49.776
72.956,1004.304,-90.28
41.236,984.052,-71.736
71.736,983.32,-63.928
84.424,996.74,-67.344
101.748,1020.652,-75.396
98.82,994.544,-46.116
50.264,974.78,-68.32
50.264,970.144,-74.42
81.008,971.364,-46.116
93.452,988.688,-51.24
75.396,995.764,-71.004
68.564,992.104,-67.1
68.808,986.492,-68.564
86.864,997.472,-67.1
82.472,986.248,-52.704
68.32,977.464,-69.54
85.156,983.076,-67.588
83.692,988.2,-56.364
77.104,995.032,-62.22
55.144,970.388,-59.536
58.804,968.68,-65.636
64.416,960.384,-58.804
82.472,967.948,-50.508
82.96,996.008,-66.124
54.168,970.876,-59.048
42.456,984.052,-78.812
53.924,999.668,-80.276
72.712,1028.216,-78.568
77.836,1044.808,-83.936
68.808,1020.408,-76.86
67.344,973.072,-52.948
42.7,944.768,-51.484
30.744,957.456,-70.76
65.88,997.228,-66.856
71.98,997.96,-51.972
80.032,999.668,-54.9
63.684,980.392,-53.436
55.876,975.512,-66.368
68.564,992.592,-67.588
54.168,994.788,-74.908
36.844,992.348,-88.816
51.484,993.812,-81.252
53.192,978.928,-66.612
55.388,971.608,-70.76
50.752,962.336,-67.832
58.316,963.312,-62.952
41.968,963.8,-73.932
43.92,974.292,-74.908
54.9,980.148,-71.98
66.612,982.344,-62.952
66.856,958.432,-53.924
60.756,949.892,-61.732
34.648,944.768,-73.444
30.256,951.356,-72.956
34.404,950.624,-70.516
50.02,960.628,-76.372
53.68,950.868,-68.564
28.792,943.792,-78.08
17.812,927.932,-80.764
35.624,927.932,-79.544
65.636,927.444,-54.412
74.908,929.884,-58.316
66.368,918.66,-60.268
53.436,912.072,-74.664
48.556,931.836,-76.372
61.0,957.944,-74.908
65.392,952.332,-68.808
58.56,942.084,-79.3
85.644,974.048,-80.52
79.544,976.732,-84.18
77.836,953.552,-80.032
93.208,940.864,-72.956
82.228,935.984,-91.012
71.736,926.956,-97.112
70.76,935.008,-102.968
76.372,941.108,-96.868
97.356,964.776,-94.428
98.576,966.24,-109.312
125.66,966.24,-97.6
135.908,974.78,-108.58
110.532,968.68,-114.192
109.8,952.088,-112.972
114.436,961.36,-113.46
125.416,941.108,-100.772
149.816,947.452,-99.796
146.888,951.6,-111.264
142.496,957.456,-110.776
166.652,956.236,-103.456
155.916,955.748,-111.508
155.916,951.112,-109.556
178.364,985.272,-128.588
189.832,965.264,-110.532
211.06,972.828,-107.36
213.5,973.804,-103.212
214.476,968.192,-124.928
193.98,942.328,-141.52
201.056,976.244,-166.164
201.3,981.856,-160.308
192.272,975.756,-156.16
223.504,949.16,-137.128
232.288,927.2,-146.156
253.272,930.86,-128.588
265.472,955.016,-134.444
252.052,1020.896,-167.14
256.932,1096.292,-176.412
276.452,1133.136,-154.696
261.324,1147.532,-169.58
283.284,1179.008,-187.148
280.112,1194.38,-192.028
273.768,1169.248,-177.388
291.092,1148.996,-180.316
290.604,1097.756,-179.828
286.944,1066.036,-173.972
282.796,1049.932,-179.584
263.032,996.74,-172.996
296.704,989.664,-156.648
294.508,937.692,-142.496
284.504,928.42,-166.164
283.04,932.08,-161.772
297.436,934.032,-136.884
274.012,906.948,-141.52
285.236,901.824,-142.008
274.5,904.02,-149.816
282.552,912.072,-148.84
300.364,912.072,-127.856
307.928,914.024,-126.636
312.808,924.76,-136.884
283.772,920.612,-154.208
265.228,928.908,-164.944
278.404,945.012,-167.384
300.364,956.48,-157.38
319.64,951.6,-146.156
325.008,920.368,-142.008
316.956,906.216,-162.992
298.656,894.016,-169.336
341.6,900.36,-147.864
390.888,906.948,-141.52
449.204,917.44,-140.788
490.44,950.38,-150.548
476.044,923.296,-169.336
419.68,939.156,-242.048
446.764,936.96,-226.188
560.712,872.3,-118.828
725.656,920.368,-71.736
747.616,889.624,-99.796
617.32,786.656,-125.66
524.844,672.708,-58.56
626.348,513.864,-19.764
673.684,345.992,92.476
862.052,275.476,125.904
721.264,199.104,49.044
951.844,167.628,-45.14
1261.968,421.876,-307.684
1263.188,540.704,-286.212
1083.116,384.544,-123.952
996.984,276.208,-126.392
965.996,92.476,-96.38
965.508,84.424,-138.592
1000.644,125.416,-178.12
982.1,69.54,-89.548
1183.644,174.948,-273.768
1172.42,119.072,-287.188
958.92,77.104,-217.648
938.912,-28.06,-84.424
1140.212,-119.316,-77.592
1230.492,-148.352,-147.132
1081.652,-131.272,-146.888
1141.676,-108.336,-108.58
1248.548,-112.972,-74.176
1506.944,-154.696,-115.9
1686.528,-222.284,-219.356
1912.228,-261.324,-194.956
2065.704,-265.472,-222.528
2358.26,-297.436,-195.444
3219.58,-484.34,-484.096
3042.192,-810.568,-332.816
2588.352,-1019.676,-71.98
2090.104,-1134.356,18.788
1798.768,-1080.676,-68.564
1293.932,-1032.608,-160.308
578.28,-989.664,106.14
108.336,-813.984,-74.664
-273.28,-625.128,-93.94
-502.884,-445.544,-103.456
-518.012,-202.032,-155.672
-435.784,-60.024,-287.432
-233.264,37.82,-370.88
-171.044,132.004,-407.236
-271.816,234.728,-341.6
-266.204,285.236,-334.036
-146.4,361.608,-391.864
68.808,417.484,-504.592
184.22,492.148,-590.236
289.872,542.9,-648.064
306.952,539.24,-671.732
501.908,464.576,-695.644
619.272,378.932,-685.64
488.244,340.38,-663.924
324.032,397.72,-678.32
282.064,391.132,-576.328
461.648,275.72,-418.948
336.232,175.436,-196.908
240.34,88.572,0.244
351.848,-45.14,349.652
658.068,-155.428,553.88
779.824,-222.528,717.36
922.076,-303.292,884.988
1124.352,-355.752,942.572
1253.184,-385.52,1029.436
1269.776,-442.86,998.204
1286.368,-479.704,984.784
1536.712,-565.348,986.98
1784.372,-640.012,810.568
2012.268,-699.792,628.544
2249.924,-772.016,481.412
2202.344,-793.244,296.216
1909.3,-731.268,7.32
1524.512,-605.364,-186.66
1423.008,-331.84,-601.46
1336.632,-31.476,-993.568
1124.596,158.112,-1135.088
870.104,214.964,-1030.656
872.788,152.012,-893.528
886.94,82.228,-761.28
899.384,2.928,-525.088
863.76,-68.808,-273.036
824.476,-64.904,-170.312
825.94,-19.276,-89.548
757.132,-18.788,41.48
929.64,-37.576,102.48
1042.124,-138.836,199.104
994.3,-205.692,286.7
930.372,-184.22,259.86
959.408,-79.788,154.208
957.7,32.94,116.632
1018.7,75.152,66.368
1002.84,83.692,94.184
880.84,128.832,63.684
788.852,193.98,-51.728
869.372,259.86,-100.04
987.468,309.148,-120.048
986.736,304.512,-95.892
954.528,340.624,-118.584
842.776,420.412,-166.652
734.44,497.76,-176.9
757.376,505.324,-111.752
892.552,555.1,-114.436
930.372,567.056,-77.836
807.884,551.44,-113.948
665.388,628.544,-177.388
631.716,752.008,-157.868
654.164,832.04,-125.172
567.056,880.108,-175.68
431.148,864.004,-172.996
421.876,939.888,-147.376
406.748,903.044,-85.644
402.6,924.516,-107.36
378.688,965.264,-143.228
380.152,976.244,-115.412
321.836,946.72,-99.308
255.224,975.268,-134.2
152.988,955.016,-144.448
146.156,969.412,-88.816
196.908,1001.864,-72.712
172.264,1037.0,-126.88
101.504,1041.392,-144.204
104.92,1111.908,-152.256
91.988,1150.46,-157.624
83.936,1089.46,-124.196
122.488,1034.56,-84.668
84.18,1049.688,-125.172
40.26,1059.448,-139.324
76.86,1067.5,-131.028
80.52,1024.8,-109.068
82.472,996.008,-100.528
90.036,980.392,-102.968
88.084,1001.376,-103.944
85.4,1027.484,-130.296
95.404,1003.084,-116.388
88.084,981.856,-101.504
76.128,976.0,-112.972
67.1,997.472,-113.216
79.056,1021.628,-101.504
89.792,988.688,-85.4
94.428,952.088,-69.052
90.768,973.56,-99.796
72.468,1015.284,-108.336
85.644,1028.216,-98.088
115.656,1010.648,-92.476
120.536,1013.82,-108.092
91.744,1021.384,-111.996
72.468,1035.048,-127.124
94.428,1016.504,-99.308
99.796,973.804,-84.424
88.328,968.192,-87.596
96.624,1018.7,-90.036
63.684,1003.572,-89.06
68.076,951.112,-67.588
81.008,966.24,-70.272
61.0,963.8,-51.972
61.732,950.624,-41.968
79.3,959.896,-44.896
61.488,977.22,-56.852
43.676,975.024,-73.444
44.652,965.02,-67.588
56.852,997.472,-66.612
40.992,980.636,-62.952
0.0,973.072,-86.864
-19.032,970.632,-91.744
-0.976,1001.864,-98.088
20.984,1003.328,-85.156
38.796,999.912,-78.324
40.748,1014.796,-100.04
0.732,991.616,-110.044
-16.836,963.556,-100.04
-17.08,951.844,-93.696
13.42,939.156,-78.324
39.772,974.78,-88.084
-15.86,1005.768,-108.336
-50.508,955.992,-80.764
-1.952,941.108,-69.54
45.872,963.312,-75.884
31.476,950.624,-59.048
-11.468,982.832,-71.98
-17.324,978.928,-62.708
-11.712,946.964,-56.12
-19.52,927.444,-83.936
-43.188,946.232,-68.564
-47.824,959.408,-56.12
-44.652,991.128,-82.96
-54.9,994.544,-93.208
-37.332,963.8,-45.384
-35.624,945.744,-58.072
-34.648,979.904,-73.932
-23.912,988.932,-46.116
-25.62,971.608,-27.816
-41.48,949.16,-45.14
-49.776,945.744,-48.068
-37.576,959.652,-46.116
-21.228,943.792,-20.496
-7.076,973.56,-49.776
-40.992,989.664,-75.152
-100.04,942.328,-77.836
-76.372,944.768,-82.96
-23.668,955.26,-78.812
-6.832,986.004,-78.324
-20.984,1037.0,-113.948
-41.968,1018.944,-103.212
-55.632,960.384,-92.72
-83.692,939.644,-115.656
-84.668,986.98,-118.828
-66.368,1012.356,-101.748
-60.268,1026.752,-102.236
-82.96,1016.748,-118.584
-113.704,972.34,-102.724
-147.132,965.752,-118.584
-144.692,982.344,-118.34
-100.04,1012.6,-102.724
-71.736,1010.892,-77.836
-103.7,1016.504,-106.384
-120.292,1022.36,-108.824
-117.364,975.024,-71.492
-119.072,968.68,-80.032
-125.172,992.104,-88.816
-115.9,1032.608,-86.376
-139.08,1039.196,-89.792
-125.904,1031.632,-88.084
-112.728,994.788,-70.516
-120.536,995.764,-81.252
-128.1,1023.092,-98.332
-117.608,1015.772,-79.544
-94.428,1045.296,-96.868
-100.528,1026.02,-92.232
-86.62,1022.848,-83.448
-102.968,999.424,-92.232
-114.68,999.18,-102.724
-143.472,991.128,-116.144
-120.048,985.272,-90.28
-94.916,981.124,-71.248
-92.72,966.24,-68.564
-106.628,965.02,-78.08
-123.708,1002.108,-112.728
-131.272,994.544,-107.36
-117.852,991.86,-114.924
-103.944,993.08,-110.288
-119.072,993.08,-106.628
-119.804,979.416,-90.28
-105.408,997.228,-113.216
-116.876,1018.944,-129.32
-116.632,1007.72,-112.484
-109.068,982.344,-108.824
-113.216,959.408,-107.848
-125.66,955.016,-109.556
-126.392,955.992,-109.8
-99.796,973.316,-106.872
-93.696,974.292,-107.604
-71.736,1002.352,-103.212
-86.864,984.54,-104.188
-104.92,984.54,-123.952
-106.628,973.56,-118.828
-106.628,969.412,-113.46
-124.684,971.364,-118.828
-133.224,973.804,-128.588
-123.464,982.344,-129.808
-100.04,989.176,-125.172
-103.7,993.08,-127.612
-109.068,995.52,-127.124
-114.924,966.728,-119.56
-101.992,963.556,-125.172
-74.908,978.684,-116.876
-69.54,984.784,-110.776
-91.012,972.584,-122.732
-88.572,982.1,-127.124
-67.832,983.808,-120.78
-70.028,965.752,-102.968
-64.172,955.748,-109.312
-91.744,956.236,-123.952
-104.432,977.952,-138.592
-85.156,983.32,-135.908
-53.436,983.32,-124.44
-44.164,968.68,-114.436
-55.144,968.924,-131.028
-79.3,957.456,-127.368
-70.516,957.456,-126.636
-63.684,960.628,-140.544
-59.536,960.14,-145.668
-38.796,978.684,-143.96
