acc_x[mg],acc_y[mg],acc_z[mg]
-33.916,937.936,-109.068
-37.82,935.984,-108.824
-46.116,935.252,-109.068
-40.016,923.54,-93.94
-20.496,930.128,-91.988
-19.276,922.564,-97.356
-16.348,911.828,-98.332
-25.62,928.664,-111.752
-39.772,946.72,-120.048
-55.144,970.144,-134.444
-63.928,982.832,-133.712
-66.124,998.204,-143.96
-52.704,1004.548,-146.888
-36.356,1001.376,-137.128
-39.284,1015.284,-139.08
-67.1,1025.288,-139.08
-64.416,1047.736,-137.372
-45.872,1062.132,-130.296
-35.868,1072.868,-134.444
-46.604,1055.788,-142.008
-51.484,1029.192,-132.98
-57.34,996.252,-127.368
-63.196,987.712,-138.836
-74.908,966.484,-124.684
-77.348,970.144,-122.976
-72.468,973.56,-124.44
-67.588,993.08,-132.98
-62.464,1015.284,-141.764
-57.828,1029.924,-148.84
-60.268,1013.332,-148.108
-55.632,982.344,-138.592
-42.944,967.216,-141.764
-48.312,960.14,-153.232
-50.508,961.116,-157.38
-41.48,969.412,-166.408
-42.212,957.212,-166.652
-41.48,944.036,-168.36
-32.94,951.356,-190.32
-24.156,956.48,-184.464
-18.788,932.08,-160.064
-25.62,911.584,-156.404
-30.012,915.0,-148.84
-29.524,937.936,-132.248
-35.868,963.312,-127.612
-38.552,986.736,-129.808
-40.748,984.296,-105.408
-45.384,965.752,-68.564
-42.212,943.304,-32.696
-38.064,973.316,-31.232
-49.532,1010.16,-33.916
-62.464,1038.708,-34.404
-56.12,1038.708,-17.324
-44.896,1019.92,-2.928
-42.7,1002.108,4.148
-44.408,1006.744,9.516
-55.388,1008.696,25.132
-62.22,1008.696,36.844
-57.34,1001.864,52.216
-38.796,1025.532,44.652
-30.988,1077.748,15.616
-41.48,1097.268,0.244
-53.192,1066.768,7.32
-51.484,1012.6,25.132
-34.892,977.708,33.184
-29.28,963.8,32.452
-49.044,969.656,17.08
-77.348,966.972,14.884
-82.472,966.484,9.76
-64.904,988.2,0.0
-60.024,1010.648,-12.2
-67.344,1022.36,-23.424
-70.272,1028.46,-26.84
-71.736,1014.796,-22.204
-70.028,1002.84,-14.396
-60.512,1002.596,-12.932
-59.048,986.736,-1.708
-72.956,970.876,0.488
-80.032,961.116,1.952
-70.272,957.456,12.444
-62.952,963.556,19.276
-58.072,977.22,23.668
-59.292,985.028,27.084
-58.804,995.764,25.62
-54.656,997.716,30.256
-48.068,999.668,31.476
-39.772,996.496,40.26
-42.944,996.74,41.236
-50.264,982.344,41.236
-56.364,965.508,49.532
-49.776,969.168,49.776
-41.48,992.592,42.456
-42.7,1007.232,43.92
-39.284,1008.208,44.408
-42.944,997.472,40.748
-43.92,975.268,43.188
-30.988,971.852,45.384
-22.936,969.656,41.724
-29.524,967.216,40.748
-30.5,956.968,40.992
-34.16,950.624,42.212
-38.796,954.528,35.624
-31.72,982.588,21.716
-10.492,1014.552,9.028
-14.64,1036.756,-7.32
-35.136,1029.924,-15.616
-42.212,1000.888,-16.104
-40.26,980.148,-18.544
-29.28,944.524,10.736
-29.28,968.924,-5.124
-50.264,951.6,-7.32
-56.852,964.288,-23.668
-74.664,968.192,-36.356
-64.904,980.148,-26.596
-66.856,976.244,-11.712
-77.836,984.052,-18.3
-86.62,989.908,-20.74
-87.84,983.564,-20.496
-87.84,999.912,-30.012
-99.796,998.448,-24.644
-104.432,991.128,-19.764
-100.284,988.2,-20.496
-95.16,1000.156,-30.744
-94.916,1019.432,-33.428
-86.376,1035.048,-31.72
-91.988,1018.944,-29.036
-101.504,1001.132,-30.5
-108.336,994.056,-38.552
-114.436,993.812,-38.308
-109.312,995.52,-29.524
-104.92,994.056,-30.744
-119.072,976.488,-30.988
-132.98,960.14,-29.768
-125.66,958.188,-28.304
-109.312,977.22,-30.256
-100.284,996.496,-32.452
-92.72,1007.72,-37.332
-97.844,996.252,-40.016
-109.8,969.168,-36.6
-117.608,963.312,-53.192
-109.068,973.804,-53.68
-86.864,973.316,-39.772
-86.132,979.416,-47.58
-102.968,968.68,-55.144
-115.9,965.752,-64.172
-105.164,981.856,-71.736
-89.548,977.464,-57.828
-83.448,975.024,-59.536
-84.668,983.32,-70.516
-83.204,981.368,-75.64
-80.52,989.664,-82.228
-70.516,981.368,-72.956
-59.536,968.924,-69.54
-65.392,934.764,-46.848
-32.208,931.592,-22.448
31.232,974.048,-28.548
75.152,1037.732,-80.764
112.484,1065.304,-101.992
78.08,1020.652,-93.94
53.68,1032.364,-159.576
103.212,947.94,-22.692
178.608,843.264,63.196
215.94,823.988,28.06
162.992,779.58,-48.312
56.852,677.832,-42.7
249.612,507.032,-193.98
597.312,581.94,-272.548
698.084,423.096,-215.94
837.164,364.536,-236.436
751.276,209.84,-185.684
820.084,33.428,-34.892
998.204,-196.908,16.592
1395.192,-222.284,-247.66
1237.324,-261.324,-345.992
993.08,-418.46,-101.016
1126.06,-610.732,130.54
1128.5,-610.0,101.26
1268.312,-601.46,72.468
1397.876,-604.144,-130.296
1389.58,-542.656,-103.212
1466.684,-611.22,-9.516
1620.892,-546.072,-103.7
1772.172,-547.048,-155.672
1722.152,-594.628,-56.12
1692.872,-701.256,77.348
1875.628,-802.516,160.552
1918.816,-999.424,125.904
1980.06,-1137.284,187.88
1862.208,-1163.392,248.88
1384.944,-1134.844,217.892
1084.58,-1030.656,222.772
735.416,-858.88,94.672
482.388,-712.724,52.216
304.756,-650.992,-20.008
119.072,-507.276,-106.14
0.488,-344.528,-206.668
-21.716,-162.016,-275.72
73.2,-58.804,-357.704
267.912,9.272,-446.276
437.98,-10.004,-489.708
519.232,4.88,-547.536
583.404,21.228,-529.48
628.544,48.068,-514.84
724.68,34.648,-511.912
693.692,17.812,-482.388
708.088,12.688,-467.992
682.712,-10.248,-403.332
643.672,-17.08,-352.58
568.764,-28.792,-278.16
532.652,-30.744,-193.492
508.984,-41.48,-60.268
455.548,-126.392,95.648
405.284,-178.12,239.12
413.336,-171.044,380.64
433.588,-149.572,531.188
626.104,-203.252,647.332
813.984,-257.42,765.184
940.376,-361.364,871.324
1058.228,-445.788,962.336
1244.4,-512.4,988.932
1407.88,-608.292,970.388
1503.772,-678.808,915.244
1575.752,-681.736,800.076
1601.372,-698.572,656.604
1600.396,-705.16,469.456
1605.276,-722.24,235.948
1537.444,-708.576,-32.208
1395.924,-569.496,-328.668
1197.796,-448.228,-467.016
956.48,-307.928,-506.788
739.564,-197.396,-506.3
833.016,-194.712,-518.988
881.328,-202.032,-507.032
890.6,-232.044,-392.352
923.784,-254.736,-254.248
968.68,-278.648,-148.596
1039.928,-326.96,29.036
1012.6,-291.824,142.008
1146.556,-343.064,274.988
939.4,-363.56,356.728
499.956,-266.692,370.636
913.048,-176.9,337.94
1208.776,-136.396,212.524
1185.84,-36.112,177.144
1032.852,-1.952,182.268
946.232,44.408,225.944
901.58,148.352,255.468
910.608,199.592,215.208
930.86,281.82,158.6
946.476,304.512,181.048
930.86,403.82,183.244
880.596,488.244,159.82
807.64,528.992,181.048
778.36,608.292,199.104
775.92,727.364,126.88
736.148,788.364,110.776
641.476,756.156,159.088
486.048,752.496,117.12
406.016,816.424,81.008
449.936,911.828,65.148
512.644,1056.764,50.02
437.492,964.044,92.476
393.572,936.228,95.404
317.444,935.984,82.96
248.636,939.888,47.58
198.372,899.628,59.78
238.632,964.532,34.404
265.228,949.16,61.0
245.952,917.196,83.204
221.064,939.888,52.46
185.44,980.88,27.328
157.868,995.276,23.912
159.332,1041.148,1.22
140.544,1055.788,-7.564
114.436,1085.556,-15.616
79.056,1100.684,-28.06
26.84,1075.796,-29.036
7.564,1066.036,-42.456
18.788,1108.736,-73.2
13.42,1097.756,-73.932
13.664,1113.372,-81.74
14.152,1110.688,-77.104
12.2,1080.92,-77.104
20.984,1051.64,-74.42
27.572,1036.756,-68.32
11.468,992.836,-66.612
2.684,964.044,-52.948
10.004,965.508,-51.972
5.368,967.46,-52.46
14.884,958.92,-41.968
26.596,950.136,-28.548
56.364,977.464,-27.572
67.1,996.984,-23.18
46.848,998.692,-27.572
25.62,991.372,-26.352
47.092,976.0,-11.468
74.664,969.412,-1.464
99.064,1028.216,-27.572
75.152,1056.032,-34.404
41.236,1015.772,-23.18
45.384,994.544,-13.42
55.144,979.416,-15.616
73.932,986.736,-21.96
82.472,1022.116,-28.304
63.44,1018.944,-27.328
60.512,998.448,-14.884
61.732,984.54,-14.152
60.512,975.756,-18.3
63.196,984.54,-26.84
71.004,987.224,-10.736
78.568,995.52,-3.416
81.496,990.396,10.248
67.588,957.944,12.688
64.172,956.236,3.66
54.412,956.236,0.244
47.336,946.72,5.612
74.908,974.292,4.88
86.864,988.444,2.684
83.448,984.052,3.172
77.104,975.512,3.172
81.74,970.144,8.54
80.032,965.508,6.344
91.256,1003.572,-9.76
81.496,1013.332,-8.54
68.808,976.976,2.44
82.472,974.78,3.904
79.056,964.532,-2.684
69.54,958.676,-4.88
66.612,970.388,-1.952
54.656,975.024,1.22
57.828,974.292,7.076
62.464,968.924,10.004
68.076,980.636,10.736
69.052,994.3,13.908
70.028,1003.328,19.764
69.296,1010.16,22.448
80.032,1021.384,25.376
82.96,1011.868,36.6
74.176,987.712,38.064
83.936,1004.304,34.648
85.644,1003.572,36.6
82.472,997.716,38.308
77.592,1000.644,32.208
79.056,996.252,27.328
90.524,981.856,32.452
96.868,974.292,32.208
102.236,985.028,27.572
90.28,995.276,12.688
80.764,994.056,14.64
72.468,974.048,26.596
58.804,955.016,26.84
62.464,949.16,23.668
81.74,984.052,23.18
73.444,989.664,31.964
71.248,981.856,46.604
76.128,973.072,49.776
91.988,970.876,47.58
101.504,967.46,49.776
90.036,958.432,45.872
93.208,951.844,50.508
86.864,932.08,49.532
78.324,924.028,42.7
78.568,912.56,31.476
78.324,921.344,15.616
70.516,915.732,2.684
69.54,924.272,-3.172
40.992,907.192,-10.492
26.84,867.908,-9.76
40.016,837.164,-12.688
71.736,855.708,-27.084
101.26,877.912,-33.916
107.116,893.04,-36.112
61.976,889.868,-48.8
41.236,816.424,-39.04
55.388,764.452,-35.136
89.792,777.14,-74.664
126.88,893.772,-122.244
123.464,923.54,-138.104
68.076,879.132,-126.148
33.916,840.58,-120.78
68.076,848.388,-129.564
134.688,913.292,-142.74
177.144,1050.908,-178.852
177.876,1114.348,-186.172
174.704,1134.112,-172.752
170.312,1133.868,-160.308
193.98,1169.004,-176.656
245.22,1274.412,-192.272
241.072,1285.392,-177.144
213.5,1286.124,-184.708
206.18,1276.608,-185.44
186.416,1215.12,-189.832
160.796,1167.54,-199.592
157.624,1143.384,-209.596
182.512,1110.2,-202.276
186.416,1089.948,-205.448
189.344,1055.3,-206.668
189.588,997.228,-206.912
200.812,962.092,-210.328
199.592,922.32,-209.84
215.452,896.456,-197.64
250.1,910.12,-197.64
263.032,919.392,-197.152
268.4,912.804,-189.588
257.908,907.192,-194.224
252.784,903.776,-195.932
270.84,899.14,-183.488
292.068,896.212,-173.972
271.572,912.072,-187.392
259.86,934.032,-192.516
253.76,946.232,-188.368
267.668,939.644,-191.296
329.888,955.504,-177.632
373.808,987.956,-179.096
405.772,994.544,-184.708
445.788,986.98,-184.22
487.024,1009.672,-170.8
497.272,982.1,-190.564
482.388,910.12,-195.932
525.576,767.868,-118.828
639.28,702.964,-116.876
748.592,774.7,-175.68
824.964,826.428,-232.776
835.456,782.02,-216.428
800.32,583.16,-204.716
692.716,367.952,-57.584
657.092,133.956,-54.168
713.944,-0.488,-83.204
976.488,9.028,-207.156
947.452,-28.06,-117.852
1007.476,-30.5,-151.524
1107.516,-11.224,-202.52
1143.384,-158.6,-95.16
1190.72,-214.476,-107.36
1186.084,-200.812,-200.08
1134.844,-211.06,-180.072
1098.732,-289.628,-54.412
1170.468,-405.04,-28.548
1381.528,-270.84,-173.972
1700.924,-231.312,-238.388
1959.076,-321.592,-220.088
2133.536,-269.62,-208.132
2458.3,-369.172,-272.548
2625.684,-681.736,-259.128
2560.048,-952.332,-163.48
2323.368,-1234.396,-33.184
1822.192,-1300.276,-55.144
1291.492,-1315.404,-19.52
849.608,-1193.404,-73.2
456.28,-923.54,-216.672
-87.352,-727.608,-153.964
-343.308,-348.432,-72.956
-323.3,-272.06,-4.148
-365.024,-199.348,70.516
-336.72,-87.352,24.4
-144.448,-43.432,-22.448
161.284,-41.968,-197.152
491.172,11.956,-373.076
586.332,140.788,-379.176
635.62,186.904,-331.84
729.56,198.616,-337.94
788.608,194.468,-354.532
859.856,151.524,-406.504
882.06,104.188,-419.924
864.736,94.672,-414.068
769.576,111.752,-349.896
692.228,132.492,-284.016
644.892,98.82,-219.844
566.324,65.148,-143.228
496.784,61.732,-23.668
465.796,44.652,108.824
478.484,-0.488,210.572
532.164,-52.46,306.464
526.796,-30.256,436.028
587.064,-69.784,558.028
746.152,-132.248,630.496
988.444,-199.836,711.016
1147.532,-287.92,796.904
1209.02,-396.988,935.252
1336.876,-503.616,1019.92
1528.904,-581.208,971.852
1648.952,-669.048,861.076
1706.292,-693.692,685.396
1706.048,-674.416,451.644
1626.016,-651.236,231.8
1548.668,-533.384,-87.84
1452.288,-334.036,-441.396
1254.892,-156.892,-580.476
1017.968,-29.036,-533.872
875.472,14.396,-445.3
827.16,13.176,-343.308
759.328,-30.744,-237.412
776.896,-119.316,-121.024
825.452,-167.872,-49.044
855.22,-181.78,39.04
898.652,-169.58,112.484
997.716,-133.712,142.252
1057.008,-152.744,179.34
1065.792,-193.98,220.332
1035.536,-254.736,257.42
1034.316,-275.72,263.032
1047.736,-264.008,256.932
1094.096,-242.048,240.096
998.204,-232.288,250.588
862.54,-142.984,261.324
980.148,-116.632,233.264
1110.2,-111.02,194.712
1188.28,-106.14,140.056
737.124,-65.88,102.236
663.192,141.276,137.372
963.068,213.988,29.28
1113.372,139.324,1.464
1171.932,141.276,-23.912
939.156,242.292,-113.46
832.528,373.076,-111.752
906.46,409.676,-30.988
940.376,418.704,-34.404
886.696,448.228,-66.612
807.884,530.456,-121.024
838.384,651.48,-120.292
808.616,699.06,-114.192
751.764,726.632,-65.148
641.232,727.608,-67.344
586.332,735.904,-49.288
567.3,815.936,-57.828
593.164,897.676,-56.364
669.292,910.364,-0.244
572.912,938.912,-47.336
521.672,949.892,-60.756
493.612,961.36,-21.228
407.48,979.416,-33.916
323.544,985.028,-59.78
344.04,940.864,-14.64
352.58,939.4,-16.836
334.28,1014.064,-37.332
310.856,990.64,-8.54
266.692,928.176,2.684
278.16,914.024,23.18
235.46,964.044,-15.372
219.112,1019.92,-24.4
190.32,1007.964,-20.496
199.348,965.508,-8.54
208.62,979.416,-10.492
199.592,1003.816,-16.592
152.256,998.448,-15.616
124.684,978.44,-2.196
120.78,971.852,-9.028
144.448,950.38,-10.004
154.94,980.392,-21.96
136.884,1000.4,-32.696
124.196,1006.256,-25.864
120.292,976.244,-18.544
110.776,968.924,-31.232
102.968,1005.768,-47.58
108.092,1031.876,-48.556
102.724,1022.848,-39.772
89.304,1007.476,-42.456
77.836,991.86,-43.188
64.904,975.756,-53.192
63.928,968.436,-47.336
80.764,951.6,-33.428
91.744,963.312,-30.988
76.616,999.912,-56.852
72.712,1008.208,-65.148
92.964,983.076,-49.044
103.7,985.76,-45.14
112.24,995.032,-50.264
117.608,991.128,-46.848
107.116,982.344,-54.168
89.792,955.26,-56.852
86.132,946.72,-61.244
103.456,958.676,-62.952
116.388,997.716,-70.516
114.436,1004.792,-69.54
105.652,993.812,-63.684
101.748,996.984,-70.516
101.016,998.936,-70.516
108.824,998.936,-69.54
107.604,1012.356,-69.052
110.288,1024.8,-60.756
107.604,1003.816,-51.484
110.044,993.812,-50.508
115.9,998.692,-50.264
121.756,993.324,-46.36
125.904,991.616,-40.992
111.508,986.004,-48.312
93.208,975.512,-52.948
86.62,994.544,-63.928
95.892,991.372,-54.656
100.04,992.836,-56.12
90.28,1001.864,-68.32
86.62,989.664,-60.756
95.892,989.42,-54.656
98.576,979.416,-50.02
96.136,970.876,-55.144
98.332,986.004,-57.584
100.528,987.712,-55.876
105.408,974.78,-48.8
114.192,982.344,-49.044
112.484,988.932,-48.8
97.6,978.44,-48.556
97.356,973.56,-48.312
110.776,990.396,-51.484
122.732,994.544,-47.336
124.928,1002.352,-48.068
107.116,1005.524,-63.196
93.696,997.228,-68.076
91.256,999.18,-70.76
85.4,994.544,-71.004
93.208,996.252,-65.88
104.676,982.832,-55.876
104.676,974.048,-51.24
96.38,967.216,-49.532
95.404,959.652,-40.016
88.572,945.744,-42.944
85.4,943.548,-45.384
86.376,961.604,-46.116
89.06,970.144,-41.236
98.576,975.512,-31.72
104.676,992.836,-23.912
95.892,994.788,-29.524
88.328,985.76,-36.844
91.012,993.568,-47.824
86.376,997.716,-49.044
85.644,988.932,-36.844
91.256,985.516,-32.208
103.212,1007.72,-30.256
101.26,991.616,-27.328
90.524,982.344,-35.38
79.788,968.924,-42.944
83.692,955.26,-42.7
92.964,954.528,-39.284
84.18,950.624,-34.404
78.324,959.652,-34.892
77.592,955.748,-41.968
86.62,963.312,-43.92
112.972,980.636,-43.432
124.684,999.668,-39.528
108.336,983.808,-33.184
85.156,962.092,-42.456
70.76,958.188,-54.9
77.836,952.332,-58.072
86.376,955.26,-61.488
93.696,950.624,-52.704
94.916,955.26,-61.0
85.4,946.232,-66.124
68.32,923.784,-59.048
51.484,930.128,-75.396
65.636,949.16,-78.08
88.084,967.46,-71.248
98.332,972.096,-61.244
88.328,961.604,-57.34
57.34,939.4,-61.244
49.532,925.004,-61.976
70.76,920.856,-62.464
103.7,937.936,-56.12
112.24,932.812,-45.628
95.892,931.348,-52.216
66.124,918.172,-69.052
83.936,927.932,-68.564
117.852,944.524,-44.896
121.756,943.06,-44.408
117.852,942.816,-51.972
116.388,947.452,-60.756
122.244,937.936,-56.12
117.12,942.084,-60.756
124.44,940.62,-60.024
120.048,929.152,-57.828
99.552,902.8,-55.632
100.772,893.284,-66.856
139.324,930.128,-75.884
174.216,966.484,-73.2
178.852,985.516,-75.396
146.4,1046.272,-90.524
97.356,1020.164,-94.428
103.7,1011.38,-85.156
132.736,1033.34,-74.176
161.284,1039.928,-68.564
181.536,1068.476,-74.908
158.844,1086.532,-93.452
145.424,1108.492,-106.384
166.164,1124.84,-98.576
190.32,1101.172,-81.984
196.908,1101.904,-87.352
205.448,1140.7,-95.648
195.444,1114.836,-94.916
192.028,1097.268,-94.428
206.424,1091.412,-89.792
206.668,1065.06,-92.476
188.856,1028.948,-106.384
180.56,1019.432,-117.852
201.056,1025.044,-111.264
223.016,999.912,-95.404
224.48,996.74,-95.648
213.256,992.836,-107.116
228.14,973.56,-103.212
247.416,993.324,-109.556
250.832,981.124,-99.308
242.78,947.208,-93.94
257.664,955.26,-91.256
271.816,975.512,-93.696
255.468,973.56,-105.896
248.392,956.724,-104.676
261.08,937.448,-93.208
274.988,942.816,-83.936
282.552,943.06,-82.716
297.924,952.82,-88.084
298.9,958.676,-95.404
283.772,947.208,-100.04
283.284,936.472,-93.452
293.532,934.764,-86.132
303.292,954.04,-89.304
316.712,965.264,-85.4
325.008,957.7,-79.788
327.692,955.016,-81.74
335.988,960.14,-84.912
357.704,986.492,-102.236
406.26,1004.792,-94.916
470.676,982.588,-60.756
504.104,956.968,-43.432
521.916,948.672,-52.46
469.944,930.616,-72.712
499.468,864.98,-67.832
551.196,886.208,-11.712
607.56,846.68,-15.372
644.404,757.376,7.564
598.776,590.236,46.604
545.34,615.368,-81.74
596.092,711.016,-204.716
922.32,719.068,-119.316
1154.852,608.292,34.892
1087.264,416.996,51.484
918.172,263.276,-14.64
894.748,251.32,-61.0
895.48,171.288,-33.916
917.44,97.844,-11.468
990.884,-4.148,-38.064
1054.324,-126.88,-24.888
1092.144,-184.708,-44.652
1043.344,-258.64,-39.284
940.864,-297.436,17.324
912.56,-339.648,26.84
1111.664,-307.684,69.784
1212.924,-424.804,29.28
1128.5,-439.688,-25.376
1269.532,-330.62,-92.964
1383.48,-344.772,-154.208
1559.16,-487.512,-103.944
1808.04,-603.168,-186.416
1898.32,-616.1,-251.808
1924.184,-679.54,-184.22
2043.012,-873.764,-88.084
2073.756,-1127.768,-26.108
2035.936,-1286.124,-54.168
1875.14,-1301.008,-135.908
1498.404,-1247.572,-116.388
1084.58,-1151.924,-86.132
697.352,-1011.624,-58.56
364.78,-904.996,-64.66
97.844,-668.804,-140.788
-225.944,-430.904,-128.1
-441.884,-229.36,27.572
-359.656,-80.52,99.064
-184.952,-13.664,47.824
-114.924,47.336,-33.428
67.832,101.504,-164.456
340.868,163.724,-358.924
599.752,187.148,-485.072
853.512,191.296,-550.22
925.248,200.568,-530.7
967.216,157.38,-516.06
1046.516,98.088,-542.412
1049.444,62.464,-537.776
981.124,25.62,-478.728
892.064,45.384,-414.312
821.06,76.616,-322.08
709.552,66.124,-209.108
609.268,80.52,-90.768
548.512,66.856,22.692
500.932,51.484,129.32
467.992,16.592,233.02
497.516,-20.252,324.764
518.744,-43.188,415.288
581.696,-97.112,520.208
694.18,-162.26,585.356
841.068,-198.128,608.292
963.068,-256.932,624.396
1087.752,-324.764,640.744
1098.488,-383.568,714.432
1098.732,-443.836,738.1
1226.832,-453.84,649.284
1278.56,-464.576,617.32
1321.26,-480.68,569.008
1445.212,-491.904,444.568
1535.248,-588.284,351.848
1617.964,-691.984,211.06
1566.48,-726.876,24.4
1586.488,-713.212,-151.28
1493.28,-656.848,-232.044
1293.688,-531.92,-294.996
1071.404,-344.772,-349.896
1042.124,-203.496,-387.96
883.768,-77.592,-383.324
886.452,-71.736,-340.38
857.66,-31.72,-310.856
801.54,-43.676,-219.112
811.3,-67.588,-132.248
878.156,-101.016,-41.724
895.48,-147.62,46.604
940.132,-202.764,108.092
983.076,-242.292,122.732
1011.38,-282.308,161.284
1043.832,-316.956,185.928
1030.9,-298.412,208.376
1033.584,-264.74,180.56
1074.576,-252.784,161.772
1085.068,-242.048,133.712
1061.644,-256.2,147.864
1006.012,-244.0,153.476
991.86,-229.116,149.572
991.372,-241.316,129.564
1017.236,-215.94,103.212
1031.876,-193.248,92.964
952.332,-156.16,106.384
938.912,-138.836,123.952
997.228,-133.956,140.3
1034.56,-130.784,111.752
1032.852,-95.16,74.664
1042.368,-16.592,20.984
1015.528,17.324,27.816
999.668,3.66,65.636
989.664,1.464,60.024
973.316,58.072,28.304
955.748,175.68,-7.808
998.204,206.668,-11.224
1036.756,209.352,8.54
992.104,221.796,39.04
957.456,252.784,47.336
980.636,342.82,6.588
925.004,403.576,17.08
894.016,432.124,57.828
892.552,435.784,89.792
946.232,445.056,110.776
1003.084,548.512,121.756
896.944,621.224,97.112
819.596,624.64,84.18
736.636,601.704,125.904
687.104,608.048,107.36
638.06,716.628,69.784
607.56,774.456,75.64
613.904,804.224,113.948
602.192,835.944,119.804
524.356,881.816,82.716
444.568,874.984,79.544
414.068,878.4,102.724
433.588,897.676,100.772
471.896,963.556,88.328
413.336,983.32,53.924
299.388,901.336,48.8
278.892,914.512,57.584
280.356,950.868,56.12
291.824,1018.944,35.136
288.652,1017.968,40.992
261.324,1008.696,63.684
191.54,938.424,68.808
122.976,910.852,52.216
109.8,966.728,19.52
126.636,1002.352,16.836
176.656,1007.232,46.116
197.396,1012.844,58.316
185.684,1029.924,45.628
141.764,1017.724,35.136
96.38,977.464,22.692
79.3,957.456,-11.712
94.672,1014.064,-45.384
109.312,1021.628,-31.232
112.728,996.984,-15.86
107.116,1012.356,-10.492
89.304,1026.996,-24.156
62.22,1012.112,-31.964
33.916,976.976,-39.528
54.168,985.516,-48.312
80.032,1058.228,-60.268
88.816,1046.272,-43.92
95.892,1028.216,-30.012
92.476,1023.58,-25.132
90.28,1018.944,-27.572
88.328,1018.7,-25.376
88.084,981.856,-11.224
91.988,984.784,-13.176
99.064,1000.4,-15.616
94.672,974.292,0.244
69.296,959.164,-24.888
80.764,948.672,-11.468
88.572,998.936,-18.056
90.28,1023.092,-23.668
78.812,1007.232,-12.444
93.696,984.296,5.368
127.368,971.852,30.744
120.048,995.52,21.716
92.72,1004.304,14.396
80.764,981.612,26.352
90.28,972.34,32.452
107.36,974.78,17.08
117.12,967.46,13.908
122.0,980.636,12.688
110.532,997.716,16.836
84.912,958.92,31.476
56.364,943.304,31.232
52.216,956.724,16.348
62.952,957.944,17.568
80.032,969.656,17.812
93.208,1000.644,20.74
79.3,992.348,27.816
60.024,969.412,28.304
66.612,959.896,33.916
82.96,976.488,28.792
89.548,1003.084,28.792
83.204,1004.304,34.404
81.496,960.628,52.948
82.716,922.564,58.56
86.132,911.828,65.88
101.016,912.316,63.44
117.608,921.832,65.636
156.404,896.944,96.38
172.264,855.952,160.796
112.728,848.876,130.784
90.768,862.784,85.156
80.276,865.468,71.004
74.908,892.308,67.344
107.116,901.092,96.624
139.08,892.308,125.904
113.704,879.376,143.96
78.568,896.7,120.048
37.82,926.956,103.212
23.424,939.644,89.548
78.812,966.484,99.064
124.44,1002.84,127.856
99.796,995.276,128.344
65.636,953.308,113.948
80.032,940.376,113.216
119.804,968.192,105.408
135.908,1034.804,87.84
117.852,1067.5,66.124
100.528,1030.168,60.512
108.58,986.736,70.516
101.992,1053.104,43.432
62.22,1062.62,17.324
57.096,1026.02,1.464
82.228,1027.728,11.956
80.276,1029.68,-8.296
102.48,1035.78,-10.736
99.796,1031.876,-6.344
58.316,1027.24,-30.988
56.12,1035.536,-23.424
82.472,999.668,-10.98
134.688,1029.436,-9.028
153.232,1049.932,-11.712
122.244,1047.248,-32.208
100.528,1047.004,-32.452
111.508,1055.544,-26.84
124.44,1039.928,-23.668
130.54,1035.292,-32.208
126.636,1061.888,-50.508
139.324,1069.208,-56.364
134.444,1039.196,-50.264
126.392,1037.244,-58.072
117.852,1047.004,-67.588
110.532,1050.42,-77.592
126.636,1061.156,-75.396
148.596,1050.908,-61.488
164.212,1018.456,-51.24
172.02,1008.452,-53.436
167.872,1020.896,-69.052
165.432,1009.428,-64.172
175.924,986.492,-51.24
185.928,976.0,-49.532
196.664,994.788,-52.948
194.712,1015.04,-64.172
180.316,1006.5,-68.564
181.292,984.784,-65.636
188.612,963.8,-59.048
196.908,957.456,-61.732
190.808,982.1,-71.98
184.708,977.464,-80.276
199.592,956.236,-72.224
209.352,954.772,-66.368
203.496,973.316,-74.176
199.836,981.612,-73.688
204.472,971.608,-66.124
200.08,957.944,-65.392
201.544,977.464,-72.712
197.152,983.076,-77.104
198.86,971.364,-74.908
202.276,972.584,-75.64
193.248,978.928,-82.716
203.252,1011.136,-81.984
204.228,989.664,-72.956
204.228,968.436,-68.564
205.448,978.196,-77.104
217.892,975.024,-85.888
240.828,972.584,-80.032
243.268,966.484,-73.444
232.044,959.652,-78.568
229.604,945.5,-77.836
235.704,943.548,-77.104
239.608,944.524,-79.788
241.56,951.844,-84.668
271.572,971.852,-87.108
313.296,976.0,-74.664
332.328,961.116,-77.348
375.028,951.844,-69.54
403.82,949.16,-64.172
396.988,936.96,-74.908
405.04,936.96,-81.74
433.832,913.048,-73.444
477.508,849.852,-47.336
519.964,790.56,-28.792
564.128,740.784,-22.448
589.504,701.256,-46.36
713.7,802.516,-113.948
840.092,807.396,-94.672
840.092,669.78,-99.796
846.192,571.204,-101.748
757.62,464.332,-19.276
532.652,360.876,48.312
706.624,350.384,-99.308
1034.56,323.3,-129.32
1045.296,138.348,-213.256
1098.488,150.548,-228.628
981.124,69.784,-75.152
877.668,19.276,-10.248
1047.492,7.808,-67.588
1230.98,-154.696,-147.376
1347.368,-264.984,-152.744
1267.58,-264.252,-147.376
950.38,-300.364,5.612
990.396,-381.86,33.916
1202.92,-464.332,-134.444
1205.36,-482.144,-171.532
1369.328,-660.508,-134.444
1368.596,-720.776,-25.376
1357.128,-588.04,11.956
1596.492,-583.404,-87.596
1713.368,-642.696,-152.988
1870.504,-607.072,-132.004
2004.704,-562.176,-129.076
2177.212,-610.732,-88.084
2307.996,-819.596,-158.112
2193.804,-1005.036,-198.86
1824.144,-1097.512,-68.808
1491.816,-1284.416,83.936
1073.844,-1303.448,110.044
648.308,-1144.116,18.788
340.136,-884.256,-113.216
53.436,-674.416,-114.68
-71.248,-497.272,-124.196
-229.36,-278.892,-165.188
-237.412,-80.52,-268.644
-149.328,38.552,-371.856
-116.144,132.492,-412.36
-36.112,204.228,-445.544
192.028,265.472,-537.288
396.012,287.432,-583.648
460.428,267.18,-524.6
516.792,269.376,-481.656
536.312,243.756,-432.368
560.956,220.82,-349.164
580.476,164.456,-245.464
639.524,143.716,-223.26
664.9,126.148,-204.228
644.16,151.524,-139.324
650.748,113.948,-59.292
688.568,56.608,40.992
660.996,-1.22,173.972
628.788,-34.892,298.412
668.56,-54.412,392.108
727.12,-106.14,486.292
863.76,-142.252,587.308
924.516,-221.796,714.676
1031.876,-321.104,822.524
1242.936,-359.656,821.06
1431.304,-425.536,796.904
1516.216,-558.028,788.12
1546.228,-640.5,751.276
1575.508,-670.512,667.584
1695.8,-699.304,464.82
1748.748,-665.632,185.196
1723.616,-560.712,-93.452
1512.068,-443.836,-292.312
1320.528,-282.064,-505.812
1106.784,-112.972,-667.828
798.124,3.904,-647.332
626.836,126.636,-551.44
633.424,188.368,-532.652
748.104,202.032,-522.648
797.636,227.164,-486.292
911.34,210.816,-338.428
961.848,154.94,-223.992
929.152,113.704,-50.752
963.312,113.46,84.18
1183.644,159.088,83.448
1069.208,37.332,145.18
932.812,40.016,180.316
1090.68,50.264,128.344
1151.192,121.512,177.144
1229.76,238.876,124.44
982.1,328.424,42.944
803.98,351.116,95.404
964.532,404.308,94.916
992.104,445.544,36.844
969.656,493.124,43.92
981.856,472.872,58.316
817.4,497.028,92.72
838.14,559.736,50.752
833.992,748.592,-82.228
636.108,737.368,-148.352
730.048,651.48,79.544
750.544,696.132,91.744
679.296,765.672,-32.452
639.524,787.632,-70.272
440.42,685.396,-50.752
548.024,800.076,-24.888
674.66,914.512,27.328
657.336,879.376,35.624
610.244,868.884,-7.32
486.78,860.588,-73.444
423.096,884.744,-58.072
310.124,811.788,-47.336
385.276,911.584,-107.848
511.18,986.004,-69.784
464.576,890.356,2.928
451.4,898.408,-113.704
419.436,912.316,-151.524
400.16,915.488,-121.268
337.696,901.824,-79.056
273.524,932.568,-132.248
259.616,958.432,-110.776
265.96,925.492,-58.804
386.252,1000.888,-90.28
347.212,1013.088,-97.844
319.884,1018.944,-53.192
238.388,995.52,-46.848
162.26,942.816,-59.78
225.944,1008.696,-129.808
181.78,992.104,-66.856
150.06,973.072,-48.312
177.632,1006.012,-82.96
155.672,978.684,-49.044
109.8,976.488,-81.252
119.316,1032.12,-97.356
137.128,1028.216,-19.52
132.492,1042.612,-28.304
124.196,1080.432,-92.232
108.824,961.36,-44.652
125.66,979.904,32.696
82.472,911.096,52.46
130.052,971.608,-20.496
116.876,1008.208,-56.364
83.936,961.604,6.832
95.648,954.04,41.48
111.996,1005.524,-31.964
91.256,998.936,-18.544
85.888,987.468,-22.204
124.196,1045.784,-49.288
81.984,1025.776,-30.5
92.232,999.912,-13.176
100.528,1016.016,-41.236
28.548,987.956,-15.372
56.12,954.772,4.148
97.356,973.072,-8.784
73.444,954.528,13.908
57.096,948.672,10.736
67.1,976.732,-14.64
67.588,991.372,-25.864
78.812,990.396,-13.42
68.564,1003.572,-14.884
30.744,971.364,-2.928
32.94,991.128,-33.428
55.388,1001.376,-21.228
42.7,971.608,18.544
88.572,1013.088,-12.2
68.076,1014.796,-28.304
27.816,1006.744,-26.352
22.936,994.544,-9.76
30.5,996.496,-11.224
60.024,989.908,-3.172
63.196,1000.4,-0.732
78.08,989.176,20.252
90.036,1007.72,1.22
56.12,992.348,9.272
56.608,991.128,18.056
60.756,996.984,14.64
49.532,984.54,17.812
31.476,974.292,9.028
53.924,989.664,7.076
73.444,999.424,13.176
86.132,1007.476,20.984
46.116,996.496,11.956
36.6,997.716,3.66
58.56,997.228,10.492
66.368,993.812,11.712
74.176,977.708,34.648
68.564,972.096,33.428
46.36,976.732,18.544
42.7,972.584,20.74
61.976,987.712,18.788
68.808,987.712,21.472
58.56,996.008,5.124
40.748,995.764,3.172
14.152,981.368,8.296
31.72,975.024,16.836
49.044,966.972,24.644
64.66,973.072,23.424
58.804,986.004,19.764
76.616,990.152,30.988
61.244,973.072,34.16
47.824,970.876,18.788
33.428,960.628,16.104
33.916,954.284,25.132
38.308,961.116,8.052
43.676,956.968,1.952
41.724,943.06,17.324
61.488,966.728,11.468
46.604,955.26,13.42
50.508,951.844,16.592
53.436,942.816,23.18
45.384,924.272,24.156
66.368,918.172,33.428
101.26,918.416,34.16
91.012,920.124,54.412
98.088,921.832,33.916
99.552,959.408,0.488
79.3,928.42,27.328
115.168,901.824,81.74
165.188,881.084,115.9
152.256,921.344,62.708
115.656,931.348,3.416
77.592,958.676,-51.484
40.016,924.028,6.344
118.096,857.172,115.412
136.396,867.176,105.408
103.7,963.556,-21.472
66.612,928.42,3.416
105.164,924.516,31.232
132.004,973.56,30.012
189.344,947.696,101.016
166.896,907.192,122.732
85.4,1002.352,24.4
8.54,1009.672,-10.004
73.688,1003.572,72.224
98.088,1005.768,96.868
104.432,1074.088,50.752
126.88,1014.308,110.288
141.764,965.996,123.952
154.94,1037.0,35.136
121.024,1077.992,-7.808
96.868,979.172,59.048
147.132,1010.16,71.004
108.824,968.436,51.24
147.62,1018.944,0.976
133.224,1096.048,-17.08
123.952,1052.616,31.476
164.7,1084.824,29.28
96.624,1071.404,-27.328
74.908,1007.964,-12.2
75.64,1036.756,-13.176
70.516,1045.296,-2.44
122.0,1064.816,6.588
153.72,1038.22,48.556
114.436,1072.624,0.244
92.964,1062.132,-18.544
94.184,1061.644,-24.4
83.448,1110.444,-37.576
78.08,1097.756,-19.52
90.28,1102.148,-45.14
111.996,1113.372,-60.756
114.924,1065.792,-36.112
83.692,1000.156,-32.696
84.424,973.804,-40.016
105.652,1008.208,-59.78
91.256,1014.064,-69.784
109.068,987.468,-40.992
134.444,980.148,-33.916
139.08,965.996,-37.82
160.796,988.688,-41.724
161.04,1001.132,-38.552
148.84,1006.256,-43.92
148.84,979.904,-32.696
168.36,948.672,-26.84
176.656,909.144,-22.692
228.384,947.94,-47.824
268.156,1015.04,-55.632
269.132,1012.844,-46.848
310.856,942.328,-14.884
308.66,919.392,11.468
345.748,902.068,18.3
347.7,854.0,0.244
397.72,910.12,-50.752
524.112,974.048,-61.244
570.716,972.828,-51.972
548.024,819.108,-57.584
524.844,742.736,-22.936
520.94,660.996,-11.468
554.368,567.544,9.272
745.908,585.844,-72.712
1088.972,665.876,-153.72
1137.04,581.452,-182.268
891.088,468.968,-148.108
739.808,441.884,-91.744
691.008,429.44,45.628
714.676,264.74,66.124
785.924,122.244,17.812
822.28,6.588,-3.172
811.056,-37.82,-37.82
838.628,-29.28,-58.072
1060.668,-55.388,-143.96
1307.352,-132.248,-235.948
1406.66,-212.768,-285.48
1225.368,-252.296,-197.64
1086.776,-254.98,-100.284
1078.236,-303.536,49.776
1238.544,-466.528,-74.908
1337.364,-472.628,-128.344
1206.336,-505.324,-156.16
1202.676,-473.604,-111.264
1202.432,-539.728,-14.64
1250.744,-491.904,13.664
1531.832,-496.784,-127.856
1693.36,-523.868,-272.792
1917.108,-510.692,-382.836
2105.232,-681.248,-331.596
2093.032,-695.644,-77.592
1982.012,-501.42,-0.244
2312.144,-672.464,2.928
2413.648,-933.544,-112.728
2034.472,-1064.816,-137.128
1548.912,-1093.608,-33.428
1064.328,-1055.3,80.764
576.572,-962.58,57.096
77.592,-708.82,99.552
-271.816,-587.552,116.388
-304.024,-473.36,115.168
-415.044,-317.2,-14.884
-355.02,-70.516,-191.784
-211.06,104.188,-336.964
-108.336,176.656,-422.364
90.036,250.832,-520.696
269.62,316.712,-577.792
405.528,347.7,-568.276
482.632,331.84,-529.48
607.316,286.212,-510.692
685.64,268.644,-470.676
758.108,246.684,-419.924
735.172,198.86,-321.104
693.204,151.28,-239.12
602.192,119.804,-142.252
557.296,132.736,-81.74
568.276,163.724,-38.552
603.656,170.556,19.764
603.412,155.184,136.396
648.064,144.692,263.276
665.876,126.88,393.816
718.824,15.86,564.372
858.88,-30.012,690.032
1062.376,-48.8,679.296
1187.792,-64.172,662.46
1297.104,-130.54,740.784
1432.524,-196.908,799.588
1553.06,-239.12,798.612
1693.848,-295.484,748.836
1767.78,-367.464,630.252
1801.208,-474.336,517.768
1893.44,-523.624,255.224
1834.88,-474.58,-60.268
1667.252,-412.36,-275.964
1461.316,-339.404,-466.528
1233.42,-181.292,-603.656
903.044,2.684,-587.796
693.204,79.056,-463.844
671.0,129.32,-447.984
672.952,170.8,-447.984
628.788,187.392,-326.228
741.028,172.02,-225.944
779.58,147.376,-68.564
895.724,119.072,40.992
1004.06,99.796,102.48
1076.772,38.064,205.936
1076.04,-27.328,276.452
1056.52,-51.728,315.98
968.192,-10.492,302.804
1060.424,20.984,254.736
1029.68,28.792,242.78
1030.9,54.9,240.828
1075.552,56.364,180.804
1006.012,81.984,160.552
1021.872,95.404,174.704
1053.104,105.896,149.572
1028.46,185.196,68.808
1029.436,231.556,63.196
922.32,250.1,65.392
695.4,258.884,91.988
818.376,307.44,47.824
1020.896,382.836,-11.712
1087.02,426.024,-63.928
1065.304,485.56,-79.788
868.152,501.908,-61.488
702.232,526.552,-39.528
774.456,589.504,-30.256
842.288,585.844,-63.684
897.432,612.196,-93.208
903.044,641.476,-88.084
763.964,664.9,-44.896
681.98,677.588,-16.592
679.052,732.488,-44.408
727.12,814.228,-84.912
685.396,863.76,-63.928
659.776,847.168,-61.976
635.62,802.76,-22.936
578.28,813.74,0.0
483.364,840.58,-36.6
512.156,858.392,-39.528
549.732,891.82,-42.7
539.972,920.124,-26.352
493.856,859.124,22.692
420.656,852.536,18.788
384.788,874.252,-11.224
349.164,954.528,-59.536
338.916,988.932,-36.112
335.256,947.452,0.488
340.38,955.748,-13.176
326.472,984.052,-28.304
265.228,993.08,-25.376
186.416,964.044,-23.668
150.548,925.492,-12.444
149.328,933.788,-11.468
151.524,944.036,5.368
155.916,965.752,-7.808
175.68,968.436,-10.98
209.84,1006.988,-6.344
194.956,997.472,4.88
150.304,987.956,0.0
144.448,1017.236,-19.276
134.932,1020.896,-40.26
145.18,985.028,-27.084
141.276,1010.892,-40.016
115.9,1013.576,-53.68
107.116,1007.964,-55.632
103.7,1003.572,-52.46
92.72,1021.628,-70.272
76.616,1027.728,-79.3
81.496,1014.552,-70.028
81.008,1003.572,-70.028
81.74,1018.212,-81.252
73.444,1029.924,-91.256
73.2,1013.332,-84.424
85.888,1004.792,-81.74
98.088,997.96,-73.444
92.964,996.008,-71.248
82.716,998.204,-67.1
77.836,991.372,-62.708
94.672,978.196,-54.9
108.58,976.732,-55.388
98.332,985.516,-65.636
85.888,1006.5,-72.468
84.668,1000.644,-62.952
89.792,1002.84,-65.148
89.548,991.128,-63.196
89.06,989.176,-64.172
84.18,992.836,-73.444
77.836,993.568,-64.416
71.492,983.808,-61.488
79.056,981.368,-60.512
95.16,980.636,-56.364
98.82,970.876,-52.216
87.84,962.824,-51.728
85.888,974.048,-56.852
79.788,971.364,-57.096
73.444,973.316,-55.632
79.056,981.856,-59.292
94.672,995.52,-65.148
100.528,1009.672,-60.512
98.576,1005.768,-54.412
82.472,1000.156,-58.316
71.736,987.224,-59.536
86.864,993.568,-61.976
93.94,1008.94,-64.172
93.208,997.96,-55.388
85.156,987.468,-52.704
76.616,978.196,-57.096
76.616,976.976,-57.096
70.76,960.14,-53.924
72.712,961.36,-52.46
79.544,980.148,-61.244
78.568,985.028,-58.804
84.424,993.568,-56.608
86.376,993.568,-59.78
78.08,983.32,-64.904
69.296,991.616,-69.296
76.616,998.204,-62.464
73.932,974.292,-51.728
80.032,977.708,-54.412
88.328,991.128,-61.976
78.08,979.904,-54.168
69.296,976.244,-44.164
73.2,979.416,-43.188
85.644,977.708,-43.92
93.94,971.608,-40.748
91.5,979.904,-44.408
91.256,977.952,-43.676
84.424,970.388,-43.92
82.716,970.632,-50.508
85.888,981.612,-58.56
84.912,981.612,-55.876
90.28,967.216,-47.336
95.648,977.22,-49.044
87.84,969.168,-53.192
85.4,961.116,-57.584
88.084,952.576,-54.656
94.428,948.916,-50.752
102.236,943.792,-42.7
108.336,943.06,-38.552
101.016,932.08,-38.552
99.552,940.864,-44.896
98.088,950.624,-45.384
99.064,955.016,-46.604
98.332,955.016,-49.288
104.676,947.208,-44.652
117.12,950.868,-42.212
117.608,973.316,-46.604
85.888,961.848,-56.608
65.636,919.392,-54.412
61.0,914.268,-54.656
63.44,950.38,-73.444
60.756,927.932,-68.32
41.48,922.32,-72.224
33.916,945.012,-80.032
22.936,919.148,-67.1
39.772,899.384,-57.828
98.088,934.276,-55.632
137.86,979.66,-59.536
148.596,963.556,-43.92
149.084,934.032,-18.544
115.9,908.412,-17.812
99.796,910.12,-35.868
90.524,920.612,-56.608
126.148,951.356,-62.952
143.472,968.68,-67.588
119.804,962.58,-81.74
88.084,971.852,-99.796
73.688,996.984,-121.756
87.84,998.936,-105.896
119.316,990.396,-92.476
153.964,1003.572,-83.448
164.7,981.368,-71.004
178.12,964.044,-68.564
177.388,959.896,-69.784
176.9,939.888,-70.516
165.432,945.988,-89.792
136.396,950.868,-124.44
109.8,986.492,-140.3
134.688,1045.784,-137.616
165.188,1049.2,-124.928
157.38,1088.972,-149.572
129.808,1129.72,-181.048
93.208,1113.616,-187.392
96.868,1114.836,-187.392
127.124,1125.084,-186.172
150.304,1141.92,-192.272
148.84,1146.556,-193.736
125.904,1120.936,-192.028
97.6,1081.408,-196.42
106.872,1072.38,-197.396
136.884,1067.012,-186.416
148.352,1042.124,-172.264
152.012,1044.808,-174.948
156.404,1026.02,-168.848
159.82,1010.404,-162.992
163.236,983.564,-153.964
162.748,963.556,-146.644
172.02,971.12,-148.352
194.468,981.612,-140.544
206.668,980.148,-133.224
189.344,971.12,-134.688
184.708,962.824,-133.712
192.272,951.6,-127.124
205.936,965.508,-125.172
200.568,972.096,-124.684
199.348,956.724,-116.144
204.716,941.352,-104.92
208.376,945.988,-110.532
215.696,976.244,-119.804
221.308,980.636,-108.336
208.376,964.044,-107.848
191.296,948.916,-112.728
185.196,939.156,-118.584
201.788,949.892,-116.144
206.912,960.872,-114.68
208.864,965.996,-113.46
227.896,965.264,-111.508
262.056,979.66,-102.968
296.216,969.9,-104.676
320.86,961.116,-114.924
343.064,938.912,-137.86
337.696,982.832,-203.252
399.916,976.488,-166.652
517.036,946.72,-127.124
597.312,931.104,-163.236
615.612,929.152,-141.764
611.708,837.896,-129.32
557.296,681.004,-102.236
515.328,573.156,-149.572
661.24,574.864,-222.04
826.428,554.856,-211.548
965.996,553.636,-224.724
916.952,493.124,-210.328
781.288,324.52,-85.644
798.856,158.6,-4.148
873.52,45.384,21.96
1064.816,-12.2,-95.648
1130.208,-80.032,-148.596
1009.184,-162.992,-97.844
906.948,-236.436,-14.152
960.14,-281.82,27.084
1127.036,-366.488,-48.312
1214.632,-358.68,-154.208
1159.0,-340.136,-150.304
1231.224,-350.14,-81.74
1279.048,-349.408,-13.42
1443.992,-345.504,-82.716
1600.64,-345.26,-190.076
1677.988,-300.852,-206.18
1975.912,-339.892,-198.372
2232.6,-563.396,-197.64
2288.476,-599.508,-212.768
2309.948,-572.668,-307.928
2243.58,-695.644,-330.864
2032.032,-901.824,-179.584
1720.932,-993.08,-93.208
1251.964,-940.62,-172.508
740.784,-726.144,-212.036
322.568,-496.296,-105.164
271.084,-537.776,-101.992
163.968,-560.468,-169.824
34.16,-418.46,-191.784
-80.52,-267.424,-251.076
-58.56,-130.54,-318.42
34.892,0.0,-427.0
146.888,108.336,-494.344
189.344,204.96,-529.236
262.544,299.632,-523.624
337.94,323.056,-462.624
447.008,302.316,-391.864
535.092,296.704,-344.04
561.2,268.156,-298.9
622.444,208.132,-264.008
622.2,156.648,-200.812
541.436,171.776,-28.304
481.656,108.336,158.844
508.74,40.016,255.712
538.996,48.312,366.488
566.812,5.612,480.924
692.96,-75.152,539.24
869.372,-142.008,628.3
1032.364,-202.276,666.852
1098.976,-267.912,714.92
1260.016,-324.276,717.116
1271.24,-363.804,804.468
1355.176,-429.684,823.256
1504.504,-515.816,723.948
1479.372,-554.856,658.068
1554.28,-565.104,554.368
1673.352,-593.652,326.716
1691.408,-613.172,139.812
1637.24,-544.12,-124.44
1444.968,-368.684,-405.284
1202.188,-200.324,-520.452
990.152,-106.628,-501.664
797.148,46.848,-527.528
722.484,163.236,-513.62
753.96,224.968,-474.336
788.608,181.536,-368.196
881.084,82.228,-262.544
971.364,17.812,-218.868
955.748,-30.5,-98.332
971.12,-68.076,-8.54
1027.728,-70.272,34.16
1079.212,-117.12,102.48
1103.124,-163.724,179.34
1107.272,-168.848,189.588
1111.908,-152.988,177.876
1103.856,-149.328,163.48
1083.116,-132.248,142.984
1113.86,-65.88,82.472
1064.328,-33.184,65.636
982.1,-36.112,89.304
937.936,-29.524,85.4
936.228,33.916,63.44
1080.676,57.584,16.836
1167.54,81.74,-22.936
1024.8,94.184,21.96
722.24,104.92,48.8
764.208,230.824,37.088
959.896,244.732,3.66
1046.76,238.144,-10.98
1108.248,282.552,-61.976
982.588,313.052,-67.344
732.976,369.172,-54.412
700.524,471.164,-48.068
789.828,511.424,-112.972
870.592,560.956,-182.268
915.488,649.528,-229.848
868.396,717.116,-209.596
744.932,739.564,-203.496
693.448,777.384,-140.788
568.764,803.492,-131.028
607.804,836.92,-160.064
569.252,899.628,-180.072
534.36,940.132,-154.696
509.472,910.608,-105.896
488.732,867.42,-79.544
455.548,876.936,-91.256
406.504,927.444,-92.964
360.632,913.78,-67.1
364.048,877.668,-33.428
377.956,876.448,-44.408
349.164,930.128,-48.556
312.076,946.72,-45.14
294.508,968.192,-35.136
268.644,981.612,-29.036
261.324,1017.968,-36.6
226.188,1070.428,-40.016
199.104,1042.612,-26.84
197.152,1003.084,-12.2
186.416,986.492,-22.448
202.276,969.168,-29.768
234.972,993.324,-12.932
200.08,999.668,-15.86
134.444,990.884,-4.88
104.188,970.388,-2.684
104.92,988.444,-17.08
121.268,1005.768,-15.86
115.412,1007.232,-9.272
118.096,977.464,-0.732
135.42,977.952,-0.488
130.296,982.588,-15.86
124.44,984.784,-31.476
131.272,1013.332,-36.112
108.824,1002.108,-29.768
88.816,977.22,-24.156
101.504,980.636,-9.028
125.172,972.584,-51.972
140.788,1022.36,-50.264
121.756,985.272,-57.584
128.832,1024.556,-64.416
109.068,999.424,-47.58
109.068,972.34,-27.572
119.804,974.292,-29.524
160.064,983.564,-31.476
171.288,997.96,-35.624
139.568,986.98,-26.596
121.512,984.54,-41.236
125.416,986.248,-43.676
139.08,994.544,-48.068
132.004,994.544,-40.26
126.88,978.684,-31.72
143.96,986.004,-32.452
142.496,983.564,-37.332
132.248,986.98,-44.408
130.052,1016.748,-51.24
122.488,999.424,-37.332
119.316,978.196,-27.328
107.848,967.948,-29.28
97.356,967.948,-35.868
103.212,973.804,-39.528
103.456,979.66,-36.844
99.552,973.072,-30.256
101.748,976.976,-32.452
108.092,987.468,-36.6
108.336,998.448,-41.48
107.604,1005.036,-36.6
96.136,988.2,-30.5
90.036,979.172,-28.548
92.964,983.808,-33.672
88.084,999.668,-40.992
87.596,994.544,-34.16
80.032,989.42,-32.696
74.664,980.148,-30.988
65.148,984.54,-35.136
65.636,981.856,-33.916
80.764,991.372,-34.404
84.424,987.468,-30.988
80.276,996.496,-32.452
73.444,996.984,-28.792
70.028,986.004,-26.352
70.516,972.584,-26.108
73.2,978.196,-32.208
71.736,969.168,-31.232
70.028,963.8,-28.06
63.44,959.896,-30.256
66.856,969.412,-32.94
65.88,972.584,-34.892
57.584,974.536,-32.452
62.708,970.876,-31.232
79.056,970.388,-33.184
86.62,964.532,-29.28
82.96,957.944,-27.816
76.616,951.112,-24.4
76.128,947.452,-27.572
81.008,959.408,-22.204
79.788,956.968,-14.884
84.912,942.084,-13.42
87.84,943.06,-17.568
81.252,929.884,-17.568
75.884,927.932,-13.908
79.056,935.984,-14.396
80.276,946.964,-14.396
83.692,943.792,-14.884
92.72,949.648,-22.936
88.328,961.116,-28.304
70.516,971.12,-38.552
55.144,987.712,-47.824
59.048,994.056,-57.096
80.764,990.396,-46.848
86.132,970.632,-28.304
82.228,938.18,-19.52
79.544,923.54,-17.324
98.088,932.324,-26.108
94.916,928.176,-20.252
93.696,946.232,-23.912
97.844,961.604,-26.596
111.996,934.032,-21.472
116.388,933.056,-21.228
88.816,945.744,-34.404
64.66,956.48,-56.364
65.636,962.58,-58.56
72.712,952.088,-51.972
82.228,950.868,-51.728
91.5,950.624,-54.412
88.084,969.412,-53.436
54.656,980.392,-83.692
44.408,1022.848,-108.824
49.776,1029.68,-104.188
81.008,1032.852,-90.768
110.532,1029.68,-79.056
95.892,1022.36,-72.224
61.976,1000.4,-72.712
75.152,999.424,-82.228
97.356,1033.828,-89.792
86.132,1045.54,-97.844
90.036,1051.152,-102.724
103.944,1050.176,-105.896
100.284,1032.364,-109.312
86.864,1018.944,-106.872
72.468,1006.012,-120.048
90.036,1039.44,-112.728
129.076,1039.684,-90.768
156.16,1020.652,-68.564
173.24,1038.708,-64.904
159.088,1056.764,-72.712
130.784,1059.448,-80.764
115.656,1068.72,-90.524
113.704,1093.12,-103.7
98.332,1091.168,-111.02
92.964,1065.548,-103.944
94.428,1064.816,-107.848
106.14,1066.036,-111.264
108.336,1073.356,-115.656
115.656,1063.596,-110.044
143.228,1037.0,-96.136
161.772,1023.824,-89.548
170.312,1006.744,-90.524
171.776,998.936,-93.208
161.772,985.028,-95.404
174.46,956.968,-88.328
185.196,944.768,-79.3
181.536,942.328,-85.4
178.364,949.404,-92.72
172.508,947.452,-90.768
167.384,933.056,-85.888
176.412,943.304,-83.692
182.024,969.412,-87.108
186.66,979.904,-88.084
177.388,980.636,-89.06
164.456,974.292,-93.94
150.548,969.412,-96.624
146.888,974.048,-99.308
164.944,992.104,-95.892
173.728,981.612,-92.72
176.9,976.0,-90.524
172.02,971.852,-94.672
176.168,969.656,-93.452
200.812,976.244,-88.328
233.996,981.612,-79.544
255.956,988.2,-76.86
289.872,980.392,-71.492
357.46,984.296,-64.66
381.372,994.544,-73.932
361.608,973.804,-82.716
377.468,962.092,-82.96
409.676,946.72,-84.424
419.924,930.616,-84.668
444.812,897.188,-54.656
486.78,863.76,-41.48
547.536,834.724,-45.872
599.508,791.292,-36.356
595.848,718.092,-32.94
571.448,647.332,10.492
652.456,637.816,-11.224
747.86,573.888,7.564
795.196,536.312,-47.092
921.344,528.992,-110.288
963.312,465.552,-119.56
935.008,371.124,-47.336
874.984,302.804,-14.64
887.916,338.428,-61.488
1063.596,328.18,-131.516
1173.64,205.448,-149.328
1204.872,136.396,-154.208
1039.196,85.156,-114.436
917.196,43.188,-96.38
969.412,26.596,-105.164
1102.148,10.736,-158.6
1143.384,-58.56,-141.032
1212.192,-117.608,-60.512
1206.824,-204.96,-42.456
1330.776,-129.076,-92.964
1414.712,-115.656,-91.744
1336.632,-214.232,33.184
1544.276,-266.448,127.124
1879.532,-362.34,79.544
2020.076,-420.656,62.708
2083.028,-488.732,171.532
2085.224,-597.068,254.98
2060.336,-740.54,289.628
2045.208,-926.956,203.008
1839.76,-1008.696,26.108
1368.352,-918.904,-150.792
971.852,-931.348,-142.496
722.24,-779.824,-254.004
415.288,-552.66,-427.244
157.136,-282.064,-448.716
16.592,-148.84,-397.964
-12.2,-68.564,-304.024
70.76,-11.224,-365.756
216.428,89.06,-489.952
311.1,122.244,-508.008
355.02,122.976,-454.816
407.236,135.176,-389.424
464.82,187.636,-344.284
518.5,230.58,-318.908
606.34,227.652,-274.988
669.048,244.0,-230.58
604.632,222.772,-140.056
611.464,174.46,-56.12
610.732,135.176,14.884
568.276,131.76,119.804
638.792,109.8,192.516
602.436,52.216,300.12
567.788,-6.832,381.372
614.636,14.152,420.412
658.312,-32.208,452.62
787.632,-83.936,495.564
890.112,-150.304,557.784
929.152,-203.252,635.376
1051.152,-255.956,673.928
1235.128,-324.52,688.812
1354.444,-422.608,705.16
1434.964,-422.364,770.552
1495.476,-428.22,806.908
1502.796,-572.668,834.968
1551.596,-744.688,762.5
1562.576,-904.508,563.396
1479.86,-928.908,266.204
1481.08,-750.056,-184.464
1398.852,-423.828,-591.7
1224.636,-134.688,-724.436
1157.536,73.2,-808.128
1102.148,186.416,-804.956
1004.304,235.704,-670.512
907.68,211.06,-516.548
875.716,102.968,-389.424
901.58,-5.612,-272.06
948.184,-54.9,-179.828
962.58,-104.92,-89.304
986.492,-103.7,-26.352
961.848,-71.004,79.544
955.504,-46.36,171.776
975.268,-40.748,201.3
998.448,-76.372,225.944
1003.816,-93.208,227.408
988.932,-82.96,201.3
983.32,-61.0,160.796
996.984,-63.684,141.032
1004.06,-78.568,135.176
939.4,-26.352,135.42
968.192,25.132,89.548
970.144,51.728,73.932
1027.972,53.436,82.472
1176.812,63.684,40.748
962.824,78.08,3.172
908.168,248.636,-8.052
981.124,314.76,-38.796
1021.872,330.864,-23.912
1030.9,362.584,-40.016
923.784,402.112,-50.996
805.932,466.04,-31.232
795.44,549.244,-39.04
814.228,613.172,-30.012
851.072,651.968,-39.284
840.824,689.544,-62.464
749.568,734.684,-74.664
628.788,748.592,-24.156
581.94,755.424,-21.716
610.0,818.132,-49.532
624.396,895.968,-42.456
600.972,930.86,-50.752
488.244,937.448,-51.972
418.216,906.948,-27.816
405.528,903.776,4.636
407.236,929.396,19.276
391.376,973.56,-19.52
331.596,992.592,-52.216
273.28,990.64,-15.128
254.248,959.652,-4.392
286.7,965.508,10.736
281.088,999.668,-6.344
249.856,1012.844,-19.032
231.068,952.82,0.0
189.1,923.784,1.464
153.964,946.476,24.156
152.988,953.064,22.204
186.416,963.556,10.736
211.304,996.74,16.104
189.588,961.36,32.208
180.804,953.796,44.652
182.756,944.768,47.092
190.564,941.84,35.38
180.804,971.12,18.056
157.624,954.528,17.324
150.792,950.136,16.348
162.26,978.684,8.784
125.172,986.98,1.464
123.464,1024.312,-4.88
142.984,1021.628,-11.468
137.128,999.18,10.736
134.2,978.684,12.2
136.884,992.836,-3.66
139.812,997.716,-3.416
159.576,1007.476,-11.224
155.428,1013.088,-11.224
120.78,995.032,-3.66
102.724,978.196,2.44
127.612,987.468,-5.612
156.404,1003.816,-10.492
136.884,983.808,0.976
111.752,970.388,8.784
127.368,979.66,9.272
124.44,967.46,-0.976
109.556,980.636,-2.928
114.436,1014.552,-14.884
134.444,1008.208,1.464
134.444,980.392,9.76
118.34,988.932,5.612
105.896,990.396,2.44
119.316,987.224,2.44
134.2,974.78,0.976
131.272,981.124,-2.684
125.172,999.668,-5.612
123.952,989.908,-2.196
69.784,951.112,-2.928
87.84,1003.816,-13.664
130.784,1024.068,-31.232
154.94,1021.628,-14.396
154.452,1009.184,-6.344
108.092,997.96,-2.196
91.256,986.492,-2.928
110.288,976.976,-13.908
141.764,981.612,-19.764
135.664,1003.572,-10.004
126.392,986.736,0.732
109.8,980.148,3.66
102.724,996.252,0.0
139.812,1003.572,-16.836
146.888,1010.16,-0.488
132.004,1000.888,25.62
124.684,1004.548,32.452
162.26,969.412,22.692
188.124,988.2,27.572
220.82,1015.772,28.792
185.684,1020.896,52.704
117.364,931.104,77.592
65.392,865.956,105.652
45.14,884.256,100.284
25.376,911.34,75.396
83.692,942.328,61.488
174.46,921.344,111.996
161.528,924.028,152.744
35.38,974.78,35.624
5.856,1048.956,-18.788
57.096,996.252,33.916
118.096,941.352,95.892
96.624,956.236,85.888
-2.196,919.88,81.496
14.884,968.192,-42.944
62.464,1013.088,-24.4
97.112,1014.308,38.064
25.132,1019.92,24.156
23.424,1039.928,-25.864
14.152,1047.736,-75.884
3.66,1047.492,-162.504
73.932,1040.172,-142.984
89.06,1028.216,-106.384
55.388,1009.428,-22.936
95.648,1032.12,-20.496
54.9,1038.952,-65.148
-101.016,1055.544,-19.764
9.028,972.34,22.448
172.752,1030.168,-47.824
150.06,1020.408,-71.98
50.508,945.5,-6.344
52.216,975.756,31.476
70.272,1005.768,16.592
30.5,992.836,16.592
-3.416,975.756,-14.884
14.64,925.248,67.344
161.04,959.408,6.832
46.36,949.404,-12.688
19.032,1036.024,-35.38
3.172,1044.076,-97.6
1.464,1019.676,-90.524
42.212,955.016,-54.412
37.088,906.216,-23.912
-15.128,906.216,-16.104
-31.476,889.136,-30.988
70.272,952.82,-65.636
132.98,984.54,-50.996
162.992,953.064,13.664
87.596,1000.156,-80.032
-34.648,975.268,-75.884
71.492,997.96,-71.98
75.884,1010.16,-95.892
44.652,1004.792,-56.608
21.472,937.936,-40.748
32.696,910.852,-62.464
37.088,898.896,-16.836
103.7,958.676,-22.448
113.46,999.18,-56.852
76.372,1014.308,-44.164
80.764,1008.208,-37.332
89.548,1009.428,-35.136
64.66,973.804,6.588
100.772,954.04,1.952
57.828,957.944,-9.516
7.564,953.796,-43.92
1.708,955.26,-77.104
53.192,928.42,-47.824
130.784,923.052,-33.672
152.256,898.652,-9.028
141.764,927.2,19.276
202.276,910.852,-21.716
192.028,936.716,-47.336
166.652,893.04,-22.448
165.676,851.316,-27.084
209.596,817.888,-20.008
331.596,866.932,-28.304
393.084,848.632,27.084
381.372,769.088,86.864
450.912,687.104,134.2
550.952,676.856,99.064
732.0,718.092,81.252
729.804,679.296,78.812
676.368,630.74,59.292
660.752,604.632,32.94
687.104,574.864,38.796
863.76,649.284,32.94
844.24,631.472,26.352
719.312,585.6,31.72
589.504,538.264,19.764
750.544,584.136,-4.392
895.236,654.896,-9.028
979.416,769.82,-51.972
965.02,795.684,-23.18
769.82,692.472,0.0
589.016,578.768,-17.08
776.896,611.22,-10.492
1202.92,791.048,-8.54
1142.652,800.076,39.528
709.552,715.896,15.128
447.74,671.976,-31.476
671.488,804.956,-74.176
1021.872,943.304,-23.912
962.824,873.764,72.224
760.06,781.532,65.636
731.268,780.8,15.372
736.148,848.632,-24.888
659.532,908.9,-29.28
555.588,941.108,-60.268
472.384,912.804,-109.068
461.648,867.908,-130.052
465.308,861.564,-138.104
450.912,898.652,-166.408
426.268,841.556,-94.428
429.44,823.744,-67.588
363.56,872.3,-130.54
377.468,963.8,-201.056
316.224,941.352,-120.536
209.84,879.864,-135.908
277.184,984.296,-194.712
274.988,1023.824,-231.068
243.268,1033.828,-241.316
174.216,981.856,-225.212
123.22,907.68,-207.4
177.144,878.888,-167.872
197.64,927.2,-209.108
159.82,989.176,-303.536
121.512,1005.036,-311.832
126.148,1012.6,-273.28
171.532,1002.108,-223.016
192.516,983.32,-219.6
169.092,1008.94,-240.584
114.192,1025.532,-294.02
144.204,985.028,-202.52
193.492,934.276,-116.632
151.524,1056.276,-299.876
79.788,1109.468,-340.38
72.224,979.172,-195.688
90.768,964.532,-142.496
72.712,924.028,-157.136
87.596,1084.336,-332.084
79.788,1088.484,-290.848
57.096,975.512,-187.392
63.928,949.892,-153.476
81.74,945.988,-154.452
90.28,987.956,-227.896
50.752,995.52,-262.056
43.432,948.916,-216.428
54.412,938.18,-168.604
88.328,932.568,-160.308
85.156,972.828,-220.332
53.924,999.18,-255.468
54.9,963.068,-205.448
77.348,977.464,-183.976
92.964,990.884,-177.388
86.62,975.512,-191.052
65.392,987.224,-216.184
72.956,965.264,-193.98
87.84,962.336,-195.444
76.128,958.92,-195.688
79.056,946.964,-184.464
64.904,949.892,-200.08
68.076,956.236,-202.276
91.988,955.748,-185.196
107.116,975.512,-193.248
108.58,987.712,-187.88
116.388,973.316,-186.416
112.972,949.16,-177.144
138.104,894.992,-135.42
183.244,848.632,-105.164
266.448,892.064,-105.896
356.484,1021.14,-196.908
394.792,1099.952,-231.8
398.208,1079.456,-210.572
432.124,1074.332,-149.816
389.18,993.08,-175.192
467.26,1021.14,-336.232
574.62,964.044,-268.644
731.756,961.116,-291.092
841.8,958.676,-326.716
714.92,784.948,-127.612
724.924,699.06,-240.584
660.508,617.32,-191.54
768.844,447.252,-90.768
980.148,403.82,-47.336
1204.14,535.336,-384.056
1061.888,419.68,-347.944
978.928,282.552,-132.492
933.3,175.68,-50.508
934.764,121.512,-98.088
1236.836,123.708,-298.656
1228.784,-56.12,-286.456
1038.464,-62.22,-215.452
1115.568,30.988,-264.252
1141.432,-4.148,-76.616
1606.984,-24.644,-266.204
1795.108,-55.144,-618.296
1848.3,-63.684,-420.656
1885.388,-160.552,-116.388
2077.416,-191.54,-213.988
2413.16,-494.344,-275.72
2382.904,-778.36,-153.232
1955.416,-967.704,118.584
1646.024,-1049.2,136.396
1434.476,-953.308,-41.724
888.404,-828.624,-234.728
329.156,-689.056,-94.428
-66.368,-557.296,44.408
-170.8,-390.4,-100.04
-244.732,-236.68,-273.768
-203.252,-149.572,-229.604
-112.24,-65.148,-315.004
0.488,41.48,-422.852
154.94,115.656,-474.824
342.088,181.292,-544.364
450.912,207.888,-548.024
507.764,236.436,-514.596
490.684,270.352,-421.388
547.048,279.136,-325.74
644.892,254.736,-288.408
702.232,187.148,-233.264
638.304,117.608,-132.004
574.376,119.072,-8.296
564.86,91.5,91.012
567.056,39.772,163.236
599.752,59.78,232.288
679.784,89.792,312.564
761.28,67.832,406.016
885.232,12.2,485.56
1022.116,-12.2,580.476
1081.408,-64.172,703.94
1199.748,-125.172,830.576
1396.656,-191.052,824.72
1498.16,-230.58,813.252
1649.684,-227.164,749.08
1698.24,-269.376,708.088
1714.1,-351.116,651.48
1805.112,-368.44,393.328
1711.416,-390.888,166.164
1576.484,-348.432,-52.46
1500.844,-200.568,-418.948
1323.7,-75.396,-613.66
1076.772,30.012,-652.456
905.484,149.328,-669.536
803.248,179.096,-617.808
720.532,203.008,-554.856
707.112,188.124,-444.324
696.376,164.7,-307.928
782.264,154.208,-213.988
868.396,133.224,-110.288
936.228,99.552,-30.256
962.336,66.124,74.908
995.032,53.68,142.496
1024.556,31.964,197.152
1066.28,2.44,235.46
1086.044,-22.692,238.388
1120.204,-5.368,195.2
1120.936,14.396,166.896
1075.064,29.28,150.304
1101.66,55.144,121.024
1055.056,80.52,96.136
1047.736,116.144,100.528
1022.848,103.456,95.648
1009.916,112.972,94.672
1026.264,109.8,99.796
1073.356,141.276,75.884
1020.896,133.224,118.584
873.52,176.168,100.528
832.528,291.824,38.552
953.308,395.768,-57.34
1026.996,401.624,-60.268
1074.576,397.72,-46.36
1003.084,370.392,-21.96
793.244,407.724,-30.012
657.092,478.484,-41.724
739.32,578.036,-57.096
1009.428,672.708,40.992
940.62,640.744,19.276
901.092,717.116,-100.284
869.372,779.58,-82.228
726.632,780.068,8.296
559.492,742.98,6.1
495.564,775.92,-50.508
511.912,823.988,-36.6
497.516,831.552,1.952
478.728,845.46,32.208
477.752,848.144,14.64
432.856,839.848,28.06
376.492,914.024,-2.684
416.264,961.116,-24.156
355.264,915.0,16.348
304.756,921.1,20.496
246.44,974.048,-10.492
189.1,1006.012,-42.212
125.904,988.444,-58.316
101.504,967.46,-25.62
91.012,964.776,-35.136
88.816,1042.856,-83.448
53.436,1023.092,-44.164
-8.296,970.632,-31.476
-53.436,941.84,-35.868
-60.512,926.956,-29.524
-34.16,967.46,-40.992
-20.252,1020.408,-38.552
-55.388,982.588,-10.98
-67.588,963.312,-6.1
-98.82,976.244,-19.276
-128.344,1023.58,-45.14
-145.668,1015.284,-40.26
-100.04,1019.676,-52.948
-119.316,1017.968,-37.088
-129.32,1024.068,-62.464
-131.028,1021.14,-47.58
-163.236,1004.06,-52.704
-188.368,989.176,-73.444
-154.696,989.176,-64.66
-113.216,998.448,-53.192
-114.436,997.472,-47.092
-115.9,993.812,-45.628
-95.404,971.852,-19.764
-121.756,979.416,-21.228
-110.532,964.776,-19.52
-100.772,961.36,-12.444
-122.0,953.552,-5.612
-112.728,951.112,-2.684
-87.596,973.804,-7.076
-95.404,991.616,-19.764
-112.484,973.804,-8.052
-86.376,989.908,-8.296
-71.248,986.98,-1.952
-84.912,960.872,9.028
-104.188,958.188,4.636
-102.48,971.364,0.976
-86.376,981.124,7.076
-71.736,988.444,5.856
-67.344,1008.696,-8.052
-82.228,994.544,-0.976
-80.032,974.292,11.224
-63.44,992.592,4.636
-53.924,1017.48,-6.344
-72.956,995.032,9.272
-73.2,978.196,13.664
-62.708,990.396,1.22
-69.052,983.564,10.248
-84.18,969.656,14.152
-79.056,966.972,17.568
-52.948,1003.328,2.684
-46.116,1014.064,-3.66
-47.336,1001.376,8.296
-50.508,993.812,14.884
-55.144,972.34,29.28
-55.388,979.66,22.448
-65.392,969.412,19.276
-43.188,999.424,6.344
-44.408,995.52,13.908
-58.56,975.756,24.156
-57.584,963.556,33.428
-45.384,964.288,29.036
-45.14,964.288,29.036
-46.604,968.68,26.84
-56.852,972.096,22.204
-49.776,984.784,15.372
-31.964,986.736,24.644
-35.38,991.372,23.912
-44.652,995.032,17.568
-30.256,979.904,32.208
2.44,990.884,36.112
-1.464,997.716,32.94
-39.284,973.56,36.356
-63.684,942.084,43.188
-60.756,947.696,37.332
-49.044,954.284,31.232
-24.4,942.084,43.676
7.32,968.436,43.92
11.956,935.74,60.268
-10.736,930.128,58.316
-29.524,929.64,60.756
-64.66,901.824,50.996
-46.604,915.244,47.336
4.148,939.4,49.776
-0.244,911.828,65.392
-21.472,909.632,62.22
-32.94,949.892,32.94
-53.436,959.408,9.516
-54.9,982.832,1.708
-38.308,998.204,11.956
-30.5,1010.16,-1.952
-28.06,1005.768,5.124
-20.252,985.76,18.544
-34.892,989.176,-0.244
-43.188,1002.108,-6.1
-24.644,999.424,0.976
-31.476,980.88,23.424
-25.62,955.992,34.648
-20.008,978.928,24.644
-11.712,1000.4,9.516
-16.348,1013.82,8.052
-52.704,1002.352,21.96
-29.768,975.512,37.576
-29.768,952.088,50.996
-20.496,975.024,32.696
-38.552,965.996,10.248
-14.152,972.584,21.96
-35.868,974.78,18.544
-64.172,961.36,-0.244
-73.688,951.844,-9.516
-45.384,932.08,5.124
-16.104,933.788,13.176
-14.152,939.644,15.128
-21.472,937.448,10.004
-50.508,962.58,-18.056
-37.088,966.972,3.172
-11.712,974.292,13.664
10.492,992.592,17.08
10.248,1007.72,-2.928
2.928,1001.376,-7.32
-8.296,1000.644,-6.1
-32.208,1024.8,-30.012
-41.236,1020.896,-34.404
-37.332,1020.896,-51.972
-25.132,1004.792,-40.504
14.396,1004.548,-2.684
26.596,983.32,19.032
10.248,985.272,-6.1
-12.2,973.072,-38.796
-14.152,947.94,-30.012
38.796,972.34,-5.368
91.5,956.236,39.04
108.58,924.272,50.752
112.24,948.428,29.036
82.716,957.212,16.348
63.44,958.432,20.252
61.976,1008.452,20.74
38.796,995.52,21.472
39.772,1005.768,11.956
61.976,1038.708,12.444
73.932,1034.56,13.42
82.472,1014.308,25.864
71.004,1010.648,20.496
39.528,999.424,-6.344
47.336,990.152,-0.976
77.348,994.788,10.492
82.228,1018.7,10.492
62.22,1022.848,-19.032
53.436,999.18,-22.204
46.848,1035.536,-26.108
48.8,1083.604,-38.064
59.78,1091.412,-30.256
65.88,1110.444,-42.7
57.828,1121.424,-53.924
38.552,1103.612,-65.88
17.324,1114.348,-77.348
32.94,1094.584,-63.928
35.624,1068.964,-65.148
17.568,1059.936,-81.008
9.272,1049.932,-110.044
28.792,1047.004,-104.432
56.852,1044.564,-89.792
65.148,1033.096,-81.252
85.4,1025.532,-66.124
81.74,1008.696,-71.736
54.412,987.224,-94.184
64.904,995.276,-89.792
89.792,991.128,-77.104
80.276,974.292,-77.104
72.956,971.364,-83.448
81.252,974.292,-83.936
84.912,977.952,-88.816
101.504,984.052,-93.208
119.804,992.592,-76.86
132.004,979.66,-71.736
142.008,976.488,-86.62
126.636,965.996,-98.332
133.224,969.656,-104.188
171.044,950.868,-78.324
213.988,945.5,-71.004
237.168,939.156,-77.348
269.132,937.936,-62.952
301.828,945.744,-67.344
318.176,1004.792,-119.316
326.472,986.492,-103.212
350.384,958.188,-91.988
394.792,926.712,-77.104
446.032,910.852,-81.74
459.696,900.116,-75.884
479.704,865.468,-69.296
531.676,864.248,-79.3
616.344,870.104,-45.14
639.28,845.216,-45.14
661.484,759.572,-25.132
709.064,704.672,-23.424
772.504,756.4,-68.076
806.664,726.876,-32.696
799.832,624.396,-8.296
813.496,544.608,2.44
886.208,541.68,-60.512
916.952,530.7,-73.688
902.556,474.824,-27.084
907.924,457.012,-27.572
897.92,428.464,-37.576
937.204,354.776,-34.404
995.764,330.376,-30.988
1124.352,298.412,-97.356
1197.064,243.512,-125.904
1173.64,173.24,-104.188
1095.804,166.408,-31.232
1025.532,104.188,87.108
1095.072,95.892,-39.284
1314.184,140.3,-252.784
1260.992,-2.928,-206.912
1063.352,-90.036,-9.028
1003.328,-66.368,-36.112
1096.292,-20.008,-141.276
1278.316,-65.392,-167.14
1320.528,-241.56,-139.324
1187.06,-344.528,8.296
1242.204,-323.544,18.788
1274.9,-249.612,-111.508
1400.316,-228.628,-105.408
1492.792,-243.512,-46.36
1556.476,-270.108,-86.132
1796.816,-368.44,-199.348
1706.048,-295.972,-78.324
1846.104,-368.44,105.652
2017.636,-527.772,-1.22
1973.228,-669.292,-44.896
1743.624,-579.012,-166.164
1770.708,-1048.468,-167.872
1205.36,-938.424,223.992
946.232,-887.916,133.956
732.976,-658.312,-243.512
276.696,-521.184,-195.688
30.012,-383.812,-147.376
-60.268,-259.86,-289.14
-161.284,-96.136,-366.244
-128.1,35.868,-449.448
-63.684,140.056,-475.556
89.304,144.936,-500.932
67.588,232.776,-498.248
107.604,275.232,-467.26
237.9,296.704,-447.008
333.792,312.32,-355.264
406.016,311.832,-255.712
468.724,283.284,-150.304
507.52,242.048,-86.132
600.24,176.168,16.836
629.52,106.872,155.672
696.62,17.812,263.764
720.776,-57.096,335.012
777.628,-16.104,322.324
809.348,-1.708,388.936
901.336,-56.852,460.428
1047.248,-125.416,458.232
1118.008,-129.808,474.336
1131.916,-155.428,552.66
1178.52,-193.492,610.732
1206.336,-250.344,656.604
1317.844,-340.136,654.652
1393.24,-400.16,619.272
1446.432,-408.7,582.184
1514.264,-461.648,503.86
1584.292,-520.696,365.512
1593.564,-524.6,229.604
1506.212,-487.756,105.896
1423.252,-450.18,-61.732
1329.312,-367.22,-216.672
1255.38,-250.588,-389.668
1074.088,-126.88,-448.472
938.912,-9.272,-451.156
861.564,104.676,-484.096
811.544,206.18,-495.32
753.716,271.084,-427.488
738.832,258.884,-302.56
820.328,196.42,-183.0
872.3,114.924,-57.828
986.492,21.472,29.036
1055.056,-44.652,102.236
1075.308,-81.74,201.056
1097.512,-109.8,242.78
1043.832,-147.132,278.892
1085.8,-129.564,259.616
1085.312,-140.544,231.556
1081.896,-93.208,208.864
1015.528,-77.836,184.952
1010.892,-43.188,152.988
1027.24,-18.544,119.072
1055.788,11.956,117.608
991.372,19.52,101.748
870.348,54.168,93.208
1008.208,132.492,53.68
1058.96,144.936,-18.056
1152.656,184.952,-64.66
1060.912,164.212,-16.836
897.188,203.984,-3.66
918.66,312.564,-13.176
945.988,320.86,-26.108
981.612,346.48,-76.128
1015.284,366.0,-122.732
938.18,358.436,-44.164
859.856,418.216,-33.672
860.588,463.356,-30.256
894.504,469.212,-38.796
883.524,484.096,-46.36
891.088,539.972,-61.732
845.216,580.72,-45.872
848.388,577.548,-27.816
875.96,654.896,-45.14
805.444,682.956,-23.424
697.352,660.508,-5.612
653.676,704.916,24.644
656.116,731.024,34.404
670.024,733.464,55.632
663.436,769.82,66.612
616.1,820.572,54.9
495.564,844.484,51.728
396.012,848.144,43.92
415.532,886.696,55.388
485.804,933.056,86.132
510.204,893.528,100.284
484.34,894.992,95.648
446.52,966.24,88.816
382.836,957.212,72.712
344.284,942.816,68.32
349.164,955.992,71.004
349.652,943.304,87.596
311.1,936.716,80.764
273.036,966.24,75.396
259.86,992.348,70.76
246.684,953.308,50.02
239.608,963.068,47.824
239.364,982.1,42.944
229.604,1005.28,57.34
208.376,1014.308,54.656
191.052,1006.988,50.02
183.732,1005.036,37.332
205.692,1011.38,40.26
218.38,1018.944,48.068
200.324,1046.028,35.38
183.976,1039.44,37.576
166.652,1024.8,35.38
166.896,1006.256,23.912
154.696,1006.744,11.712
130.54,1005.524,7.808
121.756,997.96,11.956
126.148,975.268,12.444
139.812,956.236,17.812
156.404,962.824,19.764
156.892,975.024,14.152
146.4,965.02,21.472
143.472,947.208,24.888
144.448,952.332,23.912
137.372,970.144,20.496
132.004,952.088,12.932
130.784,952.82,15.86
140.788,958.92,25.376
143.716,942.816,27.328
139.324,956.724,19.276
137.616,989.42,16.836
129.564,987.224,12.688
122.244,964.044,18.056
126.148,955.748,22.204
126.148,960.384,12.688
126.636,981.856,8.54
132.004,981.368,15.616
136.152,972.096,27.328
135.664,958.432,25.376
136.152,954.772,22.936
136.152,971.608,18.056
133.224,972.34,17.08
127.612,953.796,15.616
130.54,949.892,11.956
141.764,950.624,18.544
131.272,964.288,12.2
118.584,968.436,15.128
112.24,961.36,13.664
106.872,981.612,9.76
106.872,987.956,8.784
112.24,975.756,12.2
125.172,975.268,21.228
132.98,983.076,17.08
132.492,1008.452,9.272
123.22,1006.012,-0.488
123.952,995.52,1.464
124.196,969.9,11.224
135.176,962.092,16.836
145.912,970.144,18.788
139.568,968.192,10.004
129.32,964.288,8.784
121.268,969.168,5.612
115.412,959.652,6.344
122.0,955.504,10.248
134.688,980.392,9.516
131.76,990.64,8.54
119.56,980.636,3.904
110.288,976.0,-4.636
101.016,989.176,-12.444
103.7,980.148,-14.64
109.556,986.248,-12.932
113.948,993.568,-14.64
113.948,983.564,-12.932
94.184,971.12,-27.328
79.3,967.46,-35.136
78.812,952.332,-37.332
96.624,953.064,-20.984
95.16,958.92,-30.744
84.18,967.216,-46.116
73.932,968.924,-58.56
58.804,962.336,-57.828
34.16,952.82,-46.36
17.568,935.496,-47.336
20.252,954.772,-57.828
34.404,956.48,-62.22
25.864,981.612,-74.176
8.052,1001.132,-85.644
-2.44,976.488,-82.472
-0.488,985.272,-74.176
4.392,992.836,-68.808
16.592,975.756,-71.98
29.524,985.76,-83.692
43.676,1006.744,-76.616
34.892,992.836,-81.74
19.52,969.168,-86.62
3.904,967.948,-109.068
-4.88,982.832,-130.784
12.688,979.416,-123.464
25.62,1003.328,-111.02
17.08,1004.304,-115.656
18.056,974.048,-115.656
36.356,963.068,-105.408
38.552,956.48,-107.36
22.936,972.34,-135.176
10.736,988.688,-144.692
16.592,975.512,-140.056
22.936,977.22,-129.32
32.696,981.612,-122.488
45.14,1010.892,-122.732
34.404,1014.064,-126.88
-4.148,999.668,-154.208
-27.328,993.08,-169.336
-7.32,1012.112,-163.724
21.716,1046.272,-154.94
7.808,1066.28,-146.644
-25.132,1037.732,-157.624
-42.7,1024.068,-175.68
-36.844,1032.364,-184.22
-24.156,1047.98,-178.852
-15.372,1070.916,-172.752
-15.616,1065.792,-173.972
-30.012,1037.732,-177.632
-28.792,1037.488,-173.24
-16.104,1043.832,-169.336
-14.152,1051.64,-167.872
-14.884,1062.132,-168.848
-5.856,1068.232,-160.308
10.004,1033.828,-145.18
8.296,1009.672,-142.252
0.488,999.912,-149.572
-7.32,984.052,-161.284
-0.488,965.996,-157.136
8.54,953.064,-157.868
16.104,947.208,-156.16
25.376,943.548,-152.012
32.208,957.456,-147.864
33.184,982.588,-148.352
29.768,990.152,-149.084
34.892,988.444,-140.788
44.408,1001.62,-138.348
59.048,1025.776,-133.712
64.66,1031.632,-133.224
57.584,999.912,-143.716
50.264,976.0,-154.696
70.028,964.532,-154.696
89.792,963.312,-149.572
111.996,971.12,-145.18
127.612,1003.816,-137.372
162.504,1010.404,-123.464
202.764,998.936,-115.656
225.456,979.904,-116.876
251.808,991.86,-122.488
279.38,999.912,-108.092
297.924,1055.3,-104.188
327.204,990.884,-77.836
363.072,951.844,-82.716
408.944,951.844,-81.984
464.82,933.3,-58.316
497.76,887.428,-53.68
537.532,870.104,-60.268
595.116,870.836,-48.556
658.068,847.168,-34.404
689.056,815.936,-55.632
721.508,740.54,-50.508
767.38,648.064,-45.384
857.172,628.788,-67.1
885.476,575.596,-68.808
887.916,476.532,-86.132
927.688,403.332,-122.976
993.812,387.716,-167.14
994.788,349.652,-124.44
963.556,269.132,-122.732
933.544,170.068,-101.016
943.304,97.112,-123.708
1018.212,69.54,-126.636
1068.72,26.596,-122.488
1062.62,10.248,-105.896
1053.836,-41.724,-129.564
1031.388,-77.592,-118.584
1077.26,-101.016,-135.664
1070.916,-124.684,-117.608
1053.104,-122.488,-132.248
1107.272,-95.16,-148.108
1133.624,-96.136,-173.484
1216.828,-83.448,-178.12
1295.64,-97.356,-219.356
1415.932,-72.468,-217.404
1502.308,-29.768,-235.704
1729.716,27.572,-371.368
1900.272,37.576,-436.516
1996.652,-51.484,-338.428
2295.552,-178.852,-301.34
2453.176,-397.476,-310.124
2471.476,-662.216,-349.652
2269.444,-902.312,-358.192
1697.752,-980.88,-255.956
1242.448,-1023.824,-167.872
845.704,-1032.12,-114.68
349.896,-880.596,-61.0
-129.808,-683.2,-36.112
-348.432,-527.284,-49.288
-338.916,-304.512,-132.98
-318.908,-60.756,-224.236
-253.272,125.416,-294.264
-89.548,249.612,-424.316
79.788,362.828,-549.488
246.196,398.696,-598.044
374.296,367.22,-590.48
498.248,366.488,-594.872
548.512,353.312,-555.832
589.748,360.388,-501.176
650.016,372.344,-461.16
620.004,302.316,-367.952
587.308,178.608,-277.184
551.44,85.4,-174.948
495.564,47.336,-76.372
530.456,88.084,-12.444
523.136,88.816,75.396
467.992,32.208,169.092
481.412,3.66,272.06
587.796,19.032,319.396
672.708,-66.612,362.584
864.492,-176.168,376.492
1027.728,-212.28,392.352
1082.14,-215.452,444.568
1119.96,-249.368,526.796
1271.24,-343.796,589.26
1456.436,-437.248,602.68
1526.708,-504.104,630.496
1584.536,-521.672,670.512
1745.576,-576.572,593.652
1821.216,-752.984,543.632
1748.992,-718.824,465.552
1635.044,-759.572,332.816
1690.676,-755.668,61.244
1593.808,-663.924,-289.628
1439.844,-386.984,-610.732
1293.688,-135.908,-833.504
1086.532,45.14,-890.6
854.732,187.88,-823.744
656.116,264.74,-726.144
630.74,305.244,-654.164
666.364,252.052,-520.452
809.836,139.08,-400.16
887.916,4.636,-258.64
924.028,-60.512,-108.336
971.364,-81.496,-16.836
988.2,-105.652,76.372
984.052,-120.048,160.796
1039.684,-92.232,166.896
1092.876,-75.64,146.644
1070.672,-56.852,124.684
1053.348,-52.216,100.284
1012.844,-59.292,104.432
997.228,-24.4,87.108
1052.86,18.788,57.828
981.612,10.492,37.82
886.94,74.908,5.612
1005.28,229.116,-29.524
1032.852,268.156,-101.26
1039.196,304.512,-94.428
1111.908,309.392,-87.596
992.348,253.76,-82.96
829.6,327.692,-71.98
813.496,434.32,-95.648
884.012,565.104,-102.236
917.196,497.028,-121.756
957.7,511.424,-99.308
897.188,501.176,-107.848
832.04,540.948,-101.992
786.412,592.92,-103.944
732.976,641.964,-107.604
701.012,663.192,-110.776
668.804,676.612,-109.8
628.544,721.752,-103.456
603.168,791.536,-101.992
556.808,828.38,-113.948
502.884,875.472,-117.364
448.96,913.78,-110.532
477.264,888.892,-127.856
472.14,871.812,-100.284
435.296,895.968,-89.548
383.324,916.708,-104.432
328.424,935.252,-130.784
275.232,978.928,-141.276
266.692,991.616,-127.856
286.7,955.748,-103.212
265.716,970.144,-97.112
220.82,990.64,-125.172
199.836,995.276,-105.896
208.864,1005.036,-89.792
179.828,967.46,-90.28
138.348,977.952,-102.236
112.972,1028.216,-133.224
101.504,1101.416,-147.62
130.54,1051.396,-114.436
121.024,974.536,-96.136
84.912,981.124,-96.136
53.436,973.56,-120.78
39.284,946.964,-130.54
32.94,981.612,-136.152
50.996,968.436,-108.824
76.86,912.56,-66.124
70.272,872.3,-67.344
17.08,909.632,-98.576
-42.456,918.172,-104.188
-14.396,908.168,-78.812
31.72,949.648,-64.172
49.776,1003.816,-78.08
33.672,1022.604,-74.908
-11.956,988.444,-90.524
-23.668,987.224,-93.94
26.84,1023.58,-62.708
25.376,1007.964,-71.98
35.624,1023.092,-53.68
24.156,1023.092,-50.264
6.344,977.708,-81.74
-16.348,952.088,-86.62
-20.008,966.24,-88.816
3.904,983.076,-58.56
25.864,967.216,-32.94
20.008,978.196,-46.604
21.96,989.908,-47.092
3.172,979.66,-39.04
-52.46,974.292,-72.956
-33.428,986.004,-83.692
-14.64,958.92,-46.116
-22.448,968.192,-62.952
-15.616,1005.28,-65.392
6.1,1023.58,-28.06
-5.124,1013.82,-28.304
3.66,1001.132,-28.792
16.836,997.716,-34.404
17.08,1012.112,-39.528
14.396,982.1,-36.356
43.432,941.596,-18.544
80.032,908.656,-11.712
83.204,925.98,-15.86
73.2,957.7,-16.592
60.024,969.412,-10.98
65.148,967.704,-16.104
72.224,976.488,-20.496
92.72,960.628,-10.492
105.896,934.764,-0.732
112.728,916.22,2.44
94.672,945.256,-11.956
82.716,950.38,-6.344
95.404,930.372,8.052
93.696,945.256,7.564
90.768,955.26,-17.08
87.108,977.464,-36.6
91.012,993.568,-33.428
91.5,987.224,-34.404
80.032,1008.208,-33.672
74.42,994.788,-25.132
93.208,988.932,-21.716
125.66,1014.552,-12.688
137.616,1047.492,-16.836
146.888,1046.028,-13.664
143.96,1049.2,-23.912
145.18,1012.6,-28.304
157.136,985.272,-35.38
168.848,962.824,-47.58
163.724,967.46,-48.556
172.752,951.6,-53.192
181.292,960.14,-48.556
198.616,981.856,-50.264
195.444,985.76,-71.248
167.384,990.64,-89.06
135.42,987.468,-112.484
117.12,988.932,-126.636
119.316,1001.376,-125.172
132.248,1017.968,-120.536
142.008,1026.996,-113.216
149.572,1024.312,-122.0
120.048,1022.604,-143.96
89.06,1025.288,-162.504
73.932,1074.82,-181.048
77.348,1116.056,-172.996
127.612,1100.196,-144.204
182.268,1087.752,-122.732
190.808,1064.084,-125.416
165.188,1014.308,-142.496
145.424,974.292,-144.936
150.304,950.868,-142.496
166.408,955.504,-142.984
203.008,993.568,-140.3
248.636,1059.692,-135.908
264.008,1125.328,-138.836
269.864,1104.832,-137.372
301.096,1056.52,-122.244
314.516,1031.632,-127.368
267.668,961.36,-132.248
335.744,925.98,-143.716
401.624,929.152,-154.452
541.924,1008.696,-105.652
681.492,1018.7,-85.4
750.544,947.94,-50.264
686.86,808.128,-73.444
657.58,701.256,-145.668
732.732,548.512,-167.628
783.972,426.268,-140.3
834.48,411.872,-120.78
784.948,293.532,-116.388
700.768,223.504,-65.148
668.804,159.576,57.34
667.584,-10.736,153.232
733.708,-120.78,77.836
1071.648,-91.988,-40.504
1159.488,-107.116,-214.232
1154.608,-106.384,-227.896
1133.38,-271.572,-140.544
1025.044,-419.68,51.484
977.22,-488.244,74.908
1141.676,-447.74,-86.376
1336.388,-465.064,-247.416
1220.0,-576.328,-215.696
1202.432,-651.968,-23.18
1491.572,-724.192,-77.592
1931.504,-829.6,-253.516
2121.336,-1024.068,-294.752
1850.252,-1130.452,-221.064
1766.316,-1098.976,-197.64
1267.58,-896.7,-191.052
1134.6,-408.212,-333.304
972.34,-239.12,-543.632
553.148,-169.58,-530.456
246.684,-96.38,-439.444
216.184,-62.464,-422.12
105.164,-81.008,-299.388
-55.632,7.564,-180.56
-6.832,133.956,-190.808
103.456,249.856,-211.06
233.264,270.108,-203.984
385.032,236.924,-240.828
445.3,240.34,-252.54
504.348,222.04,-244.0
571.204,184.464,-177.388
687.348,97.112,-107.116
838.628,-1.464,-98.82
936.228,-75.64,-68.076
933.544,-144.204,15.128
930.128,-197.152,162.992
895.48,-232.532,302.316
940.132,-293.044,405.528
1011.868,-377.956,481.168
1084.824,-498.004,569.008
1089.704,-605.608,689.056
1161.928,-764.208,818.62
1270.02,-952.576,871.568
1427.644,-1090.68,827.892
1727.032,-1197.796,580.476
1703.608,-1105.076,263.764
1543.544,-821.304,-70.516
1498.648,-522.648,-425.536
1300.764,-254.492,-625.616
1058.472,-76.128,-691.74
911.34,79.544,-721.02
796.904,46.36,-620.248
783.972,-41.48,-502.884
793.976,-115.656,-400.892
742.736,-131.76,-284.748
738.1,-99.796,-191.784
802.272,-124.684,-85.888
929.396,-167.628,-30.5
1023.092,-190.076,-10.98
1005.28,-238.876,70.516
962.58,-254.248,134.444
997.96,-221.308,145.18
1023.58,-204.96,136.396
1057.74,-187.636,120.536
1053.836,-177.144,87.596
1049.444,-127.368,73.688
1019.432,-124.928,73.444
978.684,-158.112,56.608
983.564,-96.624,30.988
1033.34,-70.028,-35.38
1030.656,-60.512,-40.26
1040.66,-22.692,-49.776
1041.392,-16.104,-60.756
1024.068,-17.08,-85.644
1026.752,8.54,-86.132
1011.38,34.404,-66.368
993.568,57.584,-71.248
1033.828,92.232,-75.152
1031.388,109.556,-110.044
1016.26,161.528,-128.344
1020.896,210.328,-121.024
1012.112,249.124,-133.224
964.288,297.68,-138.592
896.456,278.16,-107.36
875.716,299.144,-112.972
893.04,339.892,-131.516
921.1,472.628,-146.4
935.252,503.128,-169.092
902.312,536.556,-150.304
854.0,538.996,-122.244
834.48,525.088,-113.948
848.144,594.384,-95.648
847.9,663.924,-105.896
777.14,697.352,-96.624
725.656,698.816,-98.088
690.52,695.4,-63.44
688.812,710.04,-40.016
680.028,767.136,-33.672
663.68,831.064,-58.316
635.62,871.08,-72.956
616.1,881.816,-65.392
593.164,881.084,-35.38
582.428,867.908,-22.204
573.888,859.612,-31.476
539.24,860.588,-47.092
504.592,853.024,-51.728
463.356,856.196,-61.976
446.032,867.176,-51.24
446.032,870.592,-44.408
436.028,881.572,-48.556
387.472,903.044,-59.78
348.676,895.236,-69.052
353.8,891.82,-48.068
360.632,910.852,-46.36
344.772,935.252,-49.532
319.396,962.092,-45.628
285.48,958.92,-54.9
254.736,979.904,-60.268
239.12,975.512,-74.664
260.592,969.9,-64.904
280.356,995.032,-58.072
264.74,1005.768,-52.948
224.724,987.956,-55.388
184.708,970.876,-57.584
177.876,956.236,-62.952
168.36,965.02,-69.052
163.48,967.46,-78.08
192.516,974.536,-68.808
207.644,1000.4,-68.32
204.96,1012.844,-67.832
201.056,1000.156,-64.904
202.276,1003.816,-53.192
183.732,997.228,-62.22
162.992,986.492,-79.056
146.888,1025.776,-69.296
161.284,992.836,-71.248
178.852,978.44,-67.588
176.9,978.928,-73.688
168.116,960.628,-79.544
158.356,952.088,-67.588
143.96,971.608,-68.076
134.932,978.196,-64.416
142.496,966.24,-62.464
154.452,972.584,-59.78
156.404,969.412,-55.876
148.108,986.248,-55.876
134.2,1005.036,-55.144
135.42,1006.256,-63.196
138.104,996.984,-64.416
128.344,992.104,-54.412
126.392,983.32,-59.536
129.564,996.74,-57.828
122.244,997.228,-59.536
123.952,988.688,-63.44
119.316,991.372,-59.048
108.092,975.268,-59.292
101.748,963.312,-60.756
110.288,955.992,-58.56
122.732,956.968,-49.044
126.88,979.904,-42.456
115.412,981.368,-44.896
104.432,968.68,-42.7
101.26,943.792,-44.408
109.068,948.428,-56.364
121.268,978.684,-51.972
129.564,997.96,-44.164
122.0,994.788,-39.772
103.212,967.704,-42.212
91.256,938.18,-53.192
87.84,915.0,-52.948
90.524,907.924,-54.412
90.768,897.92,-58.56
85.4,885.232,-61.0
86.62,893.04,-61.244
92.72,903.288,-61.488
124.928,904.752,-67.1
137.616,917.44,-57.584
132.248,947.696,-56.364
119.56,950.624,-58.56
119.316,929.884,-68.564
123.708,939.888,-75.64
122.488,961.36,-69.296
111.508,983.076,-59.536
89.548,987.224,-55.876
108.092,959.652,-66.856
108.092,967.704,-70.516
85.4,996.008,-72.224
70.028,1015.772,-69.784
71.248,1022.36,-61.976
77.104,1024.068,-58.56
69.54,1004.792,-61.488
65.88,992.104,-73.2
59.292,987.712,-70.516
64.904,987.956,-65.148
63.684,981.368,-63.684
60.024,992.348,-63.684
52.216,998.448,-64.904
47.58,975.024,-67.832
32.696,941.596,-96.868
16.836,957.212,-115.9
6.344,1000.888,-119.56
20.74,1034.072,-113.948
36.844,1030.168,-99.308
58.804,1007.72,-92.232
56.608,992.836,-91.256
37.82,966.728,-97.844
8.052,965.996,-102.968
14.396,966.484,-109.312
30.5,965.752,-112.972
48.068,963.068,-120.78
42.7,1007.964,-120.292
21.716,1036.268,-114.68
23.912,1030.412,-109.068
42.944,998.936,-115.656
42.456,972.828,-122.0
24.644,986.248,-138.836
6.344,988.2,-155.184
21.716,964.288,-150.548
40.992,952.576,-146.4
31.72,947.696,-154.94
5.124,924.272,-172.02
-3.416,940.864,-178.364
13.42,1022.604,-154.208
47.824,1069.94,-127.124
68.808,1060.18,-118.828
63.44,1073.112,-120.536
33.916,1100.928,-122.0
13.664,1092.388,-127.124
16.592,1101.172,-126.392
28.548,1100.928,-125.66
37.82,1103.124,-125.172
38.308,1087.752,-127.856
19.032,1087.996,-129.808
3.172,1052.372,-139.324
20.74,1020.896,-145.18
50.752,1011.136,-146.888
78.324,996.984,-144.448
102.48,1005.768,-157.136
110.288,1072.136,-128.344
128.1,1045.784,-144.692
169.092,1028.704,-125.66
209.596,1023.58,-130.296
237.168,1021.384,-139.812
235.46,1026.508,-137.128
242.048,1028.46,-134.444
263.52,1001.62,-140.3
311.344,960.628,-142.496
391.132,934.032,-130.052
425.78,936.472,-123.708
468.724,923.54,-114.436
538.264,922.32,-111.996
576.816,860.588,-88.572
648.552,738.588,-71.492
732.0,686.86,-32.94
805.444,650.504,-46.116
829.6,592.432,-88.328
792.756,493.856,-114.436
778.116,419.192,-74.664
760.06,297.68,-58.316
795.684,139.324,-69.296
906.216,142.496,-31.232
930.86,118.828,8.54
993.812,132.492,7.076
1017.48,69.54,-40.26
995.764,-84.424,-33.672
1012.356,-147.132,11.468
1116.544,-216.672,3.66
1142.896,-220.576,-91.988
975.512,-240.096,-119.072
946.72,-252.784,-43.676
1058.472,-315.98,-35.136
1354.932,-295.484,-164.7
1463.268,-188.368,-267.424
1342.488,-259.616,-142.984
1386.408,-311.588,-36.6
1704.828,-355.752,-110.044
2126.46,-344.04,-290.604
2241.14,-482.876,-261.08
2175.016,-742.736,-99.552
2216.74,-986.98,51.728
2086.2,-1250.5,60.512
1990.552,-1199.992,-2.684
1563.796,-1197.064,59.292
1168.76,-1271.484,46.848
919.88,-1182.424,-129.32
609.512,-955.016,-282.796
399.672,-747.128,-391.62
127.612,-440.176,-495.564
-93.696,-160.308,-504.592
-125.904,-52.948,-468.48
-127.124,-2.928,-420.656
-92.72,-115.656,-377.712
-104.432,-28.792,-378.932
128.344,24.156,-411.628
260.104,70.76,-401.38
380.884,145.18,-393.572
415.532,224.968,-349.164
442.128,233.508,-285.236
430.66,165.432,-181.048
469.944,153.964,-68.564
543.632,150.792,2.44
559.248,78.324,93.94
555.588,-12.2,212.768
567.056,-5.612,302.316
611.464,-16.348,373.32
691.496,-81.984,468.236
733.464,-159.576,561.932
764.94,-185.44,626.592
878.644,-230.092,617.808
1012.356,-322.812,642.94
1122.888,-362.34,672.952
1200.236,-360.876,682.224
1235.86,-455.304,726.876
1344.196,-552.416,710.04
1487.424,-655.628,638.304
1499.136,-762.5,628.788
1546.472,-796.416,541.924
1523.78,-739.32,346.968
1481.812,-637.816,118.828
1487.912,-369.66,-256.2
1359.324,-49.532,-572.424
1093.852,84.668,-586.82
967.704,119.072,-529.724
867.176,90.768,-496.052
917.684,36.112,-453.352
919.392,-27.816,-359.9
872.3,-83.204,-236.436
921.344,-142.008,-136.64
1008.452,-167.14,-81.252
1004.304,-147.376,-3.904
1017.968,-145.668,71.98
1001.62,-170.312,152.5
953.064,-194.224,200.568
1029.436,-208.864,220.576
1060.668,-213.744,207.888
1050.176,-189.832,188.856
1041.392,-165.92,167.14
1027.728,-156.892,158.6
947.452,-157.38,154.94
951.356,-116.388,143.472
1030.9,-76.86,110.532
1024.312,-30.5,88.572
1012.6,0.0,58.804
1006.012,53.192,42.7
1017.236,77.104,39.528
1033.828,47.336,16.836
943.304,59.048,-18.3
931.348,168.604,-4.148
974.536,250.1,-36.356
1023.336,291.58,-73.2
1031.144,295.728,-87.352
925.98,281.576,-75.64
933.056,339.648,-77.592
958.188,308.416,-112.24
920.124,346.724,-121.024
904.752,462.868,-118.584
922.32,503.86,-122.732
926.712,528.748,-131.272
876.692,527.528,-122.488
873.764,596.58,-130.052
878.644,662.216,-101.26
839.36,582.428,-121.268
778.116,601.948,-141.276
755.18,723.46,-102.724
742.004,690.032,-117.12
728.584,699.304,-83.936
716.872,715.408,-89.548
713.7,736.392,-123.952
678.564,798.612,-114.68
622.444,765.184,-122.0
599.508,768.844,-84.668
584.136,763.232,-61.244
553.392,776.652,-87.352
522.648,835.212,-102.48
483.12,876.692,-105.164
492.392,866.444,-72.224
496.296,829.112,-33.672
451.644,894.016,-63.196
439.444,934.276,-81.496
382.104,925.492,-81.496
364.536,940.864,-84.668
350.384,976.0,-93.696
317.2,1000.644,-82.716
293.288,937.448,-61.732
218.136,843.752,-55.876
193.248,851.804,-42.456
210.084,941.108,-46.848
230.336,996.008,-54.412
227.652,987.468,-20.008
174.216,955.992,9.76
128.832,936.96,-5.124
120.048,954.528,-27.084
149.572,1017.968,-27.572
128.588,1049.444,-23.424
118.828,1012.356,-20.74
131.516,1024.556,-10.98
55.632,965.508,-44.164
23.668,906.46,-55.388
70.76,966.972,-10.004
91.256,991.86,0.0
115.9,1007.964,-10.98
75.152,963.556,-38.552
44.652,922.564,-16.836
11.468,907.68,-24.888
59.292,936.472,-10.98
73.932,961.848,-24.888
23.424,971.364,-74.664
-30.988,1033.096,-78.324
33.672,996.496,1.952
12.444,998.204,-32.94
21.96,1097.024,-74.664
64.416,1122.156,-72.224
34.648,1160.708,-45.872
-38.796,1160.22,-41.48
-18.3,1086.288,-58.804
45.628,992.104,-63.684
62.952,953.308,-86.864
54.412,986.492,-57.096
61.488,991.128,-18.544
67.832,1043.1,2.196
39.772,1041.636,9.028
52.216,955.26,-15.372
80.276,909.632,1.708
85.156,938.912,-8.784
49.288,988.444,-43.676
48.068,1014.064,-25.132
55.632,1058.716,5.124
42.456,1043.588,2.684
70.272,1004.304,20.252
67.1,946.232,10.492
59.536,906.704,-6.588
56.364,934.032,-16.104
60.512,957.944,-7.076
61.0,1020.896,-14.152
61.732,1034.072,-24.4
73.444,986.004,-11.712
83.936,973.56,-15.372
52.948,969.412,-37.576
29.28,970.388,-49.044
21.472,1010.892,-53.924
37.576,1010.16,-45.14
67.344,1001.62,-28.792
80.032,998.448,-29.524
57.096,978.44,-38.796
11.224,983.32,-62.708
2.684,1006.256,-67.588
20.74,1014.796,-63.196
39.04,1019.188,-67.1
49.776,1032.364,-72.956
46.604,1036.512,-75.884
24.4,1052.616,-73.688
-22.448,1038.952,-85.644
-12.932,1016.016,-79.544
28.548,1026.02,-71.736
52.46,1030.656,-63.44
39.528,1008.696,-60.512
4.148,998.448,-62.952
-4.148,989.664,-61.732
19.276,966.728,-55.144
53.436,955.016,-43.188
62.708,954.772,-38.064
51.972,970.876,-46.604
43.676,972.096,-51.972
32.208,971.364,-50.264
20.496,963.556,-47.336
14.64,953.796,-52.704
20.252,949.892,-51.24
9.272,982.1,-52.216
-3.416,997.716,-58.316
6.832,997.228,-59.292
11.956,1015.04,-66.124
8.784,999.18,-71.98
-1.22,979.904,-82.228
-9.272,990.152,-91.5
-1.22,993.812,-94.672
20.008,991.128,-91.744
41.724,1007.72,-86.864
27.572,982.1,-87.596
4.392,952.576,-94.184
-3.172,951.844,-89.304
7.808,959.652,-74.42
25.864,959.408,-71.004
43.432,960.628,-72.712
51.24,981.368,-68.564
50.752,985.516,-70.028
48.556,972.828,-74.664
38.308,986.736,-84.18
41.48,969.9,-95.892
57.096,1002.596,-100.528
69.54,982.344,-101.016
55.876,980.88,-109.068
48.556,955.748,-106.628
42.944,944.28,-108.58
63.684,963.8,-100.04
48.556,971.364,-107.116
46.604,952.088,-106.384
45.384,983.32,-101.016
53.924,992.104,-98.82
54.412,987.712,-92.476
40.26,1011.868,-90.524
32.696,1004.792,-85.156
28.792,1007.964,-78.324
27.084,1000.888,-75.152
26.352,1002.84,-77.836
37.82,1026.752,-70.028
32.696,1005.524,-70.028
-1.464,986.736,-78.324
-6.588,998.692,-79.056
13.42,1009.672,-69.784
31.72,1023.58,-59.78
31.72,1030.9,-58.804
31.232,1019.676,-57.584
24.156,1018.456,-53.192
30.5,1038.22,-48.068
45.384,1034.804,-45.628
60.756,1039.196,-44.408
56.364,1047.492,-49.776
43.432,1032.852,-55.632
35.38,1010.16,-65.148
39.528,986.004,-62.952
30.012,983.808,-66.368
23.668,982.1,-71.492
21.716,979.172,-75.152
30.256,956.724,-69.296
35.868,948.428,-61.976
31.476,964.044,-59.048
39.528,938.424,-51.728
20.496,907.192,-57.828
-17.08,910.364,-73.444
-1.464,915.244,-73.444
25.376,938.912,-63.928
44.408,977.464,-50.752
34.892,990.396,-48.8
22.448,972.584,-51.24
7.564,945.256,-58.56
-10.248,945.012,-62.464
-29.768,987.224,-70.272
-10.98,992.836,-62.708
5.856,996.496,-57.828
8.296,992.836,-53.924
-7.808,985.028,-57.34
-15.616,959.896,-59.048
-16.836,973.072,-61.976
-12.932,1017.968,-68.32
8.54,1036.268,-61.732
20.008,1051.396,-54.168
24.4,1052.128,-51.728
17.812,1047.736,-60.024
11.712,1047.492,-66.612
5.856,1061.888,-65.636
20.252,1069.94,-64.416
22.936,1078.48,-62.952
31.964,1095.072,-69.54
30.988,1095.804,-68.076
51.24,1055.788,-60.024
60.756,1044.076,-54.412
63.684,1011.136,-60.512
61.0,956.968,-65.88
85.4,942.084,-83.692
131.516,972.828,-82.472
177.388,997.716,-83.448
283.04,1012.356,-44.896
359.656,942.572,17.568
414.8,836.432,26.84
466.772,799.344,30.5
506.3,759.084,57.584
481.168,663.68,47.092
408.212,630.496,-69.54
523.38,699.792,-122.488
725.168,671.0,-52.704
752.984,537.288,-29.524
669.78,383.08,-0.488
761.524,293.776,-54.656
910.608,266.936,-40.26
958.676,193.004,-24.4
974.536,102.968,4.88
981.124,44.408,56.12
932.568,-102.236,72.468
1070.672,-188.612,125.172
1207.556,-198.372,48.8
1125.084,-251.808,-67.344
1112.64,-287.92,-56.12
1208.288,-350.628,-61.0
1222.196,-398.696,-31.476
1348.832,-418.216,-49.776
1369.816,-563.884,-11.712
1358.592,-677.344,127.612
1287.344,-799.1,247.66
1330.532,-836.676,225.944
1496.452,-883.524,118.584
1637.24,-960.14,2.684
1666.032,-971.852,17.08
1703.852,-1066.768,75.396
1748.016,-1202.92,106.872
1827.804,-1275.876,88.572
1857.572,-1294.42,-82.228
1751.676,-1324.92,-132.248
1337.364,-1383.236,4.392
845.216,-1281.732,28.304
576.816,-1155.584,-13.176
453.352,-942.084,-145.668
302.316,-725.168,-280.356
104.676,-528.504,-332.572
9.516,-377.712,-365.024
-26.84,-271.328,-381.86
-74.42,-128.832,-495.808
36.6,62.952,-581.452
166.896,147.376,-605.364
181.048,213.744,-542.168
256.688,196.908,-465.552
360.632,217.648,-409.92
390.4,215.208,-336.964
408.7,203.74,-225.7
493.856,162.748,-161.772
523.136,146.156,-73.688
548.756,149.328,-7.808
599.264,96.624,59.78
589.016,30.5,180.072
551.44,10.248,320.372
553.392,-10.492,406.504
527.04,-50.996,487.756
541.68,-78.812,602.924
694.424,-99.552,606.34
702.964,-194.468,678.076
707.6,-277.428,776.164
813.984,-333.548,772.992
877.668,-414.556,793.244
1003.084,-529.968,815.204
1148.264,-618.296,741.028
1136.796,-647.088,691.496
1186.084,-683.932,666.852
1433.5,-769.332,541.68
1532.076,-778.604,322.324
1614.548,-743.224,153.72
1450.824,-673.44,116.876
1351.272,-549.732,6.344
1370.548,-433.344,-129.564
1206.336,-330.376,-183.488
1048.956,-194.956,-202.276
1123.62,-181.536,-201.3
1081.408,-159.82,-208.62
994.3,-61.488,-201.788
968.192,-48.556,-161.284
886.208,-42.7,-110.776
897.92,-39.284,-68.808
907.68,-46.36,-13.908
939.4,-48.8,6.832
1011.624,-60.268,25.376
1020.164,-83.692,74.664
939.156,-110.532,169.58
922.32,-153.232,219.112
972.584,-181.048,200.08
1007.964,-194.956,191.784
970.388,-234.728,226.92
948.428,-231.556,234.484
996.496,-213.256,213.012
1062.62,-187.88,187.392
1056.764,-189.1,207.156
951.844,-226.432,195.932
790.804,-196.664,208.132
833.748,-71.492,175.924
999.18,8.052,96.868
1111.908,17.08,57.096
1137.528,-12.2,28.06
982.832,8.296,12.444
868.152,89.06,51.728
927.2,134.2,6.832
926.468,104.92,-20.74
960.872,167.628,9.516
1000.644,192.516,-33.672
990.884,253.76,-52.704
1023.824,333.548,-71.492
1016.504,370.88,-116.144
1008.452,398.696,-128.344
944.524,387.472,-66.612
848.632,408.212,-77.592
907.192,506.788,-84.18
936.96,569.74,-115.9
856.928,605.852,-75.884
743.956,580.72,-30.012
679.052,604.388,-64.172
699.792,682.468,-75.884
739.564,769.088,-101.26
684.176,856.196,-47.336
666.364,798.124,-49.044
575.596,778.848,-49.044
494.1,847.168,-60.024
494.588,853.756,-32.208
529.724,877.912,-2.44
552.66,919.392,7.808
528.26,912.804,27.816
438.224,900.116,67.832
403.82,861.808,71.98
416.996,896.7,52.46
437.004,967.46,33.184
427.976,955.748,55.388
389.912,937.692,80.032
344.04,917.928,91.256
322.812,915.0,72.956
335.744,956.48,59.78
335.744,997.472,59.292
325.984,966.728,64.416
340.624,976.732,82.472
350.384,1003.328,78.812
334.768,1011.624,50.996
283.04,996.74,34.404
220.576,1034.072,7.808
175.192,1051.152,4.392
170.556,1024.068,21.716
192.516,1047.98,28.304
212.036,1058.96,30.256
210.572,1051.884,26.352
200.812,1029.68,36.6
170.8,1030.9,24.888
139.324,1026.02,11.712
136.884,1008.208,11.468
168.116,1015.772,15.86
194.224,999.668,28.304
206.912,969.412,39.04
212.036,979.66,42.456
213.744,1005.036,41.48
204.96,978.928,43.188
220.332,989.42,42.456
225.944,1013.332,40.016
216.184,993.08,42.456
209.84,973.56,40.748
210.572,996.496,38.552
204.228,1004.792,31.232
186.416,1012.112,17.568
189.832,1008.94,35.38
190.32,978.684,38.552
196.42,974.048,38.308
199.348,976.488,43.92
182.512,984.784,31.476
180.56,1007.232,28.304
184.708,989.664,40.748
178.852,955.504,41.724
168.36,951.844,37.332
155.184,964.532,25.62
140.3,967.704,19.032
132.248,951.112,15.86
151.28,987.712,19.032
153.476,1007.964,18.3
150.792,996.74,24.888
152.5,986.736,27.816
156.892,992.104,25.62
162.26,990.64,23.18
152.988,986.492,20.74
162.748,1010.404,21.228
162.992,1005.524,23.424
154.94,984.052,33.184
155.916,993.08,31.232
149.084,979.172,21.96
144.936,976.732,27.572
142.252,985.028,22.692
132.492,983.076,13.908
130.784,992.592,19.032
141.032,1001.132,23.18
138.348,989.664,23.424
142.252,981.612,28.304
140.788,973.072,22.448
132.248,982.344,16.836
120.292,973.56,16.592
131.516,972.828,25.62
138.348,977.952,23.912
133.468,976.244,22.448
140.788,1008.452,14.396
135.908,1016.504,5.856
124.684,1010.404,13.176
121.268,1001.132,12.2
128.588,1006.256,12.444
123.464,1003.816,9.028
108.824,991.616,-2.684
95.404,989.908,-3.66
96.136,989.176,1.22
98.82,977.952,-0.244
110.044,983.564,8.54
114.436,982.1,10.248
112.972,975.512,12.932
128.344,967.216,21.228
140.056,952.088,29.768
129.808,935.008,23.424
115.9,929.396,14.152
115.656,942.572,12.688
126.636,944.524,18.056
134.688,939.888,22.692
138.836,956.724,20.74
133.468,951.6,18.3
118.096,942.328,9.272
105.896,940.62,-0.244
111.508,964.044,-2.196
109.068,963.8,-1.22
115.9,981.856,2.196
114.924,987.468,0.732
110.776,972.584,0.244
113.704,970.876,3.66
106.628,969.412,1.22
112.972,980.148,1.708
119.56,983.32,2.44
121.756,977.952,7.564
117.12,949.892,5.124
101.504,945.5,1.22
84.18,948.184,-4.392
81.984,943.06,-2.684
94.428,951.6,3.416
93.452,971.12,-0.488
76.616,978.44,-14.884
76.616,983.808,-8.784
89.792,986.98,2.684
111.508,979.172,12.444
113.216,973.316,15.128
101.748,981.124,7.564
88.816,977.708,4.392
82.472,970.144,1.22
82.716,963.068,3.416
82.472,958.676,-3.904
85.644,967.948,-6.344
76.372,979.66,-15.128
65.392,975.024,-21.716
66.124,977.952,-19.032
48.068,977.708,-29.036
32.94,996.74,-45.628
35.38,1001.864,-47.092
40.748,986.004,-42.7
50.02,981.612,-32.94
34.16,997.228,-28.548
19.032,1018.944,-40.992
20.984,988.444,-42.944
19.276,949.648,-38.308
29.524,936.96,-28.06
40.748,930.128,-33.184
42.944,958.676,-44.652
59.292,982.832,-38.308
47.336,974.78,-42.944
19.276,950.38,-48.312
8.784,935.984,-54.9
18.544,953.064,-60.024
31.72,989.176,-54.412
30.988,1028.948,-56.608
19.52,1029.924,-61.976
2.684,997.228,-68.808
-3.172,971.12,-77.836
0.0,961.848,-85.156
2.928,972.096,-93.696
5.612,982.1,-98.82
-5.124,986.492,-113.948
-11.224,983.564,-126.392
3.172,963.068,-119.072
17.08,958.92,-109.068
24.644,976.976,-112.24
30.256,978.684,-105.896
24.156,983.564,-115.412
33.184,1020.164,-116.632
23.18,1020.408,-123.708
22.936,1031.632,-124.684
41.968,1049.688,-117.608
26.596,1067.988,-130.052
11.468,1083.848,-136.152
27.328,1077.748,-124.928
28.792,1040.172,-132.736
11.956,1023.824,-155.428
16.104,1043.1,-158.112
32.452,1035.536,-155.916
42.212,1011.624,-160.064
63.44,969.9,-167.14
82.228,968.924,-161.772
99.308,1007.232,-156.648
116.144,1041.392,-144.692
133.224,1058.96,-137.86
161.772,1091.412,-134.688
209.108,1178.52,-127.612
223.992,1245.376,-150.304
237.412,1194.624,-148.596
245.952,1120.204,-137.128
237.9,1095.072,-154.696
248.636,1062.376,-173.484
297.436,1049.444,-199.348
364.78,1124.352,-178.364
418.216,1124.352,-183.0
479.704,1036.268,-181.78
556.076,952.82,-176.656
595.116,830.088,-145.668
714.676,790.804,-151.28
824.476,790.072,-137.128
847.656,637.084,-208.62
835.456,559.492,-215.208
882.304,492.88,-253.76
939.4,382.104,-237.412
970.876,303.78,-242.292
958.432,219.356,-217.892
993.08,153.232,-213.744
921.344,83.692,-250.832
885.964,105.164,-217.892
866.688,48.312,-150.792
1002.84,-137.86,-58.072
1112.64,-278.404,-206.668
1093.852,-225.944,-320.128
1040.416,-245.22,-310.856
1011.868,-302.072,-164.944
1328.824,-414.556,-113.216
1571.848,-538.508,-353.068
1578.924,-487.024,-364.78
1622.844,-415.776,-319.884
1879.044,-452.864,-393.572
2081.32,-656.848,-427.732
2022.272,-838.14,-379.664
1948.096,-898.408,-354.044
1585.512,-935.74,-280.844
1192.184,-1025.288,-77.592
984.784,-977.708,-137.372
692.228,-765.184,-257.42
437.736,-550.708,-321.592
148.84,-309.88,-354.044
-95.648,-53.436,-309.148
-54.656,-10.004,-314.516
111.264,-48.312,-365.268
125.172,-22.204,-393.084
63.684,60.756,-381.86
89.548,118.096,-400.16
246.928,186.416,-480.924
418.46,260.836,-519.72
524.112,295.24,-474.336
526.796,337.452,-399.916
445.788,329.644,-284.992
421.632,299.388,-146.888
504.104,247.66,-64.416
526.064,186.172,47.58
484.584,141.276,174.948
423.34,107.36,293.776
451.156,29.768,414.8
599.752,-97.356,506.3
693.936,-230.824,576.084
846.924,-262.544,561.932
923.54,-319.64,642.94
1003.816,-473.36,736.636
1225.612,-666.12,723.704
1342.0,-726.876,743.712
1350.784,-809.104,780.312
1404.22,-936.96,721.508
1502.796,-944.768,592.676
1537.932,-1057.008,474.092
1535.004,-1062.376,246.684
1520.12,-904.264,-44.408
1387.872,-749.812,-226.432
1338.584,-567.788,-423.34
1238.056,-327.448,-612.44
1067.988,-107.116,-655.14
835.7,42.456,-571.936
700.036,123.22,-423.34
648.064,62.464,-247.904
800.076,-114.924,-194.468
852.292,-221.796,-178.12
906.216,-224.236,-161.772
915.976,-276.696,-76.372
919.148,-298.412,18.3
971.608,-308.172,84.424
950.624,-281.576,142.008
924.516,-310.124,191.296
915.0,-317.444,211.792
967.216,-335.744,182.268
1001.62,-343.796,142.74
972.34,-350.628,156.404
932.812,-342.82,165.188
939.888,-307.44,162.26
975.024,-279.136,145.668
971.364,-294.752,138.836
759.572,-266.204,148.352
751.276,-176.412,148.352
959.408,-104.188,85.4
1066.036,-38.796,41.236
1098.732,-18.544,12.2
874.008,-47.58,24.4
758.84,113.948,48.8
930.86,328.668,-47.092
1010.648,419.192,-99.064
1090.192,470.92,-70.76
1116.3,286.944,-21.228
986.004,122.732,80.032
873.032,218.624,100.284
882.06,427.488,1.708
790.56,520.452,51.972
751.276,555.344,49.288
833.26,560.712,7.32
862.54,540.704,44.164
864.492,573.888,69.052
795.928,688.812,39.528
683.2,716.384,54.9
632.204,691.74,80.52
609.756,728.584,95.892
601.216,850.34,18.788
627.568,979.66,34.16
566.812,963.312,63.684
420.168,913.78,62.22
303.78,891.576,36.356
319.396,957.944,4.88
382.104,1019.92,18.3
429.684,1005.036,56.608
384.788,903.288,79.3
331.596,874.74,57.096
314.76,959.164,5.856
299.144,962.336,-11.956
296.46,899.384,-3.66
321.104,903.288,16.836
349.408,936.472,22.692
326.472,926.224,18.056
234.24,947.208,-15.372
209.108,1028.46,-34.404
198.616,1020.896,-23.424
219.112,982.344,-22.692
259.86,1048.956,-45.14
285.968,1056.032,-36.356
299.144,1057.74,-10.736
247.66,1072.38,-28.548
159.088,1023.092,-68.564
124.684,968.192,-76.128
175.68,976.732,-69.296
209.108,1006.744,-73.688
200.812,995.764,-50.508
158.6,982.588,-57.34
134.2,988.932,-51.972
130.052,1013.576,-67.344
130.052,1012.356,-63.44
126.636,989.664,-70.76
143.716,1002.596,-70.516
150.792,1027.24,-81.252
147.376,1025.532,-70.76
127.612,1025.044,-59.292
113.948,1006.012,-56.608
152.256,977.952,-40.992
192.516,962.336,-39.528
180.56,920.124,-34.648
155.672,930.616,-48.312
147.62,926.468,-44.652
132.004,975.512,-58.316
132.492,988.688,-65.88
170.068,1002.596,-60.024
195.444,1010.648,-55.632
211.792,1010.16,-50.264
193.492,1012.356,-63.44
166.408,1005.28,-68.32
139.324,981.368,-76.86
155.672,961.36,-68.076
192.516,971.364,-53.924
204.228,976.0,-56.12
202.032,997.716,-57.34
186.66,1007.72,-57.096
168.848,970.876,-54.412
197.396,959.896,-44.408
205.936,947.208,-51.24
192.272,963.556,-76.128
167.628,968.68,-82.96
137.372,967.948,-83.936
150.792,977.708,-70.272
182.024,947.696,-52.216
220.576,928.664,-51.24
221.308,949.648,-68.564
201.056,956.48,-70.028
208.132,938.424,-51.972
230.092,950.868,-39.284
236.192,939.644,-50.508
247.904,939.644,-55.876
264.252,964.288,-62.708
246.44,982.588,-71.98
227.164,994.056,-73.932
230.092,1020.408,-78.568
242.78,1014.552,-78.08
248.636,1009.428,-83.448
256.2,1005.524,-85.156
246.44,1003.084,-85.644
213.256,975.268,-97.6
217.16,970.876,-107.116
245.952,982.588,-92.232
247.172,977.22,-87.84
254.736,960.872,-80.764
252.296,978.196,-84.18
247.416,974.78,-89.304
254.248,976.488,-83.448
258.64,973.316,-88.572
277.184,971.12,-78.812
279.136,977.708,-77.592
275.72,957.212,-74.908
278.648,947.452,-69.784
287.676,945.256,-71.492
293.776,937.692,-71.98
280.844,944.768,-77.348
263.52,931.104,-71.248
262.544,908.656,-66.856
269.62,915.488,-76.372
266.204,927.688,-98.088
255.956,953.308,-101.992
237.656,956.236,-110.532
237.168,965.264,-105.652
249.368,987.468,-95.16
272.792,994.544,-85.644
274.012,992.592,-83.448
276.94,993.324,-91.988
272.06,970.144,-93.208
260.592,960.384,-102.236
254.492,969.9,-105.652
254.004,977.22,-106.14
265.472,984.54,-97.112
273.524,987.956,-91.5
259.86,992.836,-100.528
258.64,981.124,-106.14
263.764,983.564,-107.36
271.572,1006.256,-102.48
277.916,999.668,-91.744
286.7,999.424,-80.52
280.112,1002.108,-86.132
274.012,997.472,-92.232
278.404,989.176,-87.84
287.676,984.54,-80.52
276.208,978.928,-81.008
277.672,982.1,-84.424
277.184,965.508,-83.204
282.064,950.868,-78.568
283.284,959.164,-82.228
287.432,966.484,-86.62
288.652,968.436,-85.4
288.652,955.26,-78.08
277.428,940.62,-83.448
270.596,929.64,-88.816
279.868,931.592,-90.768
290.604,934.032,-85.644
294.996,950.136,-86.132
291.336,951.112,-83.204
286.456,945.988,-84.668
294.752,950.868,-85.888
283.528,957.212,-90.28
298.9,946.232,-81.74
305.732,942.572,-79.056
311.832,955.26,-79.056
304.024,955.504,-82.96
295.484,954.284,-85.156
298.412,953.552,-87.84
304.024,942.572,-84.668
319.64,897.676,-78.324
386.74,890.6,-76.86
434.076,960.628,-83.936
438.224,990.884,-81.496
468.968,986.736,-85.644
514.352,971.852,-79.056
529.48,940.132,-94.672
560.712,852.048,-69.052
610.244,758.108,-63.44
711.504,733.22,-84.668
810.812,741.028,-49.288
816.668,637.084,-6.832
865.712,594.628,-28.06
883.28,452.376,-83.692
911.096,232.044,-88.572
914.756,74.664,53.924
933.788,-80.032,-4.392
1037.976,-36.6,-12.444
1077.992,-133.224,-46.604
1053.348,-345.748,-8.784
990.396,-460.184,-7.076
884.012,-488.0,132.736
836.188,-533.14,130.54
896.944,-488.732,78.568
945.988,-508.74,38.552
985.76,-541.192,24.156
964.288,-488.0,16.104
896.944,-466.284,16.104
963.068,-436.76,-13.176
1027.484,-441.396,-27.572
1004.548,-505.812,-23.18
974.292,-534.604,-8.54
955.748,-482.144,12.2
992.592,-464.576,3.416
1067.744,-460.672,-9.028
1216.584,-471.408,-43.188
1286.368,-489.952,-33.916
1308.328,-460.184,-15.372
1430.328,-486.048,-34.16
1643.584,-500.444,-33.672
1996.652,-530.944,-53.924
2230.648,-775.676,-44.164
2168.672,-1049.444,38.064
2058.384,-1176.324,90.28
1956.636,-1247.328,38.064
1639.192,-1327.604,-10.492
1291.98,-1332.24,-99.064
832.284,-1139.724,-117.364
346.236,-999.912,-101.016
231.312,-688.324,-209.352
102.48,-425.536,-317.2
-85.644,-185.196,-342.088
-147.132,-11.224,-391.376
-132.248,120.048,-400.404
-74.664,190.076,-414.8
-29.28,246.44,-430.172
101.016,310.856,-447.74
264.008,366.0,-480.192
361.852,343.308,-434.076
458.476,345.504,-379.42
487.268,322.568,-285.48
465.552,272.792,-167.384
501.42,202.764,-66.368
539.484,104.92,65.88
544.852,8.54,234.484
580.964,-51.24,339.16
625.372,-100.772,424.56
705.648,-85.888,507.032
711.26,-170.8,597.8
727.12,-307.684,719.068
839.36,-395.036,809.348
911.828,-434.564,892.552
1022.116,-491.904,939.644
1329.068,-542.9,883.036
1503.284,-601.704,858.148
1600.884,-703.696,810.08
1659.688,-904.752,705.404
1811.7,-1048.224,494.588
1856.596,-1063.352,267.668
1644.56,-1022.604,79.544
1534.516,-676.124,-224.236
1298.568,-291.58,-472.384
1103.612,-39.528,-591.7
971.852,168.116,-634.644
881.572,218.136,-590.968
775.92,226.92,-461.16
668.316,175.436,-319.64
718.336,102.968,-207.4
817.4,-12.444,-126.636
905.484,-146.4,-55.876
1000.888,-182.512,-13.176
1056.032,-147.62,12.932
1091.9,-150.06,67.832
1054.568,-184.22,153.476
1012.112,-208.376,204.228
1033.828,-217.648,191.784
1048.956,-210.572,165.188
1029.924,-190.076,154.452
1016.504,-176.9,145.18
1040.172,-179.828,144.204
1027.484,-169.58,153.476
977.708,-139.08,154.696
965.264,-149.572,168.36
934.52,-179.096,190.32
955.016,-157.136,174.704
977.464,-146.888,149.084
995.52,-126.392,145.18
1033.34,-112.24,134.688
1042.368,-126.88,142.496
1042.368,-132.736,161.284
971.852,-117.12,134.444
944.524,-49.288,150.548
949.16,7.564,125.172
1017.724,41.48,124.928
1060.424,28.548,132.248
1001.864,29.768,115.9
980.636,103.944,121.512
1007.964,122.0,83.204
994.056,177.144,78.812
967.948,219.356,40.26
929.64,232.776,72.224
914.268,239.364,114.924
1004.06,359.656,65.88
1022.36,382.592,84.424
904.508,409.92,76.372
804.712,466.772,96.624
783.484,449.692,100.772
745.42,535.58,58.56
796.416,641.232,37.332
865.468,700.036,-3.66
849.608,794.708,-19.276
676.856,733.22,36.112
664.9,729.316,29.28
739.564,791.292,-36.6
711.992,944.524,23.668
549.732,839.36,59.536
500.444,890.844,32.452
504.836,852.78,-9.516
520.696,847.656,2.196
524.112,1111.908,-10.736
434.076,1007.476,23.424
439.688,877.18,85.644
441.152,911.584,52.216
405.284,945.012,11.468
315.492,919.148,20.252
243.512,900.604,35.624
194.468,889.38,27.572
254.492,974.78,7.564
271.816,987.468,17.324
290.116,1004.06,23.424
272.304,976.976,44.652
276.452,981.856,28.06
244.976,1060.424,-1.22
164.212,1061.644,-4.636
145.668,1015.772,-4.392
151.768,971.608,-15.128
158.844,986.004,-26.108
158.112,999.18,-11.956
159.576,977.464,15.616
163.724,964.288,18.544
149.084,948.184,4.636
176.9,1003.572,-17.812
191.784,965.02,14.884
146.644,827.16,25.864
158.356,1024.8,0.0
184.22,951.6,8.052
135.908,918.172,25.62
145.424,991.128,-19.032
127.856,1057.984,-26.352
109.556,984.052,-12.688
115.168,928.176,1.708
155.428,962.336,-4.148
154.452,975.756,-10.736
137.372,998.204,-10.736
131.76,970.388,12.444
147.132,930.372,29.036
136.396,915.244,21.228
112.972,879.376,10.248
121.756,907.68,-5.856
140.788,949.892,-9.028
111.264,949.648,1.952
98.332,944.28,12.444
71.492,947.696,-0.244
62.22,929.152,-5.124
107.36,956.968,-13.908
115.412,994.056,-19.52
127.856,1019.676,-13.176
158.112,1029.192,5.368
161.284,1011.136,3.416
157.868,1008.452,3.172
153.476,988.932,11.224
159.576,985.76,13.664
155.672,1002.84,-0.488
138.348,970.876,3.172
131.272,943.304,1.952
125.904,947.696,-7.808
139.812,999.18,-19.032
152.744,1039.684,-18.3
148.84,1028.704,-2.196
173.972,1024.068,11.468
182.756,1025.532,11.956
173.24,1030.9,5.124
160.064,997.716,1.952
160.308,979.416,2.684
155.916,983.564,-5.856
155.184,974.292,-3.416
190.808,986.736,4.148
204.96,973.072,12.688
204.96,935.496,12.688
204.716,933.3,2.196
203.984,940.132,-4.148
172.02,949.892,-14.396
144.448,955.748,-20.74
156.16,957.456,-17.08
185.196,979.416,-21.472
181.78,987.224,-30.5
178.852,990.884,-40.26
179.584,1002.108,-47.336
164.944,1000.156,-55.876
159.332,985.272,-52.46
185.44,986.736,-41.724
208.376,974.048,-31.232
203.74,951.844,-36.844
203.74,945.012,-37.82
210.816,931.104,-28.792
214.964,918.66,-33.184
212.28,948.672,-49.532
221.308,962.824,-52.46
221.796,960.14,-49.288
232.044,964.288,-47.58
239.852,957.212,-42.944
248.636,958.188,-40.992
260.104,975.024,-43.188
268.156,991.128,-38.552
288.896,1024.8,-43.92
285.968,1027.728,-50.996
256.932,994.544,-58.56
258.152,998.448,-66.856
264.496,1029.68,-71.736
267.668,1086.776,-82.96
270.84,1118.74,-85.888
261.08,1099.708,-90.036
256.444,1066.768,-94.184
250.832,1040.904,-94.184
245.464,1015.772,-88.572
256.444,1016.016,-86.62
271.572,1031.632,-85.156
275.72,1022.604,-81.74
283.04,990.396,-72.224
295.24,961.604,-62.22
297.68,934.032,-54.168
303.78,922.076,-47.824
307.44,923.296,-45.872
321.836,931.104,-45.14
310.612,924.76,-43.432
299.388,921.1,-45.872
318.908,928.908,-38.552
327.692,922.076,-37.82
327.448,934.52,-40.26
321.836,943.304,-44.408
317.444,953.064,-49.044
311.588,944.768,-56.608
311.588,931.836,-61.732
325.496,914.756,-66.368
340.624,904.508,-65.392
357.216,892.064,-57.34
388.692,845.216,-29.036
448.96,749.324,-16.348
542.168,778.36,-40.748
554.368,820.816,-89.304
528.016,757.864,-111.264
641.232,806.42,-143.716
782.264,843.508,-123.22
741.516,782.02,-153.476
596.824,644.16,-108.336
447.984,400.404,-85.4
578.036,323.544,-156.404
1112.884,486.78,-198.86
1284.416,288.652,-148.596
1124.352,39.772,-139.568
945.988,20.496,-39.772
837.164,-80.764,-38.064
1082.872,-149.816,-82.472
1321.748,-113.948,-104.676
1263.432,-260.592,-62.708
1079.456,-393.084,-3.416
958.92,-399.916,0.488
966.484,-459.208,-44.408
1238.788,-406.504,-8.784
1552.816,-343.308,-74.42
1655.052,-357.948,-126.88
1672.132,-385.276,-105.896
1782.908,-472.14,-83.204
2081.808,-549.0,-66.612
2306.288,-621.956,-84.424
2422.92,-781.044,-71.492
2443.416,-985.76,0.244
2184.776,-1275.144,89.792
1748.992,-1374.94,106.872
1225.856,-1340.78,28.792
737.124,-1154.12,13.664
335.256,-956.724,-15.128
78.812,-700.28,-115.412
-120.536,-435.54,-205.448
-254.736,-233.02,-235.704
-272.06,-87.352,-257.664
-140.544,8.784,-295.728
52.216,134.444,-423.34
245.708,222.04,-490.196
500.2,270.84,-511.424
667.828,227.164,-517.036
723.216,185.928,-494.832
739.564,162.504,-457.256
744.688,147.376,-400.892
707.112,129.808,-308.172
686.86,137.86,-234.24
729.804,116.144,-170.312
684.176,70.028,-129.32
541.436,61.488,-26.596
443.104,105.164,71.492
333.548,80.764,196.664
282.796,-12.2,320.128
406.016,-33.672,427.976
530.7,-101.26,506.544
616.588,-145.424,564.616
738.588,-258.396,671.976
989.664,-397.476,774.7
1138.504,-510.692,864.492
1133.624,-606.584,918.66
1215.852,-682.712,946.476
1318.82,-667.584,921.1
1427.644,-752.496,864.004
1524.512,-804.712,711.504
1588.44,-782.508,543.632
1569.652,-768.356,369.172
1601.372,-719.068,158.844
1562.576,-651.968,-91.256
1537.444,-492.88,-316.712
1346.148,-305.244,-484.096
1047.248,-163.48,-515.816
880.84,-28.06,-531.92
840.824,33.916,-549.732
817.644,71.736,-522.16
804.468,170.556,-449.448
814.228,180.804,-311.588
791.78,101.748,-149.816
830.332,-9.028,-41.724
932.812,-112.484,58.56
1015.04,-171.532,119.316
1040.172,-148.108,152.012
1065.548,-133.956,174.216
1090.68,-163.236,201.544
1080.676,-194.956,198.86
1071.892,-220.088,187.148
1076.528,-221.796,188.124
1043.1,-193.98,181.78
1031.876,-148.108,171.776
1021.384,-133.224,161.04
1011.624,-112.24,151.036
986.736,-114.68,156.404
993.812,-127.124,163.236
1021.14,-131.028,159.088
1002.352,-114.924,141.032
954.284,-97.112,122.0
960.384,-29.036,116.144
975.268,-10.492,113.216
1076.772,8.296,122.0
1094.096,8.296,127.856
986.248,-16.836,90.524
933.788,74.908,105.896
911.34,76.86,106.872
936.96,147.132,67.1
932.812,136.64,86.864
967.948,199.104,72.956
926.224,153.232,43.676
982.832,221.064,56.364
971.608,309.392,51.24
991.86,337.452,46.848
992.348,394.792,57.096
935.74,433.344,21.472
901.824,474.092,7.808
821.792,447.496,51.24
775.432,413.336,112.972
770.796,433.832,88.572
854.732,516.06,54.656
935.984,632.936,105.164
831.308,664.656,12.932
799.832,645.136,-25.62
816.668,663.924,-64.66
728.34,589.992,-49.044
719.312,648.552,-32.452
758.596,698.084,-9.272
752.008,699.548,5.124
714.432,669.536,16.348
665.632,646.844,15.372
611.22,660.508,9.76
642.94,748.104,-55.632
695.644,854.0,-93.452
822.768,859.856,-37.576
671.488,777.384,-56.608
622.2,840.824,-63.44
522.892,866.444,-23.912
376.004,794.464,-53.68
341.356,810.08,-122.244
468.724,904.264,-124.44
523.136,885.964,-82.472
533.628,867.908,-44.408
508.74,856.44,-35.624
475.312,882.792,-67.588
466.772,905.972,-76.372
468.968,901.58,-76.128
470.432,951.356,-76.372
447.74,960.14,-61.244
430.66,950.624,-53.436
380.64,958.188,-63.44
281.088,896.212,-59.536
274.5,884.988,-45.384
350.628,944.28,-31.72
411.872,972.828,-12.2
405.04,1007.476,-42.7
327.204,1041.148,-108.824
243.512,1016.748,-74.908
296.704,993.324,-21.472
348.676,1025.532,-22.692
377.468,1023.092,-0.488
400.16,1039.928,15.128
313.052,961.116,49.532
213.256,924.272,11.956
257.176,1042.612,-30.5
252.784,995.52,3.904
235.46,929.152,12.688
261.08,1005.768,-11.468
258.152,1005.768,-25.62
264.008,981.612,-7.564
198.372,979.904,-56.852
177.632,991.86,-77.104
182.268,1036.756,-71.004
168.36,1001.376,-28.06
152.988,980.392,-30.988
157.868,971.852,-36.6
176.9,977.952,-61.976
162.016,965.752,-49.532
147.132,971.608,-49.532
153.964,989.908,-50.996
156.648,1019.432,-50.752
134.444,1016.26,-58.804
121.756,995.764,-44.652
132.98,973.804,-39.772
138.348,960.384,-39.528
142.008,991.616,-58.804
118.828,993.324,-57.34
106.14,974.78,-57.096
90.768,993.568,-83.936
88.328,991.616,-77.836
75.152,958.92,-72.224
79.3,947.696,-71.98
102.48,978.44,-90.524
87.84,1009.428,-112.484
75.152,986.492,-103.944
89.548,1006.744,-107.848
90.524,1026.508,-118.096
63.196,991.372,-115.412
44.652,957.212,-122.488
67.588,961.36,-121.024
73.2,997.472,-132.98
61.0,982.1,-115.168
79.788,980.88,-104.188
94.184,976.244,-103.944
90.036,984.54,-103.944
94.428,990.64,-100.528
95.16,996.984,-98.088
83.448,978.928,-101.748
80.276,982.832,-96.38
82.716,976.244,-91.5
92.964,955.748,-86.864
105.408,950.38,-83.204
110.288,955.26,-85.644
120.292,978.928,-98.332
128.1,1041.392,-114.436
88.816,1017.48,-116.388
89.548,991.372,-99.796
107.36,988.688,-94.916
138.592,1015.772,-112.728
126.148,1031.876,-136.64
102.236,1022.848,-137.128
91.744,1007.964,-132.492
74.664,990.884,-140.788
83.936,984.052,-139.324
85.888,981.368,-134.444
83.936,972.584,-130.54
98.82,998.936,-122.0
99.308,1002.596,-117.364
96.624,990.396,-112.24
110.044,991.128,-108.58
133.224,1010.892,-109.556
131.028,1021.384,-110.776
111.264,1002.108,-117.364
91.988,985.028,-134.932
89.304,977.708,-137.372
78.812,968.436,-143.96
76.372,955.992,-148.108
71.98,969.656,-161.528
64.416,994.544,-163.236
74.664,991.128,-149.084
85.4,996.74,-146.156
100.528,989.176,-136.152
112.484,985.516,-127.612
99.552,973.56,-131.272
102.236,984.54,-128.588
101.748,977.952,-128.588
102.48,975.268,-128.832
106.384,990.64,-131.028
115.412,995.032,-126.392
112.24,996.496,-128.588
103.944,991.616,-130.784
101.26,982.1,-127.368
101.748,970.632,-131.516
108.58,951.112,-121.024
112.24,936.96,-117.364
109.8,946.72,-119.316
106.384,957.456,-128.832
126.148,971.364,-123.952
141.276,956.968,-110.288
137.128,936.96,-116.876
152.744,926.224,-112.484
204.472,935.74,-113.948
272.548,1016.992,-123.464
306.22,1039.684,-120.048
333.304,1006.744,-100.528
338.672,957.212,-84.424
329.156,836.188,-61.488
384.3,784.704,-35.136
474.58,823.012,-82.96
511.424,817.644,-69.052
549.976,772.504,-68.808
570.472,717.848,-68.564
629.276,631.228,-54.9
808.86,669.292,-90.28
1022.116,761.524,-141.764
1042.124,754.936,-127.856
832.04,522.16,-108.824
667.828,347.212,-105.408
675.88,276.452,-169.092
854.244,235.704,-217.892
1316.624,337.94,-246.684
1392.752,149.328,-256.444
1203.652,-19.032,-151.524
860.344,-244.0,-21.472
701.5,-361.364,10.492
871.568,-392.596,9.272
1027.728,-463.356,-135.664
1093.852,-498.248,-194.224
957.456,-549.488,-79.3
776.896,-610.244,-15.86
802.028,-571.204,19.276
872.788,-579.988,-50.996
931.348,-574.864,-102.236
1003.084,-529.968,-136.64
950.38,-551.928,-70.028
900.36,-642.208,7.808
1009.916,-660.752,-40.504
1037.244,-666.364,-73.932
1074.82,-643.428,-98.332
1113.616,-681.004,-117.364
1223.66,-771.04,-137.128
1357.616,-840.824,-77.592
1534.272,-877.18,-139.08
1803.16,-961.116,-256.688
1958.832,-1189.744,-209.108
1998.116,-1459.852,-90.036
1914.912,-1696.776,-35.624
1654.076,-1893.196,-60.268
1318.82,-1867.088,-45.384
971.852,-1685.796,-131.272
908.9,-1234.152,-372.1
591.7,-1099.952,-581.696
133.224,-667.34,-474.336
-154.94,-435.784,-474.824
-162.26,-265.228,-491.416
-146.644,-147.62,-526.552
-148.108,-71.98,-488.732
-55.632,45.872,-454.572
41.48,157.38,-461.648
135.42,196.176,-429.196
239.364,245.464,-391.864
239.852,193.492,-292.312
336.232,190.076,-204.228
370.88,162.26,-98.82
418.704,143.228,8.784
400.404,121.024,133.224
428.952,145.18,182.512
579.744,102.236,205.204
651.724,7.808,348.432
586.088,-27.816,462.624
539.24,-96.136,521.428
609.512,-82.716,555.588
804.468,-126.636,634.888
842.532,-380.884,857.172
766.648,-649.284,1046.028
950.38,-814.96,1111.42
1261.236,-845.46,1101.904
1494.256,-1066.524,1073.6
1507.188,-1476.688,1075.552
1551.352,-1725.324,902.556
1639.68,-1598.932,320.372
1569.652,-1055.544,-314.516
1616.012,-534.848,-746.884
1472.296,-139.568,-913.536
1174.372,67.588,-911.584
1021.872,158.844,-788.852
800.808,51.484,-520.208
770.064,-125.904,-365.756
885.72,-247.172,-285.724
871.08,-299.388,-158.356
925.248,-321.348,-38.308
1064.816,-359.9,34.648
1054.568,-372.344,98.82
952.82,-334.036,138.592
845.46,-344.772,227.408
844.484,-346.48,278.648
863.028,-349.896,291.58
980.88,-373.32,264.252
1009.184,-363.804,205.204
938.18,-332.084,192.76
917.44,-384.056,222.772
913.78,-424.804,244.488
925.736,-397.232,221.064
968.436,-366.488,181.048
972.096,-381.128,169.58
960.872,-389.668,163.236
947.94,-383.568,157.624
921.832,-366.976,168.604
958.92,-358.924,179.828
963.068,-365.268,138.836
944.524,-309.88,124.44
991.86,-244.732,88.572
1004.06,-169.092,47.336
965.996,-107.36,2.44
974.048,-63.684,13.176
1021.14,4.88,-1.952
1059.692,110.776,-46.604
1094.34,232.776,-85.156
1039.684,274.5,-68.076
1011.624,280.356,-39.04
976.0,332.328,-28.06
901.58,371.612,-12.444
872.788,415.532,-11.468
860.344,590.236,-69.784
864.736,714.432,-101.504
804.956,715.896,-100.284
805.2,691.984,-49.532
771.284,732.0,16.348
745.908,734.684,11.224
704.184,772.016,9.516
588.284,828.38,-5.124
508.008,877.912,-67.344
465.552,809.836,-27.572
452.864,735.904,15.86
454.572,823.5,16.836
451.888,929.64,44.408
357.216,920.368,14.152
312.076,936.472,-37.088
320.128,1030.412,-12.932
247.66,1025.288,14.884
220.332,1011.624,-1.22
218.38,1101.904,-31.964
181.78,999.668,-15.616
140.056,933.056,1.708
120.048,976.732,25.62
66.124,972.096,20.74
59.292,998.204,-4.148
89.548,984.052,-2.684
96.868,956.968,21.96
56.364,950.624,50.508
23.18,940.864,61.976
7.808,943.548,58.56
23.668,1004.06,32.696
-15.86,1027.728,7.564
-87.84,991.86,0.488
-121.268,992.592,-2.196
-129.808,1008.208,1.952
-126.148,1025.532,10.004
-130.54,1022.848,6.832
-151.768,1012.356,0.488
-171.044,973.316,-8.052
-166.164,981.856,-18.056
-159.332,989.664,-13.42
-169.58,973.316,-13.176
-167.384,966.484,-14.152
-194.956,932.08,-15.372
-214.964,894.016,-7.808
-215.94,893.284,-8.54
-204.228,929.152,-0.976
-185.44,944.768,18.056
-165.676,968.924,19.764
-136.152,1025.532,24.888
-139.08,981.856,34.16
-138.104,959.408,32.696
-123.708,941.596,36.356
-121.756,919.636,38.796
-99.796,958.188,29.524
-101.748,968.924,22.936
-129.564,968.436,12.932
-136.884,965.508,3.172
-128.832,979.172,0.244
-111.508,1009.672,-1.22
-104.188,1031.632,-1.952
-112.972,1030.412,-6.1
-108.824,1046.272,-9.516
-110.776,1047.492,-6.832
-112.24,1037.244,-1.952
-119.072,1011.136,3.416
-122.0,1018.212,-8.052
-118.096,1041.636,-12.444
-120.536,1037.244,-1.464
-117.12,1009.916,8.296
-105.164,1003.328,3.66
-116.388,976.0,-0.976
-106.628,979.66,-3.66
-102.724,997.472,0.0
-116.388,987.224,3.66
-101.748,1002.352,-3.416
-98.576,981.612,1.708
-95.404,960.628,4.148
-82.472,959.652,6.1
-84.424,980.88,7.32
-111.752,955.748,5.124
-117.12,948.184,-0.976
-109.8,967.948,-6.344
-105.408,992.348,-4.148
-99.064,992.104,-0.732
-84.424,1002.352,-6.588
-81.984,994.056,-10.248
-104.188,971.852,-8.296
-111.996,979.416,-15.616
-113.46,1005.28,-15.86
-130.296,969.9,-9.76
-101.992,965.264,-14.152
-71.98,992.348,-18.788
-72.712,998.204,-10.736
-88.816,988.932,-3.904
