acc_x[mg],acc_y[mg],acc_z[mg]
-12.688,990.396,-45.872
-17.324,994.3,-47.58
-9.76,997.716,-51.972
-2.196,1001.376,-54.168
-2.44,1004.304,-50.752
7.808,1000.156,-43.432
0.976,988.932,-43.432
-2.44,983.564,-42.212
-16.104,984.784,-39.528
-29.768,984.54,-37.332
-13.176,984.296,-36.112
-8.784,990.884,-39.528
-4.392,994.788,-41.724
-2.684,997.472,-38.796
-7.32,1001.376,-36.844
-2.196,994.788,-31.232
-4.636,993.568,-31.72
-8.296,997.716,-36.112
-7.32,995.764,-38.796
-7.32,996.008,-38.308
-5.124,991.128,-31.72
-12.932,986.004,-30.5
-28.792,986.492,-23.18
-40.504,981.856,-20.74
-28.548,978.196,-19.764
-17.08,980.636,-22.204
-22.936,987.956,-27.816
-20.252,991.86,-30.5
-23.424,986.248,-32.94
-22.936,984.052,-35.38
-15.616,982.1,-36.356
-17.568,990.64,-33.916
-11.224,990.884,-35.868
-19.276,992.592,-33.428
-33.184,987.224,-37.332
-36.6,982.588,-42.456
-38.552,989.908,-40.504
-34.648,991.86,-36.112
-33.672,986.492,-32.452
-30.012,984.54,-35.38
-23.424,988.2,-40.748
-16.348,994.544,-39.284
-11.956,999.18,-37.576
-18.788,992.348,-33.672
-22.692,985.272,-34.16
-23.912,988.688,-33.672
-19.032,989.664,-35.868
-19.276,990.396,-36.844
-24.644,987.956,-37.088
-25.376,985.76,-39.04
-23.668,984.052,-40.016
-25.864,986.248,-43.92
-35.136,986.492,-44.408
-33.184,987.468,-43.188
-26.84,988.688,-35.624
-25.132,989.664,-32.208
-28.792,990.396,-29.524
-32.696,991.372,-33.916
-31.476,988.932,-30.744
-24.888,985.272,-32.208
-23.424,980.392,-26.84
-28.06,986.248,-27.816
-38.796,981.856,-33.428
-39.772,977.708,-38.796
-35.38,973.072,-34.892
-26.108,972.34,-34.404
-8.296,979.66,-30.012
-15.128,988.444,-27.816
-27.328,989.176,-29.036
-31.232,992.348,-30.256
-36.112,991.86,-33.916
-33.184,988.932,-39.284
-27.084,991.128,-39.04
-28.06,995.032,-34.404
-29.768,999.18,-28.548
-23.912,995.276,-27.572
-13.908,993.324,-29.524
-15.372,995.764,-29.768
-24.644,997.96,-30.5
-31.232,994.056,-30.744
-25.864,987.956,-35.624
-16.592,986.98,-38.552
-19.032,993.08,-38.308
-29.28,993.324,-36.6
-31.964,993.324,-29.524
-17.812,992.836,-32.452
-11.224,989.908,-33.672
-22.692,989.42,-31.476
-39.772,987.712,-27.328
-42.212,984.052,-28.304
-40.26,983.564,-26.84
-28.06,976.488,-30.744
-29.524,979.66,-31.476
-30.5,991.372,-28.792
-30.5,991.372,-28.792
-30.988,988.444,-29.768
-30.5,982.832,-35.868
-26.84,986.98,-33.916
-26.108,995.764,-32.94
-24.644,998.692,-31.476
-18.544,996.496,-35.136
-28.06,990.152,-36.356
-36.6,987.956,-38.064
-29.28,987.956,-37.82
-38.308,987.224,-36.6
-30.012,991.128,-39.772
-24.4,986.98,-40.992
-30.744,987.956,-42.7
-29.28,987.712,-40.748
-22.692,986.492,-36.112
-23.912,984.784,-27.328
-21.96,987.956,-20.496
-6.832,988.688,-19.276
-2.928,995.032,-16.836
-12.932,994.788,-21.716
-20.984,983.564,-27.328
-36.844,979.416,-31.72
-49.776,975.512,-28.548
-64.416,978.196,-30.988
-62.952,985.272,-27.816
-52.216,986.492,-30.988
-32.696,988.932,-34.16
-19.032,993.08,-41.48
-10.98,997.472,-43.92
-16.104,999.18,-43.432
-21.716,989.42,-39.04
-15.616,977.952,-33.428
-8.296,976.488,-31.72
-9.516,985.028,-30.988
-24.644,990.884,-30.744
-37.576,991.372,-35.868
-38.552,994.3,-31.476
-31.72,998.448,-35.38
-33.428,1004.792,-39.04
-35.38,1005.036,-47.824
-30.256,1006.256,-50.02
-14.152,1006.744,-45.384
-13.908,996.496,-40.748
-14.152,983.076,-30.256
-10.98,977.464,-29.524
-20.74,982.1,-30.744
-29.036,982.344,-26.352
-37.088,981.368,-18.3
-32.696,973.804,-18.3
-31.72,972.34,-20.496
-31.72,977.22,-19.764
-35.38,981.368,-20.984
-45.14,980.148,-25.864
-49.044,976.976,-33.916
-39.772,981.124,-35.868
-26.352,990.884,-33.916
-21.472,990.64,-35.136
-17.324,994.056,-34.892
-19.276,993.812,-39.04
-21.96,990.64,-48.068
-21.228,996.74,-51.24
-23.912,996.252,-51.484
-31.72,987.956,-50.02
-38.796,984.052,-50.02
-28.548,981.856,-50.508
-22.204,981.856,-49.044
-26.596,986.492,-41.968
-23.424,984.54,-34.16
-21.716,986.736,-30.988
-24.156,991.86,-32.208
-28.548,996.984,-34.892
-34.648,999.668,-40.26
-31.72,1001.62,-43.676
-31.72,1003.328,-42.212
-40.748,1009.672,-35.38
-45.628,1016.26,-26.84
-38.064,1023.58,-21.472
-36.112,1052.128,-4.148
-53.436,1104.344,13.42
-82.716,1168.516,18.3
-106.384,1246.108,-0.244
-138.348,1320.284,-54.168
-155.428,1408.124,-108.824
-110.288,1474.248,-140.788
-97.112,1472.54,-157.868
-125.416,1453.264,-138.348
-162.748,1365.668,-101.748
-211.304,1232.2,-63.44
-222.772,1183.644,-34.16
-263.52,1054.08,5.856
-245.708,996.496,25.132
-213.256,1007.72,71.98
-45.384,970.632,80.52
-9.516,910.852,66.368
31.964,920.856,91.744
67.832,889.136,116.144
137.128,832.528,137.86
294.02,738.832,176.168
337.94,595.604,171.044
261.324,481.656,172.996
203.74,448.96,187.88
279.868,389.912,177.388
421.144,241.804,142.252
491.416,231.556,237.168
389.668,132.492,248.88
339.16,34.404,272.06
335.744,-18.544,249.124
395.28,-34.16,236.192
434.076,-0.976,231.8
370.148,-14.152,218.38
291.092,-3.904,210.816
288.164,9.76,164.212
364.78,8.54,77.348
479.46,-3.172,13.664
567.3,-31.476,-2.196
583.404,-60.024,19.52
547.048,-105.164,49.288
573.156,-138.348,60.512
684.176,-172.02,18.3
783.24,-229.116,-98.332
902.312,-247.904,-177.632
1094.096,-276.696,-177.144
1186.084,-296.216,-160.308
1238.788,-381.86,-172.508
1399.584,-455.792,-207.4
1600.884,-518.744,-227.652
1736.06,-536.556,-208.62
1870.26,-507.764,-206.18
1919.792,-503.86,-187.88
1957.856,-489.708,-154.696
2047.892,-485.072,-106.14
2123.288,-511.424,-91.988
2152.08,-481.412,-84.18
2201.856,-496.052,-55.876
2231.38,-508.74,-11.712
2191.12,-512.888,21.228
2114.748,-512.156,69.052
2008.12,-529.968,126.392
1886.12,-544.852,190.076
1789.74,-576.816,226.432
1697.752,-579.5,263.52
1574.044,-590.236,311.832
1462.048,-617.564,351.36
1336.144,-628.056,377.224
1201.456,-596.336,401.624
1097.512,-519.232,389.912
1018.212,-460.916,361.852
932.812,-410.408,364.048
819.108,-365.512,352.58
731.756,-297.924,301.34
673.44,-256.688,218.136
605.12,-121.756,151.768
523.868,-25.376,102.968
437.004,19.032,59.048
350.14,88.572,26.84
283.528,147.864,-18.3
236.192,198.86,-42.944
139.812,230.092,-29.524
52.46,279.136,-52.46
51.24,338.672,-73.932
97.356,403.088,-77.348
133.224,486.048,-65.392
174.948,508.74,-60.756
332.084,508.74,-79.788
483.12,509.472,-79.3
619.272,488.488,-70.272
689.3,466.284,-28.548
789.096,456.28,21.228
935.496,491.416,33.184
1069.696,462.136,47.58
1189.744,396.012,73.444
1261.236,358.192,116.876
1350.54,290.116,166.408
1429.84,261.08,206.18
1473.272,255.468,234.972
1474.248,261.812,267.424
1397.144,249.612,263.276
1311.012,218.624,267.424
1318.576,220.82,258.152
1327.604,252.54,251.076
1176.08,197.152,272.304
911.34,155.916,284.26
656.604,275.964,330.376
539.972,394.06,335.744
366.488,345.504,262.544
199.592,313.052,145.912
96.136,469.212,122.244
-23.18,655.872,141.764
-7.076,645.38,96.38
-42.7,602.436,121.268
-146.156,538.02,179.584
-231.068,578.28,172.264
-351.36,661.728,123.22
-574.132,625.128,10.248
-752.74,632.692,-189.832
-809.348,810.812,-182.512
-953.796,934.032,-70.272
-1003.084,913.048,-148.108
-1060.18,854.244,-248.88
-1031.632,873.032,-254.492
-1000.4,889.868,-204.96
-961.848,881.816,-156.404
-852.048,904.02,-123.708
-770.064,916.708,-129.32
-681.492,913.292,-112.972
-653.188,916.464,-124.44
-596.824,966.484,-136.152
-574.864,1006.5,-109.068
-529.236,988.688,-77.836
-479.46,945.744,-46.848
-457.012,906.948,-39.528
-437.004,897.92,-41.236
-446.764,895.236,-46.36
-436.028,914.268,-51.484
-439.444,904.752,-58.56
-393.084,905.24,-49.776
-369.66,899.628,-24.644
-342.088,910.852,8.296
-318.42,932.08,16.348
-305.0,957.456,21.472
-314.028,957.944,27.084
-344.528,931.348,19.032
-323.3,912.316,19.032
-315.492,904.02,11.956
-330.864,899.384,5.856
-333.06,899.628,10.248
-318.664,907.436,19.032
-291.336,923.052,31.72
-293.532,935.252,33.916
-276.208,940.864,29.036
-255.712,935.984,21.96
-259.372,934.764,22.936
-284.504,926.956,21.96
-304.024,926.712,4.392
-276.452,943.548,-13.664
-248.148,970.144,-15.616
-245.464,980.148,-21.96
-266.692,975.024,-23.424
-271.328,968.924,-19.764
-281.82,955.992,-11.712
-274.744,953.308,-2.44
-251.808,942.572,-8.052
-234.972,946.232,-13.176
-233.996,945.988,-22.692
-241.316,940.864,-21.228
-245.464,939.888,-14.64
-248.636,931.104,-14.396
-261.08,934.52,-7.076
-244.732,944.768,-3.416
-253.028,944.28,-1.22
-261.324,934.764,-8.052
-256.444,940.62,-5.124
-246.684,950.624,-8.296
-237.412,961.36,-3.416
-242.78,962.092,-0.244
-244.732,952.82,-6.832
-228.14,954.772,-20.74
-228.872,970.388,-16.104
-235.46,971.608,-14.64
-241.072,958.676,-16.348
-242.536,955.748,-24.4
-233.752,964.776,-25.864
-237.412,960.628,-17.324
-246.684,947.452,-15.86
-246.684,949.16,-13.176
-249.368,961.36,-20.74
-251.32,965.02,-24.156
-250.832,957.212,-28.548
-246.684,952.82,-27.572
-247.416,954.04,-18.788
-244.976,947.696,-14.152
-245.952,940.62,-10.736
-249.856,941.352,-12.932
-240.828,952.088,-11.468
-244.976,950.624,-15.616
-240.096,947.696,-10.248
-229.36,948.184,-5.856
-219.356,947.452,-9.516
-218.136,957.456,-6.344
-232.044,959.896,-5.124
-226.432,964.288,-7.32
-220.82,961.604,-10.492
-211.792,970.876,-8.54
-217.16,963.312,-8.54
-221.796,960.384,-7.32
-219.356,962.336,-11.468
-224.724,961.604,-16.348
-225.212,969.9,-13.664
-218.136,971.364,-14.152
-211.548,959.164,-19.032
-215.94,951.844,-26.596
-221.796,959.652,-18.788
-225.7,967.704,-5.612
-216.916,960.628,5.124
-221.064,953.064,16.592
-209.352,963.068,30.012
-201.788,972.096,42.456
-206.18,982.344,36.356
-209.352,989.42,28.548
-219.844,990.884,8.54
-216.428,992.348,-8.052
-209.84,987.712,-25.62
-193.004,985.272,-38.552
-191.052,970.632,-42.456
-202.52,956.724,-36.6
-221.552,939.4,-25.864
-223.016,923.052,-23.668
-197.152,928.176,-10.98
-189.1,927.688,2.928
-194.712,935.984,4.636
-199.348,948.184,7.32
-210.328,962.336,5.368
-210.816,970.144,-2.684
-196.176,974.536,-0.488
-191.784,980.148,-7.808
-170.8,985.272,-12.688
-178.364,982.588,-17.812
-190.32,976.488,-14.396
-190.076,971.608,-10.492
-193.736,971.12,-9.76
-203.252,966.972,-9.516
-215.208,963.068,-10.248
-211.06,956.724,-10.492
-211.304,952.576,-8.296
-216.184,951.112,-12.688
-215.452,949.892,-14.64
-214.476,956.968,-9.516
-215.94,957.456,-2.44
-215.452,955.992,-2.684
-204.472,959.408,-10.492
-204.716,961.604,-12.444
-220.82,959.652,-12.444
-228.14,955.992,-8.784
-218.868,955.992,-7.32
-200.08,960.872,-16.592
-190.32,967.46,-19.52
-193.492,978.44,-14.396
-213.256,973.56,-2.196
-221.308,968.192,2.928
-209.352,963.556,0.0
-186.416,971.364,-10.004
-188.856,973.072,-16.104
-199.348,976.488,-16.592
-198.86,972.584,-10.248
-207.156,964.044,-6.344
-209.596,961.604,-6.1
-201.788,971.608,-0.732
-193.004,984.784,-0.488
-192.516,996.74,6.1
-204.716,1007.72,14.884
-213.988,1019.676,23.18
-232.044,1052.616,41.48
-256.688,1096.78,67.1
-301.584,1146.556,82.716
-355.264,1231.712,82.96
-425.78,1373.476,81.984
-511.18,1539.396,84.668
-505.812,1636.264,55.388
-447.74,1570.14,89.548
-481.9,1481.812,94.184
-438.956,1384.456,114.436
-502.884,1254.648,132.98
-394.548,1185.108,147.132
-367.708,1050.664,122.488
-326.716,1061.4,156.648
-251.564,912.316,88.084
-232.044,826.672,61.732
-194.224,706.136,72.956
-51.972,541.924,53.192
173.972,429.684,69.052
314.76,321.104,121.024
262.056,192.272,131.516
361.12,105.408,147.864
666.12,-17.324,213.012
791.536,-150.06,248.636
920.124,-61.488,179.584
929.884,41.724,158.356
853.024,75.152,176.656
834.724,129.808,168.36
765.916,108.824,141.276
569.984,92.232,142.74
348.676,121.024,128.344
181.536,85.888,124.684
38.796,81.008,109.312
-10.492,96.624,53.192
-10.98,94.916,12.932
51.24,69.052,-14.396
238.632,91.744,-35.868
372.1,49.532,-70.272
320.86,-95.648,-148.352
513.376,-66.856,-123.22
909.876,-99.064,-121.268
1034.804,-199.836,-114.924
1103.368,-238.632,-155.672
1325.408,-337.208,-258.884
1647.0,-384.3,-317.688
1982.256,-382.348,-390.888
2174.772,-421.632,-491.416
2270.908,-426.512,-499.956
2322.148,-460.916,-430.416
2388.76,-428.708,-319.884
2486.848,-401.136,-281.576
2500.512,-377.956,-294.752
2465.62,-303.292,-267.424
2293.356,-343.552,-82.96
2274.568,-450.18,200.324
2205.516,-579.5,433.1
2014.708,-603.9,523.38
1891.732,-518.256,485.56
1804.38,-427.732,410.408
1636.508,-430.172,387.716
1433.5,-441.64,402.112
1250.988,-488.976,401.868
1065.792,-421.632,314.516
956.968,-357.948,228.14
843.264,-298.9,189.588
574.132,-280.112,164.456
343.552,-201.056,161.772
198.86,-70.028,137.128
80.52,24.4,105.164
31.964,137.128,37.576
13.908,200.812,-21.716
31.232,238.876,-64.904
135.176,225.7,-81.496
262.544,220.576,-29.28
386.74,251.076,20.252
480.192,332.572,33.184
591.212,344.528,47.336
723.216,343.796,55.144
810.812,363.316,81.74
889.38,362.096,78.324
945.5,389.912,78.568
990.396,385.276,102.236
1001.864,381.372,117.852
958.92,365.756,116.632
943.792,371.368,98.088
979.66,348.432,96.868
1095.56,309.392,129.076
1139.968,273.036,169.58
1247.084,213.012,236.924
1458.632,147.62,331.84
1727.764,71.492,463.356
1921.5,66.368,542.412
1873.432,115.656,500.2
1779.736,214.964,355.508
1601.86,294.996,200.324
1256.6,275.964,64.904
816.912,226.188,-3.904
391.132,150.792,43.92
178.12,182.756,20.74
4.148,253.76,23.912
-116.144,267.18,-31.72
-100.528,282.796,-123.708
-64.904,406.26,-229.116
-127.612,458.72,-169.824
-195.688,594.384,-32.94
-255.956,611.708,56.852
-278.892,737.368,83.448
-381.372,915.244,64.66
-526.552,1067.988,-11.224
-545.584,1087.996,-100.528
-616.1,1090.68,-110.532
-706.136,1128.5,-103.456
-907.436,1124.84,-118.828
-955.748,1106.052,-155.428
-779.824,1066.036,-180.316
-596.092,1044.076,-154.696
-498.736,1007.964,-116.632
-469.456,980.148,-39.04
-456.036,946.232,8.54
-436.76,910.364,25.62
-373.808,902.8,11.956
-268.156,927.444,-0.976
-246.44,936.716,1.464
-245.952,947.208,15.372
-231.8,940.132,31.232
-191.052,951.6,40.504
-146.4,990.396,63.928
-164.7,1005.768,72.224
-162.26,1009.184,59.536
-176.656,1007.232,41.724
-192.76,1002.596,16.348
-155.672,1011.624,15.86
-123.464,1015.04,28.548
-136.884,995.764,43.432
-167.872,967.704,46.848
-179.828,943.06,42.7
-171.532,956.968,35.38
-154.452,967.948,29.524
-147.864,979.172,16.592
-116.632,983.32,2.928
-93.452,983.808,10.98
-96.624,983.076,23.668
-128.344,969.168,16.348
-143.228,974.048,-9.76
-128.832,986.248,-10.736
-121.024,993.812,2.196
-123.464,987.956,12.444
-100.772,985.516,26.596
-77.104,989.42,42.456
-94.672,985.028,56.608
-127.124,971.608,61.488
-133.956,974.78,60.756
-142.984,973.316,54.412
-152.5,967.216,31.72
-153.476,964.776,12.444
-135.664,968.436,3.904
-130.296,971.608,3.416
-129.564,969.656,-0.732
-107.848,982.344,-7.808
-81.984,1000.4,-5.856
-50.02,1013.82,-1.22
-29.768,1001.376,0.732
-34.648,982.344,-2.44
-58.56,972.584,7.808
-65.636,962.336,23.912
-84.424,963.068,30.988
-93.696,985.272,25.376
-120.292,1008.452,25.132
-124.928,1018.7,10.248
-118.828,1013.82,-5.368
-116.632,1010.648,-19.52
-103.212,1015.04,-26.84
-75.152,1026.264,-34.648
-40.26,1035.292,-37.82
-39.772,1016.26,-34.892
-64.904,981.612,-29.524
-83.692,956.968,-23.912
-86.864,942.084,-22.936
-62.952,940.376,-12.932
-79.056,937.448,9.516
-115.168,941.596,19.276
-134.688,949.648,12.2
-134.2,973.56,0.0
-118.096,995.764,-0.976
-92.72,1008.94,4.636
-91.988,1010.404,11.468
-92.72,1000.4,6.344
-82.472,993.812,-2.44
-76.372,986.492,-2.196
-77.348,977.708,4.148
-65.392,978.44,6.588
-61.976,981.856,1.464
-65.148,995.764,12.2
-71.248,1002.596,25.376
-83.692,993.08,34.16
-68.32,993.08,34.404
-57.584,990.152,27.572
-70.516,986.736,13.908
-73.932,986.004,9.516
-57.828,988.932,5.368
-67.1,984.784,-2.928
-90.036,979.416,-10.492
-109.068,970.876,-12.2
-119.804,963.8,-6.832
-91.012,972.828,3.904
-62.708,980.392,12.444
-47.58,994.788,6.1
-35.868,1003.572,6.344
-14.64,1009.428,7.564
-2.44,1013.332,7.076
-1.952,1010.892,-5.856
-22.936,999.668,-16.592
-39.04,998.204,-9.516
-48.068,994.544,1.952
-52.948,991.372,3.172
-44.408,980.636,8.784
-30.988,976.976,25.376
-36.356,971.852,38.796
-48.8,974.78,32.94
-52.704,988.688,23.668
-64.66,1005.768,9.76
-78.568,1022.848,-4.148
-86.62,1043.588,-14.64
-100.772,1079.212,-19.276
-125.416,1117.764,-33.184
-126.88,1164.856,-32.94
-137.128,1190.232,-21.716
-192.272,1195.6,-20.008
-285.48,1222.928,-23.668
-377.224,1270.508,-41.236
-344.772,1321.992,-48.068
-230.336,1311.988,-70.76
-247.416,1265.628,-114.924
-310.612,1203.164,-157.136
-281.088,1107.272,-127.368
-264.496,998.204,-68.564
-230.336,930.372,-20.74
-114.68,878.156,28.792
14.64,816.18,52.216
48.8,738.588,100.04
-62.464,638.06,108.092
2.928,501.176,64.66
239.364,359.656,30.5
362.584,297.436,38.064
466.284,132.004,40.26
559.736,17.812,121.268
702.964,-120.292,162.016
930.128,-211.792,279.136
1348.832,-304.512,373.32
1472.784,-371.612,428.464
1302.96,-339.648,384.544
1186.328,-129.808,421.388
1037.0,-79.544,383.08
847.412,16.592,281.332
739.32,84.424,187.148
548.024,121.024,149.328
315.004,160.308,94.184
279.868,181.292,49.288
342.332,99.064,-6.832
390.4,-30.256,-9.76
422.364,-150.548,3.904
466.772,-244.244,-20.008
526.796,-259.616,-62.952
612.684,-306.952,-119.316
721.264,-385.52,-123.464
851.072,-442.616,-172.02
926.956,-493.856,-289.14
1237.568,-490.196,-351.116
1482.3,-578.28,-274.012
1566.968,-558.516,-293.044
1739.232,-482.632,-422.364
1996.896,-443.348,-528.26
2115.724,-400.16,-547.048
2322.636,-522.404,-432.612
2445.124,-664.656,-216.672
2414.624,-782.02,-22.448
2268.712,-765.428,96.868
2101.328,-669.536,134.932
2069.852,-601.46,84.424
2032.764,-535.336,40.748
1846.592,-561.2,75.152
1623.576,-594.14,142.496
1472.052,-597.068,229.848
1353.712,-603.9,252.784
1222.196,-556.564,283.284
1004.548,-494.588,320.372
823.012,-477.02,317.2
723.948,-436.272,296.704
665.876,-361.608,285.236
568.032,-299.876,229.116
439.688,-158.112,134.688
293.288,1.952,68.808
255.956,71.492,23.424
237.9,101.016,-15.616
240.34,92.232,-20.252
252.784,110.776,-30.5
310.368,189.832,-53.68
396.256,211.792,-70.516
426.512,183.0,-91.5
463.112,251.076,-82.716
582.184,259.372,-54.9
685.396,284.992,-50.02
634.644,247.172,-88.328
677.1,311.832,-107.36
788.12,279.136,-65.88
947.208,261.08,27.572
1117.52,290.848,84.424
1143.628,282.308,85.4
1124.596,370.392,125.66
1139.724,382.348,53.436
1464.976,484.096,46.848
1782.176,386.252,109.312
2180.628,197.64,197.396
2397.3,175.68,286.944
2334.592,142.496,235.948
1942.24,67.832,146.644
1479.372,28.06,114.924
1024.312,123.952,185.44
729.316,152.012,271.328
600.24,72.224,254.98
389.668,75.152,163.724
371.612,154.94,-30.012
214.476,380.152,-105.408
198.372,502.884,-132.492
-30.012,630.008,-23.424
-263.032,567.544,26.108
-430.904,610.244,4.88
-596.336,654.164,-44.408
-701.988,698.328,-60.512
-787.632,752.984,-22.692
-769.576,846.924,18.3
-853.024,902.556,-11.956
-865.956,935.984,-72.712
-864.248,935.008,-105.896
-767.624,943.06,-102.968
-601.46,977.708,-57.096
-526.308,975.756,-9.516
-470.432,956.48,0.0
-437.736,922.564,-6.588
-433.1,923.784,-13.42
-405.772,930.128,14.884
-406.748,902.556,29.524
-372.588,897.432,8.052
-314.76,921.1,-25.376
-290.116,918.66,-16.104
-248.392,928.42,39.04
-268.644,907.192,95.892
-268.4,925.492,99.796
-262.3,933.056,74.176
-237.168,956.968,33.672
-222.04,976.0,18.544
-205.204,1002.596,18.056
-228.872,990.152,35.38
-265.716,954.04,42.944
-273.28,922.076,47.58
-249.124,918.416,56.852
-230.336,933.3,56.364
-236.192,932.812,57.828
-250.832,923.54,59.292
-259.372,906.46,61.244
-227.164,894.992,46.36
-217.16,906.948,27.572
-212.768,935.252,19.764
-203.984,959.896,37.088
-186.66,980.88,43.188
-176.9,992.836,36.356
-156.648,991.86,19.032
-153.476,973.316,20.252
-162.26,960.384,33.428
-152.5,954.284,49.776
-139.08,969.9,51.728
-127.368,983.32,42.212
-109.556,989.664,29.28
-94.916,1007.964,25.376
-108.58,1010.892,22.692
-136.396,1011.624,17.812
-168.848,1008.94,4.88
-171.532,1010.648,-14.396
-149.328,1016.748,-24.888
-140.3,1012.6,-8.296
-130.052,1005.768,8.296
-120.048,995.276,16.592
-112.972,989.42,11.956
-138.348,978.196,11.468
-161.284,973.804,11.224
-144.204,979.66,20.74
-130.784,974.536,29.28
-135.664,964.776,34.892
-156.404,947.94,59.292
-162.26,946.476,83.692
-157.868,939.644,83.204
-141.032,943.792,63.928
-135.664,945.256,41.236
-140.544,969.9,36.112
-105.896,1000.4,38.308
-96.136,1007.72,46.116
-94.428,1005.036,53.924
-97.112,1003.084,57.584
-95.648,1005.28,52.948
-86.132,1010.892,49.044
-89.304,1005.524,57.34
-61.732,1006.256,64.172
-57.34,990.64,61.244
-93.696,972.828,50.996
-122.488,955.504,55.144
-125.66,974.78,69.296
-145.668,985.272,79.544
-151.768,984.052,86.864
-133.468,977.952,83.204
-118.828,983.32,78.568
-105.652,990.152,70.028
-93.452,989.908,71.736
-92.232,980.88,69.296
-99.552,982.588,66.612
-122.244,985.272,61.732
-125.416,997.96,53.68
-96.624,1003.572,47.58
-95.892,1001.376,42.7
-114.192,991.616,37.332
-121.756,980.392,37.576
-122.488,976.732,37.088
-121.268,979.416,33.916
-136.884,985.028,33.672
-157.136,979.172,32.208
-171.776,972.584,42.212
-187.88,982.344,58.072
-196.176,986.004,59.048
-192.028,985.516,49.532
-181.292,975.756,40.504
-163.724,968.192,34.648
-155.428,962.092,30.744
-154.94,954.284,39.284
-164.7,942.328,54.168
-169.092,943.06,65.148
-176.168,939.644,68.808
-177.144,948.672,65.636
-168.116,959.408,62.708
-152.5,969.412,55.632
-144.204,968.192,55.388
-149.084,957.456,67.1
-158.6,949.892,82.472
-160.796,951.844,79.056
-171.776,964.288,60.268
-174.948,978.196,43.676
-169.824,986.98,37.82
-158.6,998.936,40.992
-144.692,1007.964,42.7
-153.72,992.836,53.68
-178.364,972.096,59.048
-187.148,968.436,61.488
-172.264,977.708,50.508
-176.9,970.632,51.24
-177.632,962.58,66.612
-178.608,948.428,82.96
-173.484,955.26,95.404
-177.876,959.164,101.748
-194.712,957.944,106.628
-216.916,961.604,100.284
-240.584,988.2,104.188
-247.904,1029.924,118.828
-269.132,1067.012,135.42
-296.46,1094.584,157.38
-315.736,1159.976,195.444
-359.412,1229.028,228.628
-407.724,1261.48,211.548
-434.808,1296.372,177.876
-464.332,1303.204,90.768
-491.416,1330.044,28.792
-294.264,1338.828,-13.908
97.844,1378.844,-36.6
229.116,1255.624,17.324
48.068,1089.46,124.196
-233.996,1005.524,292.556
-236.68,877.668,338.672
73.932,703.696,298.168
183.0,601.46,259.372
131.028,561.688,223.992
137.86,502.396,188.124
129.32,322.568,167.872
73.688,92.964,159.088
145.668,23.424,259.86
271.328,-48.8,301.828
400.16,-139.324,225.7
456.28,-137.616,161.284
460.184,-110.776,117.364
599.264,-213.744,127.368
775.676,-274.256,186.416
801.784,-255.468,250.344
765.428,-242.536,317.2
728.34,-207.888,304.512
765.428,-117.852,176.9
874.252,-35.624,49.776
991.616,-26.596,69.296
938.668,-122.0,140.544
906.216,-192.76,158.112
960.872,-221.552,117.364
1037.244,-201.3,86.376
1214.388,-264.252,79.3
1433.988,-287.188,27.816
1594.052,-289.628,-58.316
1722.64,-278.892,-46.36
1849.032,-292.068,-12.2
1946.876,-334.524,-21.716
1988.112,-323.056,-86.132
1984.452,-304.756,-134.2
1873.676,-314.272,-97.356
1847.812,-356.972,-30.988
1870.748,-412.116,17.08
1883.192,-390.644,-18.544
1849.764,-389.912,-40.992
1811.212,-430.416,8.296
1783.396,-460.184,57.34
1695.068,-467.992,60.512
1606.74,-433.832,61.488
1581.608,-429.44,85.644
1485.96,-414.068,121.756
1268.8,-451.156,99.064
1086.044,-362.584,108.092
1066.768,-327.448,94.916
1020.408,-298.656,119.316
847.412,-264.984,133.956
699.792,-211.06,144.936
608.78,-183.244,139.568
505.08,-137.128,85.4
482.632,1.952,8.54
427.732,84.668,-23.912
298.412,100.528,-30.744
201.544,112.24,-36.112
84.912,86.864,-61.244
91.256,232.044,6.344
188.856,295.728,45.384
223.992,354.044,32.94
378.444,447.496,-21.472
554.124,510.448,-52.948
669.536,549.732,-52.704
824.232,522.16,-54.9
1016.26,508.252,-20.496
1135.332,492.636,2.928
1193.404,457.5,14.884
1241.472,390.156,16.592
1310.768,359.412,25.376
1347.368,313.784,35.38
1376.648,280.112,65.88
1377.38,249.124,83.692
1282.952,268.888,111.996
1154.364,252.784,170.312
1165.588,174.46,223.992
1163.88,185.684,199.104
949.892,284.992,163.724
684.664,395.768,88.328
513.132,547.78,34.892
367.464,659.044,-9.272
271.816,690.52,13.42
152.256,708.088,11.956
-83.448,763.964,27.572
-148.596,820.572,2.44
-169.824,851.804,2.684
-349.896,889.38,-37.82
-606.584,972.828,-43.432
-682.956,992.836,-83.448
-660.264,963.556,-96.624
-615.368,992.592,-11.956
-670.268,1036.268,70.028
-788.364,1009.428,95.16
-753.472,977.708,37.576
-677.1,957.456,11.712
-584.136,981.368,-0.488
-542.412,967.948,0.976
-462.868,942.816,-30.5
-387.228,881.816,-56.608
-384.544,836.92,-42.7
-385.764,820.572,-6.588
-315.248,840.092,13.908
-257.176,885.72,10.736
-200.324,942.572,-11.224
-186.66,963.556,-8.54
-207.644,981.856,3.416
-243.756,961.116,24.888
-258.152,942.328,30.988
-213.988,954.528,22.936
-176.656,969.412,9.028
-202.032,965.264,14.64
-238.388,955.504,37.576
-257.42,939.888,55.388
-247.416,939.888,54.9
-208.376,960.14,44.896
-179.828,986.98,23.668
-174.704,995.276,12.688
-177.876,998.448,10.736
-178.364,1004.06,17.324
-168.36,995.52,14.64
-160.308,986.492,2.684
-166.408,982.1,-13.664
-187.636,979.172,-14.396
-191.052,980.392,-6.344
-206.18,968.192,0.976
-185.44,960.628,3.66
-183.732,955.504,11.712
-174.216,964.044,4.148
-177.876,969.168,-2.44
-183.488,977.22,-10.004
-179.096,983.32,-4.148
-181.78,977.22,-5.124
-174.46,964.532,-7.564
-157.868,966.24,-8.784
-172.264,969.9,-10.492
-181.048,964.776,-6.588
-192.028,963.312,1.464
-179.584,963.312,0.244
-168.36,970.388,7.076
-158.6,973.072,2.928
-132.248,975.024,-4.88
-130.784,975.512,-6.588
-163.724,982.832,7.808
-172.264,974.536,18.056
-184.22,960.628,15.128
-162.992,968.68,1.952
-140.056,981.612,0.976
-147.132,988.2,4.148
-160.552,982.1,15.86
-167.384,969.412,13.908
-168.36,971.608,10.492
-162.748,986.004,9.516
-156.892,985.76,8.784
-153.72,981.612,5.124
-156.16,983.564,1.952
-156.648,982.1,-0.244
-158.112,972.584,3.416
-150.06,966.484,10.98
-156.16,959.408,14.152
-154.208,966.484,14.396
-157.38,969.9,17.08
-150.548,974.78,18.3
-148.84,975.268,25.864
-141.276,979.904,30.744
-139.08,981.124,31.964
-141.032,981.856,24.888
-145.668,976.976,20.252
-151.768,976.0,13.42
-160.064,978.684,3.416
-164.212,974.78,-3.416
-165.676,967.948,-4.148
-169.336,963.556,3.416
-168.116,964.532,0.732
-159.332,972.096,-1.708
-154.94,980.148,0.244
-138.104,977.22,8.784
-148.352,967.216,19.52
-155.916,967.948,20.496
-164.944,968.68,15.372
-163.48,974.536,7.564
-159.82,976.488,4.88
-147.62,984.784,11.956
-148.596,978.928,13.176
-148.352,974.536,2.684
-142.252,978.44,0.244
-143.716,987.712,-0.488
-144.204,983.808,4.636
-140.056,976.732,11.224
-152.744,967.46,12.688
-154.94,965.996,15.128
-151.036,967.948,16.348
-152.5,972.096,17.568
-148.352,977.708,11.468
-133.468,981.612,4.88
-145.424,979.66,3.904
-141.52,981.856,11.468
-153.476,978.196,11.468
-158.112,976.976,4.636
-162.016,979.416,3.904
-158.356,981.612,4.88
-164.212,974.78,8.296
-160.552,973.316,7.808
-162.26,974.78,13.908
-167.628,969.412,14.884
-171.776,965.264,13.176
-170.068,971.608,5.368
-160.308,980.88,-0.488
-164.456,982.832,-4.148
-172.996,982.344,0.0
-179.096,989.176,3.904
-181.292,996.008,8.052
-185.196,994.788,9.272
-176.9,1006.988,9.516
-200.568,1037.732,10.248
-221.552,1088.728,8.54
-231.8,1134.844,8.296
-320.372,1166.564,-22.692
-438.956,1233.664,-68.076
-422.12,1352.492,-75.64
-331.596,1474.98,-106.628
-246.44,1504.016,-123.464
-312.564,1447.652,-124.928
-404.552,1326.14,-72.712
-464.332,1181.936,-9.516
-325.496,1145.336,63.928
-128.1,1055.544,68.808
-1.464,1017.48,70.76
83.692,929.884,96.868
220.088,751.032,96.136
480.192,621.468,78.08
632.448,579.988,49.532
648.552,570.96,45.384
547.292,564.372,-8.052
549.732,379.908,-49.288
563.396,262.788,-6.588
673.44,30.988,40.016
684.664,-144.936,92.964
733.464,-200.324,158.844
667.828,-380.396,157.38
662.46,-335.988,190.076
791.048,-284.748,193.98
803.004,-212.524,176.168
705.892,-106.872,112.24
677.344,-44.652,116.876
583.892,-67.832,191.296
403.576,-99.552,225.456
304.512,-72.712,163.724
330.376,-29.524,72.956
381.86,-42.7,-20.74
440.42,-68.076,-131.028
573.644,-87.84,-218.624
648.064,-132.004,-304.024
754.448,-144.936,-336.964
909.632,-231.556,-339.648
963.312,-322.568,-334.036
992.592,-387.228,-310.368
1035.78,-459.452,-281.82
1194.136,-499.712,-345.504
1340.78,-518.5,-370.148
1364.448,-555.1,-341.356
1465.952,-607.804,-322.812
1699.46,-610.732,-330.376
1933.7,-604.876,-392.352
2149.396,-567.056,-460.916
2204.052,-598.288,-444.08
2098.4,-658.312,-286.456
1993.968,-699.304,-147.62
1933.212,-702.232,-59.536
1948.828,-697.84,-59.292
1928.576,-682.224,-58.804
1782.42,-646.112,-61.0
1606.008,-630.496,-57.828
1527.196,-597.068,-72.956
1474.98,-566.08,-54.412
1359.812,-549.244,9.76
1134.844,-567.3,106.14
1028.948,-537.288,111.752
1016.26,-441.152,55.876
1032.608,-326.228,34.404
996.984,-268.644,16.592
878.4,-230.58,16.348
823.988,-202.276,13.664
812.52,-129.076,10.98
739.32,-96.38,33.916
598.044,-85.4,46.604
492.88,-26.84,44.896
412.848,40.504,43.188
342.332,122.732,50.752
280.6,172.02,70.516
236.192,196.42,17.08
256.932,243.512,-2.44
337.452,272.06,-16.836
439.932,315.248,-40.748
519.232,305.0,-71.492
598.532,307.196,-83.204
656.848,299.876,-71.736
782.02,281.576,-44.652
889.624,234.972,-46.36
986.492,246.684,-38.552
1091.412,196.42,20.008
1192.916,117.12,98.576
1386.408,46.848,125.66
1624.796,29.036,130.052
1583.804,-17.324,166.408
1330.776,-24.644,242.536
1194.136,13.664,227.896
1069.208,71.492,126.636
1005.768,120.78,19.52
833.992,108.336,29.768
522.648,228.628,113.704
383.324,338.184,184.952
371.856,426.024,111.752
305.0,637.816,-18.788
291.336,773.236,-43.676
279.38,736.392,13.42
161.772,825.94,49.532
55.388,956.968,55.876
-145.912,980.88,76.616
-277.916,940.376,94.428
-400.892,952.332,48.556
-563.152,967.216,-14.152
-711.26,967.704,-32.696
-736.148,983.564,11.468
-737.856,963.312,17.568
-745.42,996.008,-47.336
-794.952,1006.988,-88.328
-806.908,983.808,-56.12
-740.296,973.072,-47.824
-659.776,944.28,-71.492
-574.62,949.404,-70.516
-580.964,952.576,-8.296
-568.276,921.832,26.108
-543.144,875.472,19.032
-456.768,857.172,-32.696
-408.456,869.86,-40.992
-390.888,895.48,-25.864
-403.088,884.012,12.688
-407.724,876.204,0.488
-409.92,899.14,-49.044
-348.432,933.056,-96.624
-311.588,946.476,-103.212
-302.316,948.916,-80.764
-325.252,934.276,-60.268
-320.128,929.884,-44.408
-303.78,930.616,-28.06
-256.932,949.648,-6.1
-213.988,966.728,3.904
-207.888,965.508,9.272
-230.336,970.144,-2.928
-259.372,965.752,-20.984
-247.66,974.536,-24.644
-232.532,986.98,-23.912
-210.816,1001.376,-13.664
-186.904,991.86,-18.056
-201.788,973.56,-7.32
-231.312,957.944,-3.416
-249.368,947.696,-5.368
-249.612,948.184,-13.664
-235.46,971.608,-22.204
-197.152,981.124,-16.592
-221.064,972.828,-11.956
-221.552,968.436,-15.86
-183.732,965.264,-29.524
-178.12,969.168,-39.284
-160.064,1006.744,-27.084
-180.316,988.444,-15.86
-179.096,978.196,-10.736
-178.608,951.844,-20.008
-164.944,945.744,-19.276
-201.3,942.572,-14.152
-214.72,952.82,-12.932
-223.992,954.772,-17.568
-223.992,953.796,-26.352
-201.056,952.82,-35.38
-191.54,958.432,-45.628
-185.196,974.78,-54.412
-187.148,979.66,-47.092
-183.244,981.856,-35.38
-172.996,977.952,-20.252
-180.56,974.048,-13.908
-188.124,963.556,-17.324
-199.592,957.7,-14.152
-203.496,955.016,-11.956
-203.74,959.652,-6.588
-197.64,966.972,-14.64
-186.904,972.34,-25.132
-191.784,975.024,-29.524
-202.276,972.096,-25.864
-205.204,968.924,-18.056
-200.568,973.316,-19.276
-183.732,983.808,-33.428
-181.536,982.344,-49.288
-198.616,979.904,-49.044
-216.672,966.972,-39.772
-217.892,959.652,-34.892
-208.62,954.772,-37.576
-197.396,959.408,-41.724
-200.812,959.408,-37.82
-202.032,962.58,-29.28
-194.468,961.116,-24.156
-202.52,953.308,-19.764
-203.008,954.772,-20.74
-204.96,958.432,-14.884
-200.812,964.288,-14.64
-192.516,959.896,-16.836
-199.104,960.14,-19.52
-201.056,966.972,-18.056
-192.76,970.388,-17.812
-185.44,974.78,-19.52
-179.828,975.512,-27.328
-183.0,977.708,-28.304
-196.908,979.172,-26.596
-204.96,968.68,-20.496
-206.668,960.872,-15.86
-203.008,957.944,-16.592
-195.2,965.752,-12.2
-198.128,962.58,-10.248
-193.98,962.092,-10.004
-190.564,962.58,-13.664
-169.336,979.416,-8.784
-167.872,978.196,-14.64
-173.484,972.828,-18.544
-180.316,970.876,-16.592
-193.248,968.68,-13.42
-190.076,966.728,-14.396
-193.736,963.556,-13.176
-196.908,962.092,-12.932
-187.392,964.288,-8.052
-184.952,964.532,-9.272
-180.56,967.704,-15.128
-186.904,967.216,-14.884
-191.784,967.704,-17.08
-189.344,962.58,-13.664
-184.22,957.212,-11.468
-180.56,961.116,-7.564
-168.604,973.804,-8.784
-176.168,974.536,-10.492
-188.856,978.196,-5.368
-181.536,971.364,-14.152
-177.144,969.168,-17.324
-171.532,969.656,-23.18
-173.728,974.292,-20.008
-170.8,983.32,-15.616
-159.332,980.392,-7.564
-163.968,971.852,-1.464
-170.8,964.044,-5.124
-165.188,970.144,-5.124
-159.088,979.172,-3.416
-153.232,983.32,-1.22
-154.94,976.244,-0.976
-172.264,969.656,1.464
-187.636,968.192,-5.368
-178.12,979.172,-10.736
-173.484,989.664,-12.932
-171.044,992.592,-9.028
-177.632,991.616,1.464
-187.88,988.2,6.832
-199.348,993.324,6.588
-211.06,1012.844,10.248
-220.332,1040.172,17.324
-228.872,1063.108,20.496
-234.24,1087.264,26.84
-254.736,1074.332,29.28
-273.036,1075.552,29.524
-279.136,1068.964,48.068
-307.44,1077.26,51.24
-321.104,1086.776,35.136
-286.456,1120.204,19.764
-233.02,1172.176,8.784
-201.544,1203.896,-10.248
-210.816,1176.08,-15.616
-217.648,1126.792,-14.396
-137.128,1096.536,7.564
-62.952,1071.648,30.012
-32.696,1024.312,57.34
-64.172,952.332,91.256
-70.272,938.668,134.444
46.848,914.024,135.908
215.208,834.968,100.772
262.544,765.428,82.228
370.392,752.984,143.472
455.06,685.152,190.564
498.492,591.456,194.468
491.172,508.252,191.052
597.068,403.088,148.108
682.468,335.256,122.488
791.78,330.132,92.476
879.62,219.356,42.944
984.052,100.04,12.932
1082.14,-23.668,0.244
1136.552,-68.076,88.084
1177.056,-42.7,188.856
1125.328,-70.516,212.524
1110.2,-47.092,155.672
1086.044,1.708,130.784
1006.744,116.388,129.32
947.696,173.728,102.968
966.484,121.024,80.276
1085.556,25.376,99.308
1115.568,-22.448,176.9
1044.564,-79.056,208.864
998.448,-82.472,225.944
1042.612,-26.108,210.572
1022.116,10.98,183.0
973.072,13.42,168.604
902.068,1.708,143.716
812.276,-0.732,141.032
705.16,-13.908,137.616
577.548,-4.148,136.396
455.792,-23.668,109.312
377.956,-7.564,108.824
317.932,8.052,109.556
223.26,-83.204,106.384
172.264,-182.024,107.36
156.648,-199.592,101.748
127.124,-186.172,103.944
184.22,-274.988,53.68
374.784,-358.192,-22.448
562.176,-382.836,-84.668
696.864,-407.724,-151.524
950.624,-471.896,-256.444
1306.132,-544.364,-352.336
1614.792,-546.072,-401.624
1758.996,-542.412,-351.848
1873.676,-631.96,-347.212
2077.904,-649.528,-380.884
2291.404,-571.936,-333.06
2336.544,-541.192,-217.16
2352.404,-530.7,-156.16
2389.004,-511.668,-99.064
2386.076,-506.544,-50.02
2330.688,-501.42,-5.612
2220.644,-581.696,59.292
2090.104,-615.856,166.164
1925.16,-683.932,267.668
1791.204,-708.576,336.476
1650.172,-743.468,363.072
1518.9,-755.424,392.352
1421.544,-755.18,386.496
1280.512,-695.644,359.9
1142.164,-630.008,342.332
969.9,-614.636,312.076
809.348,-526.308,276.696
730.048,-426.756,221.552
627.08,-362.828,203.496
518.744,-268.888,174.216
392.352,-168.116,130.54
288.408,-87.596,76.616
233.264,9.028,41.968
300.364,80.52,6.832
321.592,113.216,16.104
293.288,172.752,38.308
279.868,189.832,15.128
317.444,230.336,4.636
368.44,258.396,-4.636
392.108,335.988,-28.548
463.356,399.916,-54.9
528.016,441.396,-83.204
594.384,467.992,-67.1
690.032,453.596,-53.436
814.228,433.344,-60.756
903.044,393.084,-71.248
980.392,378.688,-57.828
1086.532,360.632,-54.168
1228.296,296.216,-21.228
1313.208,172.508,4.392
1349.564,97.356,64.416
1383.48,64.416,145.912
1393.972,41.724,224.724
1352.004,-7.32,248.636
1275.388,-47.58,180.072
985.76,62.708,222.284
737.368,115.9,260.592
747.86,139.568,175.192
652.212,217.404,102.236
424.56,355.02,93.696
219.844,483.364,73.932
87.108,711.504,9.76
-53.436,803.98,-32.94
-105.164,968.924,-52.46
-216.428,1045.54,-6.588
-311.588,1089.216,1.464
-457.256,1090.924,-69.784
-677.344,1073.844,-94.672
-637.572,1128.012,-90.036
-629.032,1160.464,-22.204
-591.944,1137.528,-40.748
-612.44,1162.66,-46.848
-591.456,1160.22,-107.604
-598.288,1088.484,-91.744
-532.652,1066.28,-12.444
-495.808,1028.216,53.68
-493.368,977.952,69.052
-478.24,933.788,80.764
-404.552,911.584,77.836
-310.612,915.0,59.78
-262.544,924.516,48.8
-256.932,932.08,17.812
-258.884,926.224,-1.22
-243.024,927.444,-23.18
-202.764,957.212,-40.26
-172.508,993.08,-65.392
-165.92,1016.016,-68.076
-166.652,1018.7,-41.968
-171.044,998.692,-7.076
-151.768,996.984,23.912
-155.428,980.636,38.064
-151.28,975.756,50.752
-159.82,955.504,53.68
-148.352,958.188,55.388
-87.596,1006.256,52.704
-78.812,1005.768,45.384
-112.484,1018.212,52.46
-129.32,1002.352,57.096
-126.148,982.344,55.632
-132.98,977.22,54.412
-131.76,975.512,54.168
-89.792,982.832,41.48
-90.524,965.996,27.084
-115.168,955.26,26.84
-96.38,948.916,38.064
-58.804,947.208,59.78
-78.812,945.256,68.808
-110.532,959.408,68.564
-118.096,970.632,59.536
-105.408,986.248,42.944
-102.236,999.668,28.304
-108.336,999.18,12.2
-93.452,1003.328,10.248
-80.032,1003.084,3.172
-70.516,1008.94,1.22
-79.056,1016.992,5.368
-82.472,1031.388,11.956
-70.516,1028.46,13.176
-61.0,1013.576,21.716
-63.928,992.592,30.744
-71.492,969.168,37.576
-78.568,956.968,46.116
-83.448,968.436,53.436
-64.416,969.168,50.264
-60.512,974.536,49.044
-53.68,988.444,37.576
-41.968,991.86,38.064
-32.208,989.908,43.188
-26.352,991.128,45.384
-37.088,982.832,42.456
-61.244,986.736,35.624
-84.912,981.368,31.476
-84.912,991.616,40.748
-81.008,989.42,48.068
-65.148,988.932,55.632
-83.204,975.024,64.66
-95.16,968.68,67.832
-109.068,957.7,66.368
-107.36,964.532,53.436
-103.456,969.656,47.336
-97.6,975.268,53.192
-92.72,976.976,51.484
-77.836,983.076,44.164
-56.364,1005.28,45.14
-51.24,1009.428,53.192
-60.512,1009.184,66.368
-49.532,1001.376,71.736
-24.156,999.18,57.096
-32.452,995.032,37.576
-45.628,1012.356,22.692
-42.456,1046.516,14.396
-40.504,1044.076,11.712
-63.684,1017.236,19.764
-85.4,985.516,28.792
-102.236,966.484,42.7
-123.22,949.16,48.556
-110.776,947.452,47.092
-106.384,950.136,36.6
-84.18,968.436,35.624
-58.804,971.364,39.04
-54.656,969.168,39.528
-63.196,975.756,41.48
-63.44,987.468,49.532
-73.688,987.468,60.756
-83.692,986.248,74.664
-73.688,987.956,82.228
-69.784,986.248,82.96
-60.512,986.98,86.62
-83.448,969.412,99.308
-100.284,963.556,110.776
-98.088,969.656,114.436
-85.156,976.732,116.144
-69.784,981.368,107.848
-72.224,979.66,95.648
-86.376,987.224,85.156
-109.556,985.76,75.64
-113.46,985.272,66.612
-106.384,986.736,68.076
-108.092,980.88,68.564
-112.24,983.076,79.544
-106.384,984.784,75.64
-92.232,992.592,67.344
-98.576,997.228,67.588
-112.24,996.496,67.588
-117.608,988.444,70.516
-106.384,988.444,72.956
-110.532,979.172,74.42
-116.388,974.292,73.932
-126.148,966.24,72.956
-126.148,969.168,67.588
-125.66,972.34,59.536
-111.02,982.588,48.312
-105.408,980.636,46.116
-105.408,983.32,41.724
-105.652,983.564,43.188
-112.728,986.248,47.336
-115.656,988.688,53.924
-125.904,983.32,55.876
-141.52,978.928,56.364
-150.06,989.664,68.32
-146.156,1014.308,83.204
-175.924,1031.632,101.016
-209.84,1065.06,132.98
-259.128,1098.732,163.724
-303.536,1159.488,169.58
-358.436,1247.816,159.088
-457.988,1378.844,177.876
-551.684,1452.532,197.64
-616.832,1423.984,212.036
-667.584,1347.856,181.78
-700.28,1240.496,129.564
-734.44,1141.432,107.604
-733.22,1039.928,89.792
-731.268,936.96,66.124
-628.3,862.784,32.452
-529.236,836.92,7.32
-486.048,813.984,-6.344
-405.772,798.856,-12.932
-250.832,748.592,5.124
-55.876,682.956,18.056
126.148,597.312,9.76
176.9,473.604,63.44
273.036,339.16,154.208
485.56,179.096,182.024
774.944,43.432,227.896
851.072,-76.372,190.32
830.576,-54.9,175.436
837.408,-54.412,200.324
932.324,-66.612,201.788
1048.224,-80.52,245.708
1031.876,-74.908,342.576
971.364,-38.064,359.9
967.704,-15.128,335.5
970.632,7.32,279.624
993.08,67.832,278.16
867.176,107.848,212.28
745.176,145.424,140.788
702.964,145.912,80.52
562.176,142.008,10.98
375.516,214.72,-9.028
242.292,184.708,-22.692
233.264,107.116,12.444
313.784,57.584,31.72
369.416,-59.048,30.256
414.068,-201.3,-2.684
590.236,-186.172,-15.86
752.252,-218.136,-65.636
876.204,-201.056,-109.556
1046.272,-286.7,-147.132
1316.136,-349.408,-241.316
1595.76,-301.34,-337.696
1658.468,-310.856,-371.856
1564.772,-370.636,-345.992
1670.424,-423.828,-321.836
1845.128,-457.744,-324.52
1982.5,-450.668,-308.66
2071.804,-453.84,-252.052
2167.208,-480.436,-199.104
2167.452,-501.42,-129.808
2142.32,-501.664,3.416
2144.272,-504.348,163.724
2101.816,-513.864,285.724
2023.736,-545.828,311.344
1888.072,-501.664,320.86
1757.288,-459.696,313.296
1681.648,-422.12,286.212
1568.432,-417.972,268.4
1387.14,-425.048,250.588
1174.86,-395.768,231.8
985.516,-388.204,187.636
833.992,-330.132,143.96
662.704,-247.172,108.58
516.548,-157.868,108.824
393.328,-136.64,85.644
290.848,-89.548,84.912
268.156,-4.636,73.2
193.736,40.26,82.228
155.184,71.004,78.568
173.728,85.888,25.864
261.812,165.676,16.836
377.956,193.736,30.012
464.088,223.992,48.312
554.368,185.928,3.66
704.672,224.236,-45.384
884.012,269.864,-47.824
949.404,233.264,-19.764
955.016,240.828,16.592
998.936,233.752,52.704
1062.132,257.42,66.612
1145.336,271.572,57.096
1191.94,280.844,50.02
1133.624,293.776,84.18
1032.364,278.404,111.02
980.636,220.576,103.212
1041.88,186.416,101.26
1161.684,238.876,107.848
1277.34,292.068,128.344
1269.044,254.736,182.024
1198.284,249.368,209.84
1138.26,276.696,237.168
1202.432,353.068,278.892
1300.276,296.948,264.252
1170.956,278.648,287.188
910.12,396.744,313.052
600.972,533.872,336.964
595.604,545.584,249.368
484.34,616.588,151.524
359.168,712.968,29.036
2.44,730.78,-25.376
-165.432,737.124,-53.192
-192.516,782.02,-19.52
-334.524,820.572,-8.052
-588.772,794.708,-2.684
-728.828,749.812,12.444
-810.08,753.472,9.516
-863.272,810.812,-38.064
-863.028,864.98,-99.308
-830.088,886.452,-153.72
-818.376,916.708,-116.632
-806.42,891.576,-82.228
-718.824,861.808,-102.724
-631.96,878.888,-131.028
-582.672,948.428,-165.676
-427.244,1069.208,-151.28
-363.56,1140.7,-100.528
-294.752,1166.32,-65.636
-292.8,1119.716,-66.368
-305.976,1043.344,-66.368
-266.692,968.436,-40.992
-210.816,933.788,-14.884
-223.26,942.816,-24.888
-234.728,972.828,-27.816
-248.636,947.452,-23.424
-278.892,928.908,-5.124
-280.844,915.976,5.612
-267.18,903.044,2.928
-269.132,898.408,-2.196
-291.336,919.88,13.664
-276.696,946.964,7.564
-241.56,978.928,-22.692
-205.692,990.152,-52.704
-215.452,975.268,-60.024
-225.212,956.968,-65.88
-242.78,936.472,-52.216
-266.936,929.64,-39.772
-260.592,935.496,-37.332
-186.416,973.56,-38.552
-190.32,991.616,-38.064
-218.624,1001.376,-27.328
-223.748,986.492,-15.616
-246.44,964.776,-15.86
-249.856,965.508,-20.984
-218.136,956.236,-21.472
-187.392,942.572,-26.352
-191.296,942.328,-22.936
-204.228,951.6,-15.616
-216.916,953.308,-6.832
-213.5,950.868,-8.052
-201.544,938.668,-22.692
-181.292,933.056,-38.796
-176.656,948.672,-30.988
-180.56,963.556,-22.692
-194.956,968.924,-12.932
-199.592,957.212,-27.816
-202.032,951.112,-45.14
-197.64,959.896,-59.048
-195.932,970.876,-54.9
-184.464,982.832,-46.36
-211.548,969.656,-39.284
-198.616,977.952,-30.744
-207.156,967.948,-23.912
-200.812,975.512,-16.836
-168.848,975.512,-15.86
-170.312,971.364,-22.204
-177.876,985.76,-23.912
-191.296,986.004,-23.912
-193.492,988.2,-24.644
-184.708,978.928,-25.62
-155.428,979.416,-20.984
-134.2,977.464,-18.3
-146.888,973.804,-14.884
-172.752,965.996,-8.052
-185.684,947.208,-11.468
-181.536,955.26,-15.86
-159.332,974.048,-18.3
-133.468,983.564,-22.692
-149.328,973.316,-21.716
-178.608,964.776,-15.128
-198.372,960.628,-11.224
-188.612,968.192,-11.468
-165.432,973.56,-15.86
-138.836,972.584,-12.2
-156.648,969.412,-2.928
-157.38,976.976,1.952
-154.452,970.876,-0.244
-161.772,973.072,-2.44
-166.408,971.608,-2.44
-146.644,975.756,0.0
-156.16,978.684,0.488
-170.312,974.292,-4.88
-166.408,972.096,-5.124
-150.06,979.66,-6.344
-151.524,986.98,-3.416
-164.7,986.248,-2.44
-160.552,978.928,-0.488
-151.28,978.928,0.488
-158.6,975.268,1.708
-176.656,969.656,-3.66
-171.288,975.024,-2.44
-149.084,975.756,-2.44
-135.42,980.148,-1.464
-140.788,989.908,6.344
-144.936,985.272,6.344
-144.204,983.076,-0.488
-148.596,978.44,-7.564
-153.72,976.244,-7.32
-153.964,966.24,-8.54
-147.864,967.948,-0.976
-156.404,968.924,8.296
-162.748,970.632,10.98
-149.572,969.168,6.1
-152.5,974.048,10.004
-155.672,974.78,11.956
-146.644,970.876,16.348
-149.084,971.364,16.836
-165.432,963.068,13.42
-163.724,958.188,10.248
-151.28,969.412,11.956
-148.352,979.416,11.956
-146.888,986.492,15.86
-151.28,978.196,19.764
-152.012,972.34,23.912
-157.868,969.656,25.864
-165.676,965.996,25.62
-174.216,964.044,27.084
-186.172,963.312,21.96
-197.396,966.972,11.956
-230.336,989.176,12.932
-285.968,1014.308,21.472
-343.308,1037.244,14.396
-427.488,1077.26,-4.88
-400.892,1143.384,0.488
-335.012,1194.624,23.424
-249.124,1235.128,24.156
-246.196,1230.98,51.728
-321.104,1184.864,71.248
-366.0,1129.72,103.212
-371.124,1091.412,144.204
-325.74,1058.228,168.604
-314.76,1046.76,201.056
-322.568,1007.72,169.336
-314.76,967.948,91.988
-291.336,961.36,23.668
-203.252,945.988,11.224
-77.104,876.204,18.056
67.1,824.72,24.888
224.724,811.788,45.872
274.744,777.628,71.492
245.708,698.572,55.876
319.396,567.788,2.928
635.62,524.356,-44.896
836.92,554.612,-34.404
746.884,487.756,-33.916
713.212,398.452,-38.064
879.864,244.976,-18.544
1047.492,170.068,52.216
1112.152,163.48,71.248
1125.084,155.672,68.32
1075.064,193.492,98.332
1171.688,163.236,101.748
1233.908,153.232,148.596
1199.992,220.82,212.524
1120.692,194.468,232.776
1101.904,201.544,233.752
1065.548,201.3,196.176
1016.748,252.296,167.872
988.688,298.656,152.5
997.716,282.552,135.176
970.876,298.412,157.38
921.588,300.12,191.052
872.3,262.056,198.372
823.5,214.72,191.54
801.54,179.828,181.292
753.472,144.936,181.292
586.576,148.596,212.28
392.84,157.868,226.432
274.5,145.18,191.784
244.732,140.056,119.072
243.268,210.816,95.892
231.312,180.56,72.956
273.036,61.732,57.096
374.784,2.44,29.036
490.684,-10.004,25.62
646.6,-70.028,23.18
776.164,-92.964,26.84
826.184,-121.024,-2.196
896.944,-176.168,-7.808
1056.276,-246.196,4.148
1264.408,-265.228,17.812
1397.144,-266.448,-30.988
1400.56,-262.544,-91.744
1451.556,-216.428,-118.096
1535.736,-223.016,-131.272
1576.484,-242.78,-156.892
1660.908,-261.812,-180.316
1692.628,-261.568,-182.756
1689.212,-239.364,-159.088
1710.928,-254.98,-141.276
1758.508,-278.16,-141.276
1808.528,-281.82,-141.276
1852.448,-313.052,-107.604
1856.84,-343.552,-45.872
1824.876,-362.584,-3.904
1793.156,-375.516,36.112
1814.872,-387.716,90.524
1796.084,-421.876,150.792
1738.5,-425.78,190.564
1699.216,-401.38,197.64
1620.648,-409.92,177.632
1506.456,-406.748,154.208
1428.62,-399.184,157.868
1380.552,-397.72,153.232
1290.272,-398.696,149.816
1166.076,-400.648,149.816
1038.464,-394.304,133.712
965.508,-376.736,137.372
924.028,-321.348,127.856
832.528,-286.456,87.84
651.236,-207.156,35.136
523.624,-124.44,25.132
443.836,-58.56,46.36
346.724,-15.372,31.72
245.22,45.628,24.4
175.924,150.06,41.48
119.56,245.708,42.456
119.804,348.188,26.596
105.164,418.216,32.208
104.432,469.7,17.08
185.684,549.976,-19.52
379.664,602.436,-49.532
526.064,628.056,-83.448
650.26,643.672,-150.06
827.16,664.168,-172.264
941.108,661.728,-160.796
944.28,679.784,-116.632
940.376,663.924,-109.312
1007.476,661.972,-91.5
1090.68,622.444,-68.564
1102.636,583.16,-65.148
1099.22,563.152,-55.632
1147.044,504.836,-43.92
1215.852,476.044,-9.272
1173.64,461.16,27.328
1148.02,400.404,59.78
1117.276,402.844,91.988
1059.448,406.992,112.24
1115.324,376.248,77.592
1032.12,373.564,109.8
882.06,330.132,148.352
697.352,428.22,165.188
652.7,493.612,135.664
489.952,427.0,79.544
93.696,554.368,108.824
-227.164,687.104,104.92
-334.28,707.112,44.408
-288.896,772.504,42.456
-429.684,874.008,54.412
-616.1,848.144,42.212
-620.004,891.576,115.168
-701.744,888.648,118.584
-888.404,889.868,21.96
-958.188,892.064,-35.136
-915.488,848.388,0.488
-923.784,859.856,58.316
-906.704,889.38,69.296
-832.772,885.232,44.652
-740.54,868.884,55.632
-673.196,871.568,77.348
-613.416,924.76,112.24
-581.208,916.952,122.732
-565.592,862.052,124.44
-530.212,804.956,117.608
-474.092,805.932,94.916
-444.568,837.896,62.464
-429.684,855.708,41.724
-440.908,880.352,51.484
-435.052,907.192,58.804
-393.572,907.68,60.512
-342.332,897.92,70.76
-348.676,912.56,81.008
-380.152,935.74,84.668
-377.956,951.356,86.132
-362.34,936.472,65.636
-391.376,920.856,56.608
-418.46,898.164,56.12
-452.864,852.048,57.828
-462.38,834.724,46.848
-448.472,843.264,49.532
-437.248,842.044,49.044
-436.028,842.532,41.724
-427.976,861.076,39.528
-434.808,881.572,37.576
-413.824,878.156,41.236
-416.508,868.396,35.136
-428.22,859.612,20.496
-432.856,864.98,0.732
-412.36,896.944,-7.076
-397.232,910.364,11.224
-413.336,912.316,17.324
-423.34,894.016,11.468
-424.316,885.232,0.244
-418.704,892.552,-11.956
-404.064,901.58,-9.76
-403.088,891.332,-7.32
-421.632,865.956,-2.44
-441.396,846.924,1.22
-436.028,841.556,18.056
-417.972,844.972,20.496
-396.012,862.784,20.252
-397.964,870.592,3.416
-406.748,883.036,-16.348
-398.452,901.092,-18.788
-392.84,907.924,-16.104
-397.476,901.336,-20.984
-412.604,901.824,-26.352
-414.068,913.292,-28.548
-421.388,914.756,-33.428
-431.636,906.704,-38.796
-433.588,895.236,-33.916
-423.34,899.872,-33.916
-409.188,901.336,-46.604
-403.088,905.24,-58.804
-393.816,920.368,-70.76
-388.204,925.004,-61.488
-399.428,921.588,-54.9
-413.336,914.024,-45.872
-410.896,902.068,-56.852
-402.844,889.868,-58.804
-393.328,890.356,-53.924
-375.76,905.972,-43.432
-385.52,896.7,-25.864
-401.136,873.52,-15.128
-391.864,870.836,-6.344
-377.712,881.816,-1.464
-369.172,893.528,-8.784
-367.22,899.14,-10.248
-367.464,899.384,-6.1
-377.712,900.848,10.98
-384.3,899.628,18.056
-376.736,903.532,14.396
-367.952,903.776,-4.148
-371.368,903.532,-0.488
-390.4,916.464,17.08
-397.964,922.076,22.936
-383.08,938.18,12.932
-377.468,952.332,-2.684
-381.372,958.676,-7.808
-401.624,970.632,-7.808
-409.676,999.424,-5.368
-410.408,1043.1,-17.812
-415.532,1081.408,-7.32
-455.06,1097.268,18.788
-542.412,1102.88,48.068
-620.004,1131.672,77.104
-625.616,1142.408,78.324
-583.16,1152.168,54.656
-561.444,1153.876,68.32
-588.772,1148.264,112.24
-618.784,1102.148,161.284
-598.044,1064.328,163.968
-535.58,1010.892,163.968
-480.436,913.048,162.748
-413.824,895.968,187.636
-361.608,842.532,178.608
-328.18,789.828,125.416
-265.716,732.976,78.812
-181.536,703.696,28.06
-38.552,651.968,-19.032
223.748,585.6,-30.5
322.568,563.396,17.08
304.512,454.328,-1.22
419.436,233.508,-182.268
702.72,150.304,-226.92
769.332,122.976,-233.508
765.428,-22.692,-237.9
910.608,-178.12,-109.068
1305.888,-421.876,59.292
1578.68,-568.764,150.792
1506.212,-500.932,146.4
1337.12,-237.9,173.972
1308.084,-102.968,93.208
1329.556,-53.924,6.832
1280.024,9.272,1.952
1148.02,39.528,14.396
1069.452,19.52,24.644
1033.096,12.688,29.768
1018.944,103.456,68.32
1019.188,154.452,78.812
981.612,137.372,77.104
905.728,185.196,79.788
911.096,210.328,77.104
930.616,189.832,45.384
935.252,177.388,26.352
930.128,153.964,55.632
902.8,120.536,110.532
864.98,81.984,154.696
793.0,49.776,162.016
702.72,20.252,179.584
576.328,-31.72,202.032
400.892,-97.356,187.636
264.496,-11.224,191.052
251.32,1.464,188.124
266.448,-42.7,206.912
246.684,-69.54,167.384
286.7,-162.016,57.828
360.632,-191.296,-37.332
590.968,-127.856,-47.824
810.08,-226.432,-106.14
963.8,-300.12,-179.828
1077.992,-304.024,-268.888
1202.432,-304.024,-406.504
1408.124,-319.884,-439.932
1566.968,-360.632,-401.868
1705.804,-403.576,-379.908
1701.412,-505.08,-438.956
1771.44,-383.812,-407.724
1864.404,-375.272,-385.764
1996.164,-344.528,-363.072
2070.096,-349.896,-386.252
2066.68,-332.572,-381.86
2091.324,-321.836,-338.672
2120.36,-372.832,-254.98
2186.24,-436.516,-117.852
2194.292,-532.896,-13.908
2080.588,-572.912,52.216
1982.256,-564.128,113.704
1916.132,-578.768,150.304
1786.08,-628.056,178.364
1624.552,-642.452,191.052
1431.792,-634.4,201.788
1258.796,-570.96,187.636
1083.116,-520.696,167.14
946.964,-458.72,153.232
807.396,-368.44,133.712
690.764,-269.864,103.944
538.02,-227.896,59.78
436.76,-114.924,66.612
322.812,-48.556,70.76
155.672,32.208,73.2
18.544,100.528,53.192
1.708,178.608,55.876
52.46,228.628,50.02
81.496,303.78,18.788
134.932,312.808,-74.908
316.712,358.68,-128.344
559.492,337.208,-116.144
724.436,244.976,-160.308
877.912,241.56,-184.22
1079.7,260.836,-145.424
1161.684,284.748,-94.428
1242.448,237.9,-55.876
1350.784,194.956,-28.548
1471.808,196.664,-16.592
1522.804,286.7,51.484
1536.956,261.324,44.896
1181.936,178.608,25.376
712.48,121.024,-9.516
468.236,267.424,14.396
321.836,347.944,149.816
169.336,352.58,116.876
24.644,395.036,25.132
-78.08,623.664,-17.08
-310.612,830.576,-21.228
-307.196,834.236,4.88
-252.784,860.588,45.628
-379.908,911.584,51.484
-637.572,964.288,46.848
-718.336,957.7,17.812
-695.156,982.1,9.76
-710.772,997.96,-34.892
-839.604,1018.456,-78.324
-925.736,994.056,-61.244
-823.988,924.76,-16.836
-777.872,821.548,57.828
-858.148,748.836,47.58
-844.972,714.188,-2.44
-761.768,727.608,-20.496
-686.372,771.04,-4.392
-645.38,823.012,52.216
-610.976,855.464,70.028
-594.14,840.092,40.748
-570.716,818.376,27.572
-534.116,807.152,27.572
-531.676,828.136,36.112
-535.092,876.936,19.032
-546.804,902.556,9.516
-549.488,887.428,-1.464
-474.824,894.26,7.32
-369.172,923.296,28.304
-376.004,935.252,62.708
-373.076,948.672,82.96
-365.268,939.644,64.172
-341.356,917.928,37.088
-327.204,913.292,40.504
-320.86,912.316,37.82
-369.172,899.384,34.404
-401.624,878.156,18.056
-406.26,877.912,19.032
-391.864,885.72,21.472
-351.604,896.7,22.204
-349.164,903.532,35.38
-357.948,893.772,37.088
-371.612,870.836,34.16
-381.128,864.248,27.084
-349.408,897.188,31.232
-336.964,929.396,31.964
-329.4,937.692,18.788
-324.52,940.376,14.396
-332.328,940.132,18.544
-337.452,937.448,18.544
-321.836,933.3,16.104
-320.86,940.376,20.984
-326.716,935.984,19.276
-315.248,940.132,19.52
-302.804,942.084,16.592
-294.264,943.548,17.324
-301.34,939.888,18.788
-319.396,930.616,23.668
-331.84,921.1,31.476
-315.248,923.784,29.768
-300.608,925.004,28.792
-302.072,943.792,30.988
-302.072,931.104,20.74
-287.432,926.468,20.984
-296.216,929.396,31.232
-315.248,928.908,40.748
-306.22,931.836,36.112
-287.432,934.52,28.792
-297.436,934.52,23.18
-298.656,931.348,16.104
-296.46,921.1,7.808
-311.344,918.416,-0.732
-325.74,923.54,3.416
-321.348,948.184,7.32
-296.46,961.848,3.66
-283.04,960.14,1.708
-282.796,955.016,12.444
-284.504,955.504,21.96
-283.04,955.992,26.84
-283.04,949.648,20.008
-296.704,942.084,19.764
-293.776,947.208,28.548
-275.72,955.016,32.208
-261.568,950.38,28.304
-269.132,937.448,19.032
-286.456,929.64,16.836
-288.896,937.936,21.472
-279.38,940.62,21.228
-286.456,941.108,11.468
-295.972,938.424,5.368
-296.216,941.84,6.832
-284.748,945.5,12.444
-278.892,953.308,16.592
-285.48,954.528,14.64
-285.48,949.892,20.252
-287.92,943.792,31.964
-283.528,942.816,42.7
-274.012,946.232,46.36
-274.744,949.892,42.456
-281.088,947.94,43.432
-296.704,947.452,44.896
-317.2,960.628,46.848
-316.712,976.976,42.456
-303.536,980.392,32.208
-316.468,979.66,20.74
-342.332,993.08,15.128
-360.144,1022.848,20.984
-380.396,1051.884,25.132
-413.824,1104.344,27.572
-439.2,1152.412,13.42
-449.936,1179.984,-15.86
-461.16,1223.66,-40.26
-399.672,1294.664,-27.084
-360.632,1296.86,-15.128
-393.328,1284.904,1.952
-457.256,1260.016,47.092
-481.9,1223.416,77.836
-475.068,1171.444,64.66
-313.784,1123.864,48.312
-306.464,1055.788,46.116
-321.592,981.856,54.412
-359.412,915.976,115.168
-388.204,808.128,120.78
-288.652,728.096,84.668
-97.356,692.472,91.744
111.752,676.612,94.428
169.336,631.716,138.836
191.54,520.208,173.972
270.84,381.86,190.808
366.732,270.352,191.784
383.568,195.932,245.952
372.832,160.552,282.308
404.064,66.612,259.86
374.784,42.212,254.736
343.308,3.172,204.228
312.808,-1.952,170.068
322.568,-4.636,143.472
273.28,-35.868,167.872
301.828,-73.688,138.836
404.552,-139.324,138.592
444.812,-172.508,120.292
513.62,-170.8,104.676
640.744,-164.944,68.32
827.16,-138.104,-20.496
1081.896,-109.312,-34.404
1250.5,-143.228,-57.34
1361.52,-148.108,-130.784
1453.752,-171.044,-172.508
1527.196,-173.972,-179.584
1569.408,-149.328,-73.932
1606.984,-227.896,-83.448
1660.908,-246.196,-119.072
1721.176,-210.816,-142.984
1762.168,-194.712,-94.916
1732.888,-218.38,-18.3
1754.36,-246.44,24.644
1782.908,-272.792,20.008
1819.508,-231.068,-10.248
1826.34,-226.432,-46.848
1836.1,-234.24,-20.74
1830.732,-270.108,25.864
1739.72,-305.976,72.712
1659.688,-321.104,116.876
1653.344,-333.548,166.164
1672.376,-361.852,190.32
1733.864,-350.628,231.068
1670.18,-388.448,246.44
1526.464,-375.028,265.96
1380.552,-386.252,235.46
1298.08,-317.444,200.324
1240.984,-281.82,146.4
1168.272,-239.12,122.976
1038.708,-213.744,112.24
937.204,-196.42,103.7
816.424,-174.216,95.648
746.152,-106.872,90.036
670.512,-65.148,66.612
559.492,-36.356,34.892
491.904,33.184,34.648
407.236,79.788,42.944
308.416,113.948,28.792
281.088,163.724,36.6
294.752,205.204,-1.708
299.388,276.208,-28.548
306.464,330.376,-30.012
423.584,326.472,-53.68
550.708,298.9,-59.292
666.852,291.336,-49.288
751.52,295.484,-62.22
866.932,315.248,-64.416
935.252,284.26,-56.364
1020.164,268.156,-21.96
1136.796,234.728,36.112
1250.744,190.076,80.764
1334.436,148.108,113.46
1426.18,100.284,120.536
1453.752,87.352,132.736
1460.828,70.516,135.908
1403.244,88.816,156.648
1300.276,95.892,159.576
1136.064,72.956,101.992
952.088,129.32,91.744
644.648,213.012,109.8
477.752,289.872,18.544
383.08,440.42,3.66
209.84,644.648,20.74
138.592,689.788,11.224
-5.612,743.468,88.084
-115.656,731.512,86.864
-209.352,825.452,76.616
-344.528,896.212,48.8
-422.364,866.444,-0.732
-483.852,887.184,-9.028
-549.732,914.756,-21.472
-635.132,961.36,-10.492
-775.676,950.868,-48.556
-800.808,925.98,-101.992
-749.812,939.644,-115.412
-684.664,983.076,-94.428
-664.9,985.272,-70.028
-700.28,929.884,-77.104
-678.076,918.904,-70.028
-563.152,948.184,-46.36
-446.52,968.924,-23.18
-409.92,983.808,-4.636
-408.7,966.24,-19.276
-425.292,925.98,-42.212
-375.272,954.04,-56.364
-315.736,967.216,-52.46
-274.256,979.66,-33.428
-293.288,970.388,-24.644
-285.48,941.596,-36.112
-300.12,916.22,-49.288
-271.816,924.516,-45.14
-229.848,955.26,-24.888
-194.468,971.364,-14.884
-197.152,980.88,-7.808
-212.524,973.804,-11.956
-223.26,954.528,-19.276
-226.92,957.212,-21.228
-220.576,963.8,-16.348
-205.448,969.9,-19.032
-192.516,966.24,-24.156
-200.324,974.536,-16.104
-179.828,971.608,-19.276
-180.072,975.512,-17.812
-160.308,986.248,-23.668
-143.96,997.228,-20.008
-167.384,996.984,-7.808
-193.736,977.952,1.708
-180.316,961.848,5.368
-168.36,970.876,5.368
-144.204,993.812,3.904
-122.244,994.544,5.612
-112.728,985.516,3.904
-133.712,976.0,10.004
-138.836,977.952,13.176
-142.984,968.924,8.784
-130.052,974.048,10.492
-116.876,977.464,16.348
-101.992,986.98,19.276
-101.992,989.42,7.076
-104.92,989.42,-3.66
-130.052,973.56,-11.712
-140.788,976.488,-8.784
-120.048,995.276,1.708
-99.552,1004.548,0.244
-77.592,1004.304,-6.588
-82.716,986.492,-6.1
-94.916,990.884,12.444
-101.26,985.272,22.204
-102.968,986.98,21.716
-92.476,984.784,15.372
-100.04,977.952,15.128
-106.628,970.144,17.08
-101.748,976.244,16.348
-105.896,985.76,6.1
-106.628,990.152,-1.708
-104.676,990.884,-3.416
-113.216,980.148,-6.588
-114.436,978.684,-6.344
-121.756,976.0,-7.076
-119.316,978.684,-2.44
-115.656,981.612,6.344
-105.408,983.076,6.1
-94.184,979.904,0.244
-87.596,981.368,1.708
-99.552,981.368,7.076
-106.872,983.32,16.104
-111.264,974.292,15.86
-102.48,974.048,13.176
-89.792,976.732,10.248
-85.644,976.732,5.612
-90.524,981.124,10.248
-110.532,978.44,15.128
-113.216,974.536,13.176
-99.552,977.22,13.42
-88.328,987.712,8.54
-95.892,991.86,3.172
-95.648,1001.864,4.148
-88.328,1005.28,11.956
-96.38,1000.4,14.396
-105.164,988.444,10.004
-106.384,979.904,11.712
-100.284,985.272,18.3
-105.408,979.904,19.764
-105.164,977.708,18.056
-101.26,976.732,16.104
-102.724,977.708,12.932
-97.112,989.42,12.2
-86.864,993.568,14.152
-88.816,984.296,12.932
-92.476,975.268,15.128
-107.116,967.704,19.764
-115.412,967.704,14.396
-111.752,968.436,8.296
-116.876,969.412,1.464
-116.144,977.952,2.44
-106.14,985.516,10.492
-90.768,981.612,10.248
-82.716,986.248,9.76
-94.916,988.2,7.32
-103.7,996.984,5.368
-103.456,1000.888,4.636
-92.964,1003.084,9.028
-93.452,995.276,10.98
-96.136,988.2,11.956
-102.48,980.392,12.932
-112.24,988.932,13.908
-114.924,999.18,11.224
-133.224,1005.768,10.98
-150.06,1012.356,10.736
-157.868,1023.336,11.468
-165.676,1054.08,20.252
-194.468,1092.144,27.572
-260.592,1115.568,10.736
-341.356,1136.308,-4.88
-383.324,1180.716,-7.808
-369.172,1214.144,1.952
-344.772,1226.832,6.1
-313.296,1202.676,-8.052
-302.072,1158.024,-5.612
-294.508,1103.124,6.832
-270.352,1062.864,21.96
-252.052,1036.024,3.172
-258.64,1014.552,0.976
-243.024,990.64,12.2
-91.744,969.412,51.728
62.952,967.216,67.588
168.36,971.364,58.072
212.524,903.044,62.952
192.76,814.716,161.772
321.104,710.04,270.596
650.26,619.76,294.02
793.488,465.308,226.188
722.484,463.112,175.68
701.256,445.788,127.368
811.3,315.736,100.284
974.048,114.192,121.024
1027.972,-19.276,192.76
961.36,-152.012,237.656
957.944,-165.676,248.148
1012.844,-181.292,265.96
1019.676,-127.368,267.18
1029.436,-59.78,245.952
996.008,-23.18,232.776
946.964,10.248,227.164
974.536,13.908,224.724
952.576,8.54,223.748
915.732,41.724,242.536
887.672,32.452,251.32
860.344,56.364,272.548
861.076,80.764,254.004
869.86,103.456,223.016
874.008,128.588,179.34
872.056,142.74,133.468
832.772,140.056,106.384
821.06,118.828,104.432
733.464,61.976,132.492
569.74,5.612,151.768
425.78,-27.816,152.256
353.312,-23.912,151.036
298.9,-20.74,155.428
246.928,-8.296,147.864
264.252,-17.324,137.616
353.8,-100.528,56.852
479.46,-154.696,-43.92
609.512,-103.7,-62.708
718.092,-91.256,-81.008
822.036,-190.808,-99.064
982.1,-307.196,-80.52
1146.8,-388.692,-71.248
1251.232,-396.5,-40.26
1307.84,-459.452,-49.044
1467.416,-487.024,-47.092
1663.104,-518.744,-19.52
1816.336,-503.616,-12.444
1887.828,-443.592,-10.492
1927.6,-429.44,-61.732
1988.844,-380.152,-67.1
1999.824,-365.756,-50.996
1999.336,-369.904,-27.816
1996.896,-415.532,-11.224
1949.804,-456.036,18.056
1875.14,-452.132,59.78
1799.744,-469.7,96.868
1729.472,-512.156,145.424
1688.236,-523.624,178.608
1611.62,-528.748,191.052
1485.716,-530.212,196.42
1416.664,-508.496,208.864
1394.704,-499.712,206.912
1356.396,-485.072,200.568
1258.064,-485.072,182.268
1142.164,-456.768,163.968
1047.492,-401.38,156.648
962.58,-385.032,158.356
861.564,-348.432,173.728
752.496,-328.18,153.72
682.712,-223.26,118.34
638.06,-183.488,81.252
579.5,-135.908,68.808
485.316,-97.112,68.808
366.0,-83.936,76.128
231.068,-49.532,86.376
176.9,11.224,78.812
227.164,95.648,43.676
311.1,212.28,20.496
404.552,266.692,-34.892
505.324,308.416,-66.124
539.24,303.292,-73.932
634.4,336.232,-79.788
854.488,323.544,-89.304
984.296,298.412,-75.884
970.876,304.512,-30.988
986.248,302.804,-18.3
1068.476,285.968,-21.228
1164.124,271.084,-33.672
1258.308,229.36,-31.72
1320.284,173.728,-6.832
1327.36,132.492,24.156
1307.108,83.936,64.172
1273.436,19.764,147.62
1252.452,9.028,225.7
1169.248,-58.316,254.492
1150.216,-23.912,196.664
1131.916,126.88,162.504
940.62,178.852,131.516
810.324,245.952,90.036
668.072,298.9,98.332
542.168,350.14,75.884
363.56,508.74,70.028
195.2,646.356,42.944
104.92,694.668,-7.32
53.436,732.732,19.764
-17.324,785.192,53.436
-69.296,882.304,101.016
-287.188,924.516,61.488
-408.944,986.492,-42.456
-450.668,1062.62,-90.768
-484.828,1046.76,-121.024
-613.904,1067.012,-151.768
-658.8,1101.416,-212.036
-641.232,1076.772,-244.0
-599.996,1041.392,-211.304
-588.04,1025.776,-168.848
-572.18,1034.316,-130.54
-496.54,1018.456,-115.168
-400.404,994.544,-111.996
-310.612,973.56,-109.8
-262.056,999.18,-113.948
-215.94,1043.1,-115.168
-203.496,1047.98,-91.012
-166.652,1019.92,-65.392
-154.208,997.228,-38.796
-135.664,987.224,-34.648
-96.868,980.636,-28.304
-75.884,974.292,-24.888
-84.668,965.996,-24.156
-108.58,962.824,-23.18
-91.012,970.144,-25.132
-64.904,976.976,-21.472
-50.752,985.272,-3.904
-79.3,970.144,4.88
-101.26,965.996,-0.976
-96.624,959.652,-9.272
-90.524,969.168,-6.588
-77.836,988.2,-11.468
-55.876,1000.644,-11.712
-24.888,1008.452,-13.176
-13.664,1000.4,-4.636
-23.424,995.276,3.904
-27.816,987.468,7.808
-34.404,979.904,7.076
-47.824,973.316,0.488
-29.768,986.98,-5.368
11.468,1014.308,-7.808
22.692,1016.504,-15.616
4.636,1013.82,-11.468
-10.004,993.08,-4.88
-20.984,992.104,6.588
-22.692,991.616,0.976
-21.96,984.784,-1.708
-20.008,992.104,-3.172
-8.296,987.468,4.88
-8.784,983.32,4.88
-3.172,981.856,-4.392
15.616,990.884,-16.104
8.784,993.568,-28.548
-9.516,990.396,-24.156
-27.572,984.296,-16.592
-20.252,985.028,-19.52
-15.128,992.104,-30.256
-0.732,1001.376,-48.068
10.492,1005.768,-42.944
-4.148,1004.548,-38.064
-14.64,1004.06,-24.888
-15.128,995.52,-12.932
-16.348,996.008,-13.908
0.244,992.348,-14.396
2.928,995.032,-12.688
-13.908,991.616,-14.396
-36.112,976.732,-19.52
-32.94,977.952,-24.4
-18.056,973.804,-30.256
-6.832,986.492,-24.888
16.348,991.372,-26.352
17.812,989.908,-24.644
3.416,988.932,-21.716
-3.172,983.32,-15.128
-10.736,986.248,-10.492
-19.52,985.516,-13.42
-10.492,986.492,-15.128
-3.904,996.74,-11.468
-5.856,993.08,-13.908
-1.22,991.86,-20.008
12.688,993.08,-22.448
14.884,990.396,-22.936
15.372,990.64,-26.596
20.008,990.64,-31.72
8.052,989.664,-29.768
-3.416,984.296,-25.132
-1.708,978.684,-19.032
9.516,976.732,-24.644
23.18,981.856,-21.472
15.128,986.004,-18.788
7.564,989.42,-12.932
17.08,988.688,-12.932
23.424,990.152,-16.592
36.844,998.448,-20.496
41.968,1002.596,-23.912
25.864,996.984,-29.28
11.956,997.96,-26.108
6.1,988.444,-28.548
9.272,984.784,-31.72
10.492,991.372,-28.792
4.148,994.056,-26.352
10.736,1000.644,-20.252
15.128,999.668,-13.42
11.468,993.568,-2.44
18.544,990.152,7.32
18.056,987.224,11.712
22.448,997.96,10.492
20.984,998.204,5.612
14.64,999.424,1.464
5.124,994.3,-3.172
-0.244,991.86,-4.636
1.464,987.468,-9.272
-3.172,988.688,-18.788
9.76,1000.156,-23.912
20.252,1008.208,-21.472
13.908,1006.012,-15.86
9.272,995.764,-8.54
10.004,986.98,-3.416
0.732,976.0,-2.44
-2.44,976.488,-3.66
10.248,989.908,-2.196
27.084,996.984,-2.196
25.62,993.324,-1.708
15.372,987.956,2.196
0.732,980.392,-2.928
3.904,985.76,-13.664
17.08,994.056,-25.864
9.272,997.716,-29.036
7.076,1000.644,-28.792
18.3,993.568,-29.28
27.084,992.104,-27.084
21.472,987.956,-13.42
6.832,983.076,-0.244
9.272,981.612,4.392
9.76,982.832,-1.464
8.296,987.712,-10.98
7.32,989.176,-14.396
8.54,994.544,-13.908
8.54,990.884,-11.468
11.224,994.3,-6.344
5.856,996.252,-6.588
-2.44,1003.084,-10.98
-9.272,1015.528,-17.08
-22.448,1034.316,-8.54
-29.28,1060.18,9.028
-30.012,1070.916,23.912
-30.988,1074.576,35.868
-43.432,1079.944,48.556
-76.86,1089.948,58.804
-119.56,1100.928,56.852
-166.164,1109.956,44.652
-218.38,1135.088,19.52
-186.416,1167.052,-8.784
-78.568,1193.648,-8.296
-26.84,1195.112,12.2
-47.824,1162.416,39.04
-64.66,1122.4,63.196
-94.916,1063.352,79.544
-86.376,1039.196,97.356
-11.468,1037.732,106.384
122.0,1074.088,95.892
98.82,1074.82,83.204
39.284,1074.82,96.136
11.712,1024.312,115.412
111.752,964.532,149.084
228.384,933.544,151.524
276.208,923.052,159.82
232.776,835.212,180.56
125.416,735.416,156.16
230.824,692.228,190.076
390.644,575.596,174.46
643.428,404.552,106.384
648.308,310.856,104.188
469.212,307.928,146.644
561.444,187.148,82.96
956.236,36.356,65.636
1188.28,-26.596,79.544
1146.8,-5.612,76.86
1071.892,30.5,78.568
1101.66,25.864,105.896
1127.28,24.4,117.852
1096.292,64.416,98.088
1133.136,100.284,95.16
1118.252,87.84,89.304
1020.164,111.508,90.768
1023.58,119.316,89.304
1104.832,83.692,77.836
1124.352,81.74,82.472
1067.744,95.648,101.504
1055.544,87.596,92.232
1088.24,97.6,61.0
1094.096,122.488,43.188
1042.124,146.156,42.944
945.744,139.812,35.624
901.824,151.524,43.676
890.6,138.592,48.312
857.904,124.684,61.976
766.404,122.244,89.06
636.352,65.88,115.656
470.676,-32.94,148.352
350.628,-63.44,192.76
219.356,-67.1,212.036
94.428,-74.176,224.48
30.744,-64.66,191.296
97.112,-63.44,102.724
249.368,-99.308,-18.3
438.712,-126.88,-87.84
598.044,-196.908,-109.312
736.636,-271.084,-146.156
906.46,-351.36,-215.94
1014.064,-387.472,-211.06
1159.732,-421.632,-171.776
1314.428,-537.532,-187.636
1507.92,-594.872,-211.548
1596.004,-587.308,-217.648
1659.444,-549.0,-253.272
1752.164,-545.584,-353.8
1877.824,-478.972,-390.644
1953.952,-454.816,-378.688
1979.816,-478.484,-334.28
1945.168,-474.092,-311.588
1904.908,-454.572,-309.148
1900.028,-438.712,-325.984
1898.32,-446.276,-292.556
1864.404,-484.828,-205.448
1816.336,-519.72,-96.868
1755.092,-594.872,8.54
1701.412,-639.524,99.064
1679.452,-628.544,142.74
1632.116,-632.448,158.844
1541.104,-605.852,178.852
1454.24,-606.584,185.196
1365.18,-595.848,173.484
1258.064,-578.524,155.184
1145.824,-529.724,165.92
1038.22,-459.452,176.9
915.488,-428.464,172.752
789.584,-359.9,159.82
667.828,-277.428,145.18
579.5,-193.492,107.604
510.936,-121.512,73.932
426.024,-77.104,63.684
336.964,0.0,45.384
300.608,35.624,18.3
270.84,83.692,25.376
249.612,131.028,-20.252
248.392,207.4,-78.812
286.944,248.88,-84.18
383.812,271.328,-91.012
465.308,302.56,-117.364
536.312,283.284,-138.836
636.84,300.12,-113.704
759.572,298.656,-103.212
902.8,326.228,-90.768
1039.44,303.292,-84.912
1138.016,268.644,-72.712
1168.516,264.74,-17.08
1243.668,245.464,13.42
1289.784,207.644,26.352
1271.972,178.12,34.16
1224.392,183.0,58.072
1156.56,166.408,84.912
1148.02,143.228,80.032
1157.292,180.316,91.256
1118.74,196.664,102.48
1033.34,195.2,107.116
1061.644,187.392,36.6
1005.524,286.7,-36.6
667.828,400.892,-51.972
505.812,569.984,-66.856
394.304,644.648,-33.428
300.608,676.612,-19.52
203.984,721.508,-7.808
81.008,850.096,51.484
-84.18,891.82,85.644
-166.652,917.928,44.896
-308.172,933.056,4.88
-338.184,1022.116,-14.884
-401.136,1084.824,25.62
-430.904,1107.272,10.98
-457.744,1118.984,-15.372
-455.792,1154.852,-40.992
-441.396,1196.82,-45.384
-411.14,1209.508,-67.344
-337.696,1201.212,-66.856
-311.344,1148.996,-59.78
-316.468,1076.772,-69.784
-328.18,1043.344,-88.084
-297.924,1026.508,-88.816
-230.824,993.08,-101.504
-130.296,987.468,-115.9
-87.596,1007.964,-92.72
-119.804,1002.596,-63.684
-121.024,962.824,-41.968
-96.38,925.736,-35.624
-54.656,913.78,-37.576
4.148,936.228,-48.068
9.76,975.268,-42.456
-32.696,1015.772,-27.084
-46.848,1010.16,-20.74
-49.532,991.372,-18.544
-20.984,991.616,-26.352
-7.32,1004.06,-40.504
-32.208,1014.552,-47.824
-63.684,1008.452,-44.652
-81.252,999.18,-39.528
-71.004,991.616,-38.796
-59.048,981.368,-43.676
-50.996,978.196,-40.504
-66.124,974.048,-32.94
-87.108,972.584,-25.62
-83.448,957.944,-32.452
-64.904,963.068,-33.428
-47.58,985.028,-22.936
-23.424,997.96,-15.86
-21.472,995.276,-19.764
-42.212,991.128,-21.472
-58.072,987.956,-25.132
-62.708,971.852,-28.06
-60.512,980.392,-18.544
-58.804,981.368,-19.276
-47.336,976.732,-26.108
-40.992,975.756,-32.452
-45.384,970.876,-32.208
-41.48,978.44,-31.476
-54.9,974.048,-36.844
-27.816,992.836,-48.312
-11.712,998.936,-56.364
-33.672,1004.792,-60.756
-49.532,1004.792,-53.436
-40.26,1001.376,-49.532
-40.992,987.468,-49.288
-33.916,987.224,-41.48
-16.592,993.812,-32.94
-18.056,996.984,-28.548
-30.012,990.152,-28.06
-23.424,989.176,-24.4
-28.06,976.976,-24.888
-26.84,984.54,-19.764
-22.936,993.812,-16.592
-33.672,990.396,-19.764
-32.94,986.248,-25.132
-30.5,980.636,-25.62
-30.744,988.2,-32.94
-14.884,996.252,-36.112
-11.956,1005.036,-33.184
-31.476,1006.988,-32.94
-37.82,1001.376,-26.596
-34.16,992.348,-30.012
-20.008,988.688,-31.476
-13.908,989.42,-30.012
-28.06,986.248,-30.256
-42.7,986.98,-23.912
-45.384,991.86,-18.056
-31.232,989.176,-17.812
-33.916,984.784,-15.616
-47.092,977.952,-17.08
-43.432,976.488,-21.472
-39.04,981.612,-26.352
-27.328,988.444,-29.28
-21.96,991.128,-26.352
-27.084,989.908,-21.716
-31.232,984.54,-18.056
-29.036,984.784,-16.592
-25.132,987.956,-14.152
-32.452,988.2,-12.444
-41.236,984.052,-14.396
-43.92,980.636,-15.128
-44.164,985.76,-13.42
-43.676,986.98,-16.592
-35.38,993.08,-16.836
-25.376,995.032,-18.788
-28.06,997.716,-18.788
-40.748,999.424,-17.812
-47.824,998.204,-17.08
-43.432,996.74,-17.324
-38.064,993.324,-18.544
-37.576,996.496,-19.032
-35.38,999.912,-18.544
-30.012,1006.988,-14.396
-30.5,1008.452,-10.004
-38.308,1002.596,-9.516
-33.916,1002.84,-9.516
-31.232,998.692,-14.152
-33.916,1002.108,-14.884
-31.232,1002.596,-17.08
-23.668,1002.84,-14.884
-22.692,991.128,-20.008
-27.572,982.344,-21.472
-40.016,978.196,-19.52
-47.336,977.464,-15.86
-44.652,983.564,-11.224
-30.012,987.712,-10.98
-34.404,981.612,-18.3
-45.14,983.808,-16.836
-58.56,986.492,-10.492
-67.1,995.032,-9.516
-79.788,1004.06,-14.152
-107.116,1023.824,-7.564
-136.152,1058.716,9.272
-153.232,1090.68,26.596
-171.776,1111.908,40.504
-225.7,1120.204,33.184
-270.352,1137.528,45.872
-243.512,1145.58,48.8
-257.664,1155.34,33.184
-321.348,1155.828,12.2
-381.86,1124.108,-1.952
-419.68,1099.708,-33.672
-375.272,1107.516,-51.24
-362.584,1085.068,-47.092
-401.38,1072.136,-38.064
-436.516,1032.852,-24.888
-472.628,995.52,7.32
-430.66,942.328,3.904
-340.868,912.56,-19.52
-307.44,932.08,-29.28
-291.336,905.972,-51.484
-256.2,823.012,-20.74
-207.4,782.996,70.272
4.392,721.508,87.596
248.148,715.652,102.48
321.836,675.88,95.648
298.9,526.064,109.8
441.884,387.96,153.964
656.604,267.668,181.292
815.936,237.168,148.108
935.984,217.16,116.144
1013.088,133.468,39.772
1075.064,130.052,19.032
1161.928,138.104,9.272
1148.508,120.78,64.66
1092.632,83.448,106.628
1138.748,45.628,120.78
1187.792,61.732,167.14
1157.536,81.984,200.08
1148.508,69.784,226.432
1153.144,65.392,235.704
1134.844,51.24,217.16
1093.12,72.224,179.34
1071.16,103.7,166.164
1041.88,146.4,160.064
996.984,154.208,142.74
965.02,146.644,100.528
928.42,164.7,69.052
872.788,142.008,49.532
772.992,113.46,56.608
658.312,70.028,70.272
550.708,56.608,98.576
471.896,18.056,110.532
412.848,17.324,101.016
380.64,38.064,57.096
391.376,27.328,-26.596
431.392,48.556,-78.324
497.76,18.056,-122.0
545.096,-1.464,-117.364
571.936,-75.396,-129.076
677.1,-110.532,-120.536
842.044,-116.876,-105.408
967.704,-182.512,-113.216
1069.208,-229.604,-101.26
1173.396,-275.476,-133.224
1299.3,-227.896,-135.176
1472.052,-202.764,-154.94
1606.984,-189.344,-214.476
1705.072,-147.864,-274.5
1759.728,-113.948,-272.792
1730.204,-134.688,-214.964
1727.032,-180.804,-187.88
1789.252,-192.272,-161.772
1853.912,-199.836,-128.1
1860.012,-226.92,-55.144
1842.2,-270.108,-7.564
1863.916,-284.748,65.392
1932.724,-312.076,139.812
1957.124,-349.896,201.3
1905.396,-370.392,239.608
1825.364,-360.388,269.376
1725.08,-357.46,292.556
1572.824,-377.468,301.096
1450.58,-372.832,289.872
1388.848,-337.94,285.724
1301.008,-356.24,270.596
1149.24,-330.132,276.208
1004.548,-336.72,240.828
855.22,-326.472,200.812
683.932,-251.564,180.56
575.84,-162.016,135.664
457.012,-109.312,64.172
383.08,-8.296,5.612
300.364,33.428,-1.22
200.568,87.84,17.568
145.668,172.752,27.816
210.084,190.808,-6.588
289.14,211.06,-56.364
413.092,228.872,-33.672
546.316,225.7,-43.188
763.964,240.584,-70.028
900.604,252.54,-88.328
944.036,291.336,-104.92
1003.816,292.068,-70.516
1146.8,230.824,-3.66
1289.052,172.264,85.888
1341.268,118.34,190.32
1360.056,51.972,234.24
1341.756,22.204,223.504
1279.536,94.184,188.612
1081.652,154.452,203.008
900.36,206.424,186.66
815.204,313.54,133.956
728.584,416.752,56.364
489.22,504.592,7.808
188.856,611.708,9.028
64.66,683.932,20.008
46.848,780.556,50.264
0.244,821.304,32.452
-117.608,877.668,54.168
-158.844,980.636,87.84
-181.048,952.332,70.516
-276.452,948.184,71.736
-476.532,1009.916,61.732
-685.396,1039.928,56.364
-730.536,1060.424,28.06
-721.508,1045.784,11.224
-700.28,1071.648,11.956
-676.368,1059.204,-2.928
-619.028,1065.06,1.708
-544.852,1018.212,-6.344
-506.788,964.776,-6.588
-477.996,931.104,-12.2
-401.38,939.4,-30.256
-320.86,937.692,-62.464
-267.18,922.564,-79.544
-258.64,907.436,-81.984
-264.984,918.66,-63.196
-264.008,962.336,-31.476
-246.684,985.76,-29.036
-224.236,972.096,-49.776
-212.524,953.796,-60.268
-206.424,947.696,-50.508
-210.816,952.576,-31.476
-211.548,962.092,-20.252
-248.88,946.72,-32.94
-258.152,934.032,-40.748
-240.34,929.152,-46.116
-221.064,965.508,-50.996
-233.508,984.784,-57.096
-255.712,974.78,-51.972
-217.648,974.292,-50.752
-222.772,966.728,-37.82
-228.384,967.948,-23.668
-236.192,962.824,-11.224
-197.64,964.776,-15.128
-185.928,962.092,-13.42
-185.928,976.976,-7.076
-173.24,981.124,-13.42
-156.16,981.856,-24.644
-148.84,975.512,-34.648
-152.012,979.416,-22.448
-168.36,967.216,-14.396
-179.34,951.356,-26.108
-181.292,947.94,-34.16
-172.264,962.092,-38.064
-158.6,971.608,-36.356
-153.964,965.264,-34.648
-167.628,964.532,-33.184
-178.12,967.948,-32.94
-163.48,967.46,-37.332
-136.64,981.368,-36.112
-141.52,992.836,-30.5
-159.088,992.104,-26.352
-184.464,973.56,-33.428
-177.388,964.532,-45.14
-170.068,968.924,-44.652
-165.92,972.096,-37.82
-174.948,965.996,-27.572
-187.392,950.38,-26.596
-198.372,936.716,-32.452
-193.248,938.18,-32.696
-186.416,948.428,-30.5
-171.044,970.876,-27.572
-161.284,976.488,-30.256
-150.792,981.612,-37.088
-156.16,976.488,-42.7
-162.016,974.292,-44.652
-158.356,973.072,-46.604
-140.788,986.492,-47.58
-146.156,984.296,-48.556
-139.08,991.128,-43.92
-144.204,976.976,-40.016
-164.7,968.436,-35.136
-174.46,963.556,-22.936
-162.992,962.58,-17.08
-152.988,967.46,-16.104
-147.376,983.808,-11.468
-144.204,985.272,-16.836
-144.692,978.684,-19.764
-142.008,982.832,-27.084
-148.596,985.516,-30.744
-146.156,992.104,-35.38
-142.74,983.564,-35.624
-140.056,971.852,-31.72
-150.548,959.164,-23.424
-166.896,960.872,-19.032
-165.432,971.364,-13.176
-147.132,977.708,-13.42
-124.44,980.88,-10.492
-108.092,980.636,-11.956
-104.92,975.756,-9.516
-98.332,971.852,-11.712
-109.068,971.364,-7.564
-124.44,965.996,-0.976
-140.056,964.044,2.928
-155.672,956.48,2.196
-152.256,962.58,-2.44
-137.128,977.22,-13.176
-129.076,996.74,-14.396
-131.272,1007.964,-20.496
-141.764,1003.328,-22.204
-153.72,989.42,-26.108
-158.844,982.588,-28.06
-146.4,990.884,-28.548
-145.912,991.616,-32.452
-154.94,987.712,-33.672
-170.312,975.756,-29.036
-167.384,973.56,-22.204
-152.012,976.244,-20.252
-128.832,987.224,-10.248
-131.76,983.564,-4.88
-133.468,977.464,2.928
-129.808,976.732,7.808
-129.32,974.536,5.124
-137.128,969.9,2.684
-151.28,965.752,2.44
-152.744,968.192,0.732
-158.6,967.704,-1.708
-163.724,974.048,-4.148
-172.752,981.612,-0.732
-157.868,983.32,-3.66
-117.852,998.936,4.148
-119.804,1004.06,9.516
-136.396,1003.572,22.448
-149.572,986.736,34.648
-152.256,970.388,36.6
-157.38,967.46,31.232
-151.036,974.292,24.4
-145.668,988.444,22.204
-129.808,995.032,18.3
-124.196,988.688,7.32
-128.1,981.612,-7.076
-138.348,979.66,-10.004
-149.328,981.124,-6.1
-158.112,975.512,-3.172
-147.62,973.072,-2.44
-146.644,967.948,-5.856
-152.256,965.264,-4.148
-150.304,960.628,-2.196
-142.008,960.384,-4.88
-134.444,967.216,-0.976
-138.348,968.924,-2.684
-144.692,973.56,-0.488
-143.716,978.684,-0.732
-142.74,978.684,-7.076
-148.108,976.0,-16.104
-165.188,981.368,-20.984
-187.392,1008.696,-3.66
-200.08,1020.408,8.54
-214.72,1025.532,17.568
-236.924,1032.608,26.352
-254.248,1045.54,44.408
-262.788,1047.004,54.168
-288.896,1045.54,49.288
-312.564,1042.368,30.012
-295.484,1047.98,11.956
-266.204,1052.372,5.856
-236.924,1082.384,9.76
-252.54,1095.56,34.16
-305.488,1083.116,27.572
-348.432,1098.244,31.476
-382.836,1133.38,31.964
-384.788,1142.652,24.156
-405.284,1140.212,12.444
-459.94,1091.9,34.16
-502.152,1032.852,71.248
-501.908,982.832,100.528
-421.632,956.236,110.532
-295.972,932.324,70.028
-153.72,913.048,48.068
-73.2,824.232,39.772
7.32,743.956,59.78
184.952,645.868,74.176
329.888,538.996,58.072
518.012,430.416,11.712
716.14,344.528,17.324
782.752,228.384,18.788
821.06,75.884,22.692
876.204,104.92,120.048
908.656,67.344,210.084
969.9,2.928,211.304
1087.264,83.448,127.612
1147.776,168.848,94.916
1187.548,142.252,99.064
1221.708,139.08,115.412
1251.232,198.372,143.716
1194.868,178.852,168.604
1116.544,167.872,175.68
1107.76,139.324,177.144
1095.804,170.8,199.592
1085.068,171.288,183.976
1039.684,170.312,154.94
993.08,189.1,131.76
986.98,217.648,132.98
978.44,219.844,142.74
889.624,187.88,115.9
803.004,188.612,106.14
774.7,168.36,115.168
695.644,128.832,145.18
514.352,77.836,160.308
322.568,60.268,131.76
255.956,58.316,109.312
242.292,33.428,78.812
214.72,49.288,11.712
219.844,-6.1,-61.0
348.188,-9.272,-84.668
486.292,-67.344,-79.3
602.192,-142.252,-127.856
814.472,-148.352,-165.92
1069.696,-182.268,-198.372
1206.58,-254.004,-212.036
1277.584,-254.248,-169.092
1389.58,-300.852,-161.772
1528.416,-335.744,-166.896
1591.368,-362.096,-166.896
1676.036,-301.096,-148.596
1766.072,-300.852,-166.164
1857.816,-306.22,-209.84
1889.536,-275.476,-207.4
1815.36,-250.344,-163.968
1803.648,-228.628,-161.284
1860.012,-215.696,-165.92
1906.86,-228.14,-137.372
1889.048,-282.064,-91.012
1842.932,-301.584,11.712
1830.488,-369.416,93.696
1843.664,-396.744,162.016
1863.428,-425.536,201.788
1796.084,-437.248,221.552
1693.848,-412.116,240.34
1600.64,-428.952,218.38
1437.648,-447.984,200.324
1262.212,-437.492,156.404
1137.284,-406.992,120.78
966.24,-357.216,98.332
791.292,-291.58,90.768
578.524,-235.216,95.892
382.104,-197.884,66.368
238.632,-140.056,19.276
203.252,-27.084,11.712
220.088,35.624,5.124
194.956,104.432,-10.004
214.72,183.488,-44.896
311.588,243.512,-82.228
379.664,276.94,-98.088
512.888,325.74,-92.476
726.388,309.636,-99.064
879.864,298.412,-95.648
932.812,298.656,-70.76
1015.284,320.128,-23.424
1146.312,260.836,49.532
1293.932,189.588,70.76
1356.152,202.276,83.204
1382.016,271.084,102.236
1301.008,169.58,120.78
1176.812,53.436,175.68
1084.824,203.008,188.856
877.424,216.428,166.652
568.764,228.14,116.388
369.66,236.436,109.068
305.976,400.404,73.688
173.24,608.78,58.56
-5.856,700.768,-30.744
-232.044,773.968,-18.788
-538.752,859.612,60.756
-544.852,940.132,106.14
-501.908,971.12,91.988
-520.208,1056.276,14.64
-560.224,1102.88,3.66
-713.7,1069.696,-15.86
-719.8,1123.864,-40.992
-664.9,1182.668,-93.208
-583.16,1148.752,-159.576
-568.52,1037.0,-101.26
-599.02,981.612,-8.54
-640.988,934.032,27.084
-546.56,911.584,20.984
-443.836,893.528,40.748
-398.94,926.224,62.464
-389.668,984.784,49.288
-391.376,1004.548,0.732
-370.148,989.664,-17.08
-321.104,932.812,12.932
-295.728,890.844,59.292
-296.704,883.524,64.416
-298.168,887.428,50.02
-298.9,892.308,33.916
-310.368,915.244,46.848
-305.244,937.692,42.7
-300.364,937.204,29.768
-294.264,938.424,21.96
-308.66,935.74,15.372
-304.756,945.012,13.908
-308.416,926.956,6.588
-320.372,933.3,9.76
-316.224,938.912,12.688
-318.176,935.252,15.86
-298.168,941.352,6.832
-304.756,919.148,5.856
-319.396,916.464,13.42
-290.848,936.96,18.3
-284.504,936.716,15.128
-301.34,948.184,16.592
-307.928,944.768,21.472
-292.556,933.3,7.564
-288.408,936.96,3.416
-306.22,925.98,10.004
-306.952,917.196,5.856
-289.14,907.924,3.904
-300.364,917.684,7.076
-304.512,931.104,17.324
-304.024,925.736,29.28
-289.872,931.348,26.108
-274.256,949.16,26.84
-286.212,954.284,20.008
-292.556,951.356,11.956
-293.776,949.16,4.392
-309.88,945.012,4.636
-305.488,939.156,9.516
-285.48,937.448,11.712
-284.504,932.08,8.296
-297.924,929.396,10.248
-305.488,920.612,6.588
-310.124,917.928,-3.66
-288.408,943.792,-12.932
-277.916,961.36,-10.248
-278.404,965.264,-1.464
-290.848,956.236,9.272
-298.412,941.84,2.928
-297.436,935.008,2.684
-293.044,943.548,1.708
-277.184,956.236,0.488
-268.4,960.14,-3.904
-269.132,960.384,-8.784
-287.432,955.016,-7.32
-300.608,944.036,-8.052
-291.336,942.572,-7.564
-285.48,944.524,-5.612
-280.6,948.672,-4.148
-289.872,941.84,-2.928
-287.188,933.788,2.44
-274.988,934.276,14.152
-278.892,938.668,18.056
-288.652,932.08,19.764
-288.896,925.492,22.692
-280.112,936.716,32.452
-285.724,940.864,37.332
-287.432,932.324,38.308
-287.188,924.272,35.136
-286.7,924.516,26.108
-276.94,940.132,16.836
-275.232,955.748,11.712
-281.332,960.628,16.348
-288.408,957.7,20.008
-280.6,954.528,17.812
-275.72,952.088,13.664
-287.92,946.476,14.396
-297.436,948.916,22.448
-293.288,954.528,27.084
-282.064,950.38,26.108
-265.716,948.184,23.912
-273.28,942.572,30.744
-292.312,946.232,37.088
-297.68,951.112,33.184
-278.404,955.26,24.156
-284.504,953.308,21.472
-284.748,972.096,24.4
-290.604,988.2,18.544
-304.512,988.932,16.592
-327.936,983.076,14.884
-333.304,967.216,14.152
-328.18,949.16,11.468
-330.132,939.644,15.86
-329.644,937.692,12.444
-319.152,942.328,8.052
-297.192,966.24,7.564
-289.872,967.704,19.276
-320.128,971.608,39.284
-369.66,962.824,50.02
-399.428,965.264,42.7
-452.132,999.18,38.552
-497.76,1113.616,56.364
-551.684,1208.044,71.736
-589.748,1210.24,64.172
-666.608,1155.828,88.572
-744.932,1080.188,125.172
-759.084,1037.976,123.952
-726.144,1023.824,90.28
-628.056,1034.56,79.3
-550.22,1021.872,77.104
-431.148,1006.5,96.868
-345.992,963.556,124.684
-382.104,847.656,110.532
-393.328,764.94,100.04
-206.668,695.888,73.932
109.068,623.42,25.132
313.784,598.288,7.564
271.084,554.612,63.684
316.224,441.152,109.8
558.76,412.116,139.812
734.928,409.92,115.412
654.896,337.696,48.312
534.604,249.856,-18.3
615.612,189.1,-28.792
791.536,118.584,37.088
808.372,20.496,101.016
828.38,11.956,112.972
894.992,-30.988,31.72
968.924,31.72,49.288
970.144,60.512,62.708
1066.036,49.288,23.912
1114.592,114.436,37.82
1115.812,77.592,46.116
1135.088,21.228,56.12
1239.52,109.068,124.44
1334.924,100.528,197.64
1373.232,88.328,238.876
1360.3,105.164,232.288
1292.712,116.388,190.076
1186.328,134.444,104.92
1132.404,174.216,46.604
1111.664,187.88,29.524
1079.7,191.54,30.012
1022.116,190.564,22.936
962.092,173.484,10.492
909.144,166.408,14.152
870.104,157.38,43.188
806.176,111.02,75.396
683.444,66.856,94.916
529.968,48.068,123.952
391.376,10.98,117.608
323.544,-12.2,74.42
378.444,1.464,36.6
400.16,-0.244,32.94
388.936,-18.788,20.984
393.572,-88.572,-38.308
514.84,-93.696,-62.464
673.684,-89.792,-57.34
777.384,-104.676,-54.168
898.408,-157.38,-74.908
1068.476,-198.86,-98.576
1196.82,-191.052,-156.892
1284.172,-152.256,-190.076
1455.704,-192.76,-249.124
1668.472,-212.28,-289.384
1731.18,-205.448,-280.844
1687.26,-183.732,-222.528
1707.756,-221.064,-178.364
1768.024,-240.828,-201.544
1865.136,-192.028,-237.9
1870.992,-181.536,-206.668
1822.192,-208.132,-132.98
1812.92,-267.668,-80.276
1815.848,-306.22,-15.128
1793.156,-336.476,81.496
1769.244,-361.12,162.016
1754.116,-369.66,229.36
1710.196,-381.86,257.664
1616.988,-378.688,262.544
1491.328,-366.0,252.784
1403.488,-330.62,244.488
1345.66,-320.616,231.556
1292.956,-309.636,208.864
1223.904,-276.696,177.144
1103.612,-256.444,168.848
996.496,-237.168,145.912
891.088,-224.236,105.652
766.16,-193.492,71.98
658.068,-120.048,66.368
557.052,-70.76,47.336
447.984,-13.908,18.056
400.648,81.496,-3.904
385.764,148.352,-45.872
375.028,206.424,-69.052
386.496,269.376,-68.076
424.804,302.316,-83.204
469.456,342.332,-96.624
563.152,375.76,-119.56
610.976,401.38,-93.94
622.2,391.864,-71.98
650.26,394.06,-81.252
696.376,415.044,-88.084
717.604,434.32,-93.94
760.06,442.616,-95.404
826.428,437.004,-104.432
879.864,428.708,-112.972
882.548,412.604,-107.116
913.78,397.232,-79.544
959.896,393.084,-66.368
1009.184,412.848,-62.952
1033.584,417.728,-70.76
1029.68,413.824,-62.952
1056.52,403.82,-44.896
1191.452,345.26,20.984
1379.088,290.116,97.356
1556.232,255.224,149.816
1609.912,211.792,152.744
1564.772,221.552,152.5
1538.176,156.648,184.708
1444.968,96.136,188.612
1246.84,101.504,206.18
852.78,118.584,212.768
512.888,149.816,134.688
279.136,213.5,79.788
233.752,327.448,11.712
156.16,440.664,37.332
28.06,498.248,30.256
-114.192,644.404,1.22
-326.716,769.332,-9.028
-416.264,830.576,-23.18
-520.696,834.236,-12.688
-599.264,892.308,-30.256
-697.352,953.552,-21.472
-793.976,966.484,-25.132
-777.628,981.124,-49.044
-763.964,1017.724,-74.42
-696.376,1090.924,-94.672
-622.688,1094.584,-103.944
-591.456,1058.472,-92.72
-552.416,1019.92,-45.628
-498.248,998.692,-26.108
-458.232,975.512,-47.824
-414.068,971.852,-90.036
-372.588,964.288,-96.868
-370.88,924.028,-79.788
-397.964,880.108,-50.752
-410.408,897.676,-17.812
-404.308,908.656,-17.324
-356.24,904.996,-52.216
-312.808,887.184,-82.472
-276.208,910.364,-77.348
-302.56,945.744,-72.468
-324.276,955.504,-75.64
-350.872,931.348,-83.692
-377.468,888.648,-91.5
-374.784,864.492,-80.52
-343.552,865.712,-62.708
-308.904,884.012,-55.144
-269.376,913.536,-54.412
-209.84,957.456,-53.924
-186.416,994.544,-65.392
-222.528,1006.5,-61.244
-274.256,1001.132,-44.408
-316.468,983.808,-42.212
-312.32,982.588,-49.532
-283.772,974.78,-57.828
-249.856,978.44,-70.028
-268.644,945.012,-68.076
-318.664,917.928,-71.004
-338.428,904.02,-63.196
-322.568,907.436,-58.316
-291.092,918.66,-58.56
-267.912,924.028,-65.148
-271.084,921.832,-68.32
-279.136,933.056,-63.684
-272.06,939.4,-63.44
-269.132,947.208,-60.756
-273.036,948.428,-57.34
-271.572,943.304,-52.704
-266.204,942.816,-45.628
-277.428,945.256,-34.404
-283.04,943.792,-33.672
-278.648,935.252,-47.58
-276.208,931.104,-58.072
-285.48,930.372,-57.096
-297.192,923.784,-62.708
-287.188,934.52,-74.664
-293.288,937.204,-82.228
-299.876,940.376,-83.204
-287.432,943.548,-77.592
-268.644,939.156,-80.276
-262.788,944.28,-86.376
-274.256,946.964,-83.204
-278.16,945.988,-69.296
-281.088,937.692,-60.268
-281.82,926.712,-60.512
-281.576,920.856,-61.732
-245.708,952.332,-65.148
-245.464,961.36,-71.492
-253.76,968.68,-61.976
-272.548,959.896,-55.144
-270.108,947.696,-58.56
-268.156,952.332,-64.904
-269.62,957.212,-68.808
-276.94,950.868,-71.492
-270.352,954.528,-68.32
-265.716,951.356,-61.976
-264.74,957.7,-58.56
-267.912,954.772,-64.416
-263.276,950.136,-76.128
-259.86,958.92,-74.908
-268.4,960.872,-69.052
-279.136,953.308,-64.904
-279.136,938.424,-66.368
-277.184,933.788,-65.636
-276.452,937.692,-66.856
-270.596,944.768,-69.052
-266.448,938.18,-72.224
-272.06,934.276,-74.664
-275.72,934.764,-78.568
-264.496,937.692,-87.84
-258.396,935.008,-92.72
-267.424,937.936,-85.644
-273.28,940.376,-71.248
-260.348,934.52,-61.976
-253.272,931.592,-64.416
-264.74,938.18,-61.488
-274.012,951.844,-49.776
-286.7,961.848,-39.528
-295.972,973.804,-35.868
-298.9,983.564,-43.432
-300.364,1003.084,-51.972
-334.036,1045.296,-43.432
-379.664,1118.008,-9.76
-408.456,1164.124,4.148
-464.088,1186.572,10.736
-554.368,1245.132,35.624
-640.744,1290.028,23.668
-638.06,1319.308,-19.032
-651.48,1319.552,-62.708
-651.236,1295.884,-74.664
-602.68,1241.472,-34.404
-471.652,1155.34,-6.588
-305.244,1068.964,22.936
-177.876,1015.772,77.348
-122.488,950.624,112.24
-132.004,866.2,151.28
-88.084,866.444,191.296
78.324,837.652,157.38
246.684,790.804,113.704
286.212,798.124,107.36
196.664,710.284,74.176
177.632,535.336,-25.376
363.316,396.744,-76.86
685.884,176.9,-81.984
737.856,86.864,-16.348
764.696,29.768,24.4
863.028,-179.584,71.736
911.096,-315.736,65.88
999.668,-253.76,79.3
1125.572,-102.724,126.148
1191.208,23.18,177.388
1204.384,84.668,171.776
1127.524,155.672,134.932
1066.524,212.28,103.212
1029.192,241.316,82.716
994.788,232.044,91.256
918.66,264.74,137.372
835.944,284.016,166.896
813.984,283.284,138.104
823.5,295.24,83.692
817.4,286.944,40.992
731.756,262.3,21.472
584.38,204.228,36.844
403.576,127.124,65.88
204.96,117.608,147.62
109.8,145.18,180.804
76.616,123.22,133.468
74.176,83.204,36.844
159.088,93.208,-8.296
251.808,23.912,-32.452
413.824,-86.376,-110.044
698.572,-151.28,-219.112
961.36,-209.352,-343.796
1178.52,-150.06,-345.992
1321.504,-157.868,-335.012
1387.872,-301.34,-382.104
1500.112,-308.904,-375.272
1725.812,-318.42,-315.248
1931.504,-345.26,-315.492
2045.452,-305.0,-362.34
2121.58,-231.312,-380.396
2179.408,-192.028,-321.592
2234.308,-223.016,-206.18
2279.204,-257.664,-122.488
2249.192,-269.62,-28.304
2196.732,-337.208,67.344
2131.584,-353.556,145.18
2056.676,-395.28,223.992
1939.556,-433.832,292.556
1804.136,-439.688,315.248
1687.016,-409.432,290.848
1567.7,-403.576,266.936
1441.552,-404.064,274.988
1283.196,-407.724,285.968
1143.384,-389.912,272.06
1027.972,-347.212,240.584
908.412,-293.288,206.912
739.32,-251.32,179.584
597.8,-199.104,140.056
494.344,-123.952,113.46
415.044,-49.532,119.804
345.26,21.228,139.324
285.236,57.828,108.092
239.852,150.304,49.776
234.972,214.72,-40.504
252.54,251.808,-61.732
334.28,269.132,-52.704
419.192,276.452,-56.852
465.796,284.26,-45.628
534.36,289.384,-28.304
609.512,310.856,-29.768
740.052,340.38,-49.288
849.852,349.164,-92.476
929.152,372.588,-114.924
983.32,376.98,-131.028
1029.924,369.172,-91.988
1096.292,362.828,-27.816
1166.564,298.412,15.86
1189.012,243.268,49.532
1142.896,233.508,83.448
1125.328,220.82,123.464
1246.84,183.0,125.416
1403.244,89.06,79.056
1439.112,93.452,107.36
1155.34,97.6,245.708
934.276,132.98,283.772
834.236,249.612,326.228
743.712,404.796,252.052
593.896,577.06,102.48
515.572,684.176,50.508
406.26,703.696,42.212
238.632,683.688,13.42
24.888,780.8,-5.856
-56.12,855.708,-46.848
-136.884,844.728,-77.348
-196.176,872.056,-53.68
-274.744,910.12,-20.252
-427.488,921.1,14.396
-469.456,916.22,-6.344
-396.988,963.068,-9.272
-438.712,965.996,-62.952
-609.024,975.512,-79.544
-719.556,1008.452,-134.932
-704.184,1051.152,-169.824
-718.092,1114.104,-211.792
-686.372,1130.452,-204.472
-624.884,1082.14,-185.684
-558.028,1007.232,-140.3
-491.172,962.58,-64.172
-457.256,930.128,-17.324
-382.836,948.184,11.956
-274.744,988.444,37.82
-189.344,1018.212,45.872
-134.688,1026.752,39.772
-132.248,1050.176,43.432
-139.568,1039.44,31.232
-143.472,1015.528,24.156
-151.28,987.224,8.784
-172.996,965.752,1.22
-194.224,966.972,-3.904
-191.296,979.416,4.636
-177.388,981.856,8.052
-175.924,976.488,-0.732
-208.864,969.412,-13.42
-211.792,984.052,-24.4
-226.188,966.728,-24.4
-243.268,942.572,-28.548
-229.604,932.324,-30.988
-203.74,936.472,-38.308
-199.836,962.336,-36.112
-202.52,984.784,-26.596
-198.86,975.512,-20.496
-201.788,952.088,-15.128
-201.788,942.328,-5.124
-208.864,923.052,-3.904
-223.016,918.66,-10.248
-180.804,945.5,-9.272
-165.432,942.084,-14.884
-172.996,958.432,-14.396
-192.028,962.092,-15.616
-198.616,956.236,-23.912
-198.86,956.968,-29.524
-184.22,960.872,-25.132
-173.484,971.852,-19.52
-165.676,972.584,-22.936
-178.364,974.78,-13.664
-179.096,982.344,-10.98
-173.484,984.296,-12.688
-156.404,987.224,-23.668
-169.824,986.736,-23.668
-186.66,986.736,-18.056
-187.392,970.388,-14.64
-181.78,966.728,-20.496
-173.728,965.996,-30.012
-171.288,971.12,-34.16
-179.828,972.828,-27.572
-172.508,974.048,-14.64
-167.628,967.46,-8.784
-182.756,961.604,-5.612
-166.896,965.508,-6.832
-167.872,960.14,-11.956
-159.088,969.9,-20.496
-177.632,959.652,-23.424
-197.884,969.9,-24.888
-174.216,974.292,-23.424
-168.36,968.924,-25.132
-171.288,978.44,-24.644
-152.5,979.904,-24.156
-161.04,980.636,-23.912
-167.872,992.104,-21.96
-165.92,976.976,-19.276
-169.824,965.996,-16.104
-163.968,969.9,-12.2
-142.496,974.78,-9.028
-147.376,973.804,-13.176
-164.456,971.852,-11.712
-166.652,965.752,-8.54
-169.58,954.04,-13.42
-165.432,952.332,-18.3
-149.328,972.828,-23.18
-147.132,988.932,-21.96
-147.62,991.128,-25.864
-157.136,979.904,-26.352
-162.016,975.512,-26.108
-170.556,975.268,-18.3
-173.484,977.708,-19.032
-176.412,979.416,-19.276
-166.408,979.904,-23.668
-160.064,980.148,-18.544
-155.184,984.052,-13.42
-151.036,987.956,-6.832
-158.112,982.588,-2.928
-172.02,965.508,-5.124
-172.508,964.044,-5.124
-168.36,964.288,-9.516
-159.576,976.488,-17.08
-147.864,990.64,-18.3
-148.352,991.616,-22.936
-160.552,976.976,-18.788
-177.144,962.336,-10.98
-182.756,954.772,-2.928
-162.748,961.604,-4.88
-151.768,972.828,-11.468
-154.452,977.464,-13.908
-154.696,979.904,-11.468
-157.136,967.948,-6.344
-159.332,958.676,-3.66
-170.8,958.92,-3.904
-156.648,972.584,-3.904
-161.772,976.244,-9.028
-171.044,982.832,-15.372
-191.784,985.028,-16.104
-213.012,994.3,-13.908
-223.748,1001.864,-16.592
-232.776,1001.376,-25.62
-254.004,1005.768,-28.06
-255.468,1026.264,-20.984
-269.62,1048.956,-16.348
-278.16,1073.356,-19.276
-250.1,1060.18,-48.312
-280.844,1057.74,-52.46
-302.804,1044.808,-51.972
-324.52,1033.096,-46.116
-311.832,1043.588,-24.156
-292.556,1027.24,-11.956
-274.988,998.448,-21.96
-306.22,1001.376,4.88
-343.064,1007.476,24.888
-365.024,1002.108,22.936
-404.308,1044.564,23.912
-503.128,1115.568,60.268
-605.608,1146.312,77.104
-638.792,1119.716,48.8
-675.636,1104.344,41.724
-707.112,1067.5,71.98
-672.22,1009.916,62.952
-596.58,957.944,53.68
-509.472,912.56,42.212
-442.616,872.544,18.056
-388.936,816.912,8.052
-285.724,774.944,15.372
-152.012,735.172,30.256
13.908,666.852,19.52
178.608,614.148,-30.744
254.736,566.324,-62.708
303.048,552.904,-34.16
471.164,451.156,-18.056
594.628,401.624,20.984
627.324,307.684,40.26
684.908,238.388,63.44
773.968,115.168,80.276
866.444,42.7,68.076
1001.132,57.584,107.36
1101.904,113.704,200.324
1157.292,111.264,246.44
1162.904,171.044,230.58
1162.904,240.096,252.54
1181.448,245.464,285.724
1169.98,229.848,296.948
1070.916,231.8,287.432
956.968,234.24,266.936
899.384,228.14,215.696
854.244,264.252,158.356
811.056,301.34,110.776
773.48,282.308,66.124
665.876,233.996,35.136
570.228,211.06,62.464
509.228,142.008,88.572
444.568,89.792,91.5
386.984,57.096,79.056
346.968,64.66,36.112
344.772,71.248,-2.928
386.984,51.484,-30.012
485.072,35.136,-54.412
631.472,44.164,-82.716
767.624,-9.272,-107.604
863.76,-46.848,-90.036
954.528,-48.312,-46.116
1145.58,-82.228,-29.768
1317.112,-162.26,-40.504
1419.836,-173.484,-27.328
1483.52,-135.908,8.296
1563.552,-183.244,-5.368
1653.832,-209.84,-35.38
1712.636,-166.896,-37.332
1710.196,-146.4,0.732
1749.236,-132.98,-5.368
1850.496,-134.688,-33.428
1942.484,-102.236,-40.992
1979.084,-89.06,-26.108
1968.836,-110.776,2.196
1991.772,-141.52,28.792
2009.34,-172.02,104.676
2037.644,-182.268,193.98
2032.52,-214.476,277.916
1954.928,-259.616,361.852
1863.184,-298.168,402.6
1827.316,-295.972,421.144
1791.204,-261.08,430.904
1726.3,-256.444,431.392
1610.888,-249.612,415.776
1488.644,-275.964,373.808
1349.076,-291.58,323.788
1212.924,-270.84,273.036
1030.9,-221.064,237.656
841.068,-209.84,208.132
621.956,-220.332,169.336
452.132,-147.864,155.916
342.332,-87.84,128.832
230.336,-45.872,60.756
118.828,31.232,27.572
42.7,77.836,2.928
32.696,172.264,-39.772
52.948,261.324,-66.124
96.624,357.46,-50.996
130.54,438.712,-83.936
202.032,504.348,-129.808
292.8,551.928,-162.992
404.308,593.896,-132.736
486.78,626.348,-96.868
546.316,648.064,-63.928
627.812,667.34,-32.94
710.772,682.956,-17.568
732.732,710.528,-3.66
765.672,691.984,14.884
869.86,646.112,38.308
1036.268,574.62,51.24
1152.656,567.788,75.152
1230.98,563.152,96.38
1310.28,517.768,145.424
1259.04,447.984,197.152
1155.34,420.412,244.0
1146.8,378.688,273.036
1037.0,291.092,280.356
767.624,288.408,241.316
472.14,328.912,204.716
240.34,389.424,133.224
190.564,423.828,69.052
112.972,507.032,17.568
158.112,607.316,-20.496
-89.06,763.476,58.56
-344.772,836.188,169.336
-575.84,838.872,216.428
-776.896,840.58,163.968
-926.224,967.704,118.828
-912.316,1072.136,73.2
-859.612,1072.624,-0.732
-885.476,1080.188,-64.66
-911.34,1088.728,-100.528
-802.272,1085.312,-59.048
-704.916,1024.312,24.888
-688.324,981.368,96.38
-674.172,918.172,114.924
-616.832,851.56,101.992
-580.72,823.988,87.596
-562.908,833.992,49.776
-489.952,856.684,42.944
-419.436,860.588,39.284
-425.78,862.052,55.144
-430.66,872.3,51.728
-412.604,881.084,29.768
-399.672,896.212,-0.488
-380.152,928.908,-5.368
-383.08,952.82,-0.976
-363.56,957.212,25.62
-351.36,959.164,44.164
-367.952,947.208,23.424
-364.292,941.84,1.708
-361.364,954.284,-17.812
-357.948,956.48,-25.864
-370.392,942.816,-22.692
-379.908,924.028,-21.96
-370.636,909.388,-13.908
-373.076,882.304,2.928
-379.908,870.104,10.98
-375.028,878.888,7.564
-349.652,904.508,-3.904
-317.444,923.296,-3.66
-324.032,921.344,-4.636
-343.796,916.708,3.904
-359.656,912.804,3.416
-337.94,911.34,-7.076
-325.984,910.364,-9.028
-339.16,911.34,-16.348
-352.824,910.608,-18.056
-356.484,914.756,-32.208
-365.024,923.784,-46.116
-350.14,941.596,-59.292
-341.112,955.748,-53.192
-342.088,953.308,-39.528
-351.848,938.18,-25.62
-349.652,921.1,-6.344
-345.504,904.996,18.056
-342.576,902.312,29.036
-334.768,902.312,31.72
-332.816,897.676,22.936
-322.812,899.384,20.496
-324.52,904.02,23.18
-315.492,917.928,18.3
-326.228,924.272,14.152
-337.452,926.224,6.344
-311.588,946.232,0.732
-310.124,946.476,-0.488
-315.248,950.624,-2.44
-325.496,942.084,-12.932
-340.624,923.784,-21.96
-346.236,922.808,-30.5
-332.328,930.128,-33.916
-326.472,943.06,-30.256
-336.72,941.108,-11.712
-332.084,912.072,3.904
-329.4,896.212,26.352
-335.012,896.944,40.748
-343.552,902.068,46.848
-330.376,906.216,38.552
-327.204,910.12,35.136
-327.448,915.976,29.28
-334.768,919.636,25.864
-330.132,932.812,21.96
-327.692,936.228,8.54
-328.668,946.232,-1.708
-331.596,943.792,-11.468
-334.036,943.06,-13.176
-332.084,939.888,-11.956
-326.716,938.668,-6.832
-324.764,938.668,-3.904
-323.056,943.548,-0.244
-326.228,942.084,1.708
-325.008,930.372,6.344
-330.864,922.808,15.128
-332.572,925.004,19.52
-315.248,938.18,12.2
-300.608,954.04,2.684
-311.588,952.088,-2.928
-320.372,943.304,-7.564
-322.812,932.08,-7.076
-308.66,932.568,0.0
-304.268,938.18,0.976
-315.492,939.888,-2.44
-322.812,936.228,-8.296
-314.76,932.08,-8.54
-302.316,939.4,-4.88
-312.32,948.672,-2.928
-319.396,950.38,0.0
-323.788,937.448,-1.952
-314.272,929.884,-0.732
-314.028,928.42,10.736
-335.256,925.248,18.788
-350.872,922.564,17.324
-351.848,931.348,20.984
-361.608,946.476,22.692
-373.564,965.02,23.424
-402.6,982.832,27.572
-442.372,1011.136,46.116
-472.384,1024.8,61.488
-523.38,1061.644,82.96
-602.924,1104.1,101.992
-684.664,1115.324,101.016
-698.816,1108.736,92.964
-701.988,1073.356,72.468
-762.988,1040.172,39.528
-836.188,1025.288,21.472
-880.108,988.932,-5.124
-742.004,985.028,-28.304
-538.508,966.24,22.204
-543.876,902.312,37.576
-631.472,829.356,81.008
-603.168,773.236,112.972
-504.104,700.036,123.464
-399.184,653.92,124.44
-226.188,591.7,97.356
-99.796,507.52,62.464
49.044,407.724,109.556
260.836,271.084,107.604
453.352,200.568,90.036
639.524,214.964,124.684
745.176,230.092,157.136
825.208,227.652,153.72
789.34,131.516,64.416
735.66,68.076,17.812
760.304,78.812,81.252
886.452,111.996,87.108
992.592,87.352,103.7
1063.596,44.652,182.756
1036.024,-18.056,186.172
1115.812,46.604,216.916
1206.336,68.32,234.24
1259.772,60.268,312.32
1340.292,60.512,315.98
1340.048,103.456,265.228
1311.988,148.108,166.896
1315.16,259.616,101.748
1319.796,274.744,91.5
1285.392,254.248,117.852
1198.04,174.948,116.388
1084.824,158.844,153.232
969.9,146.644,161.284
859.612,107.36,133.468
764.208,91.988,103.212
678.32,51.972,80.276
551.196,-20.008,71.004
426.268,-46.116,95.404
393.572,-79.544,89.06
332.816,-120.292,74.176
314.76,-186.172,61.976
372.344,-170.312,39.284
453.596,-167.14,6.832
558.516,-230.58,-8.052
701.988,-248.636,-1.952
851.804,-254.492,-12.932
1014.796,-235.948,16.592
1153.144,-248.392,12.444
1267.336,-239.364,9.028
1408.612,-217.16,1.464
1532.076,-209.84,-57.096
1701.656,-181.536,-57.584
1866.112,-228.384,-41.724
1963.224,-237.168,-36.6
2053.748,-231.312,-18.788
2228.94,-295.484,36.6
2367.288,-314.272,111.264
2283.352,-314.516,168.36
2043.256,-337.452,166.896
1869.772,-317.688,165.188
1788.764,-356.972,167.14
1743.868,-367.22,152.256
1692.14,-344.284,201.544
1558.184,-411.384,225.212
1406.66,-404.552,223.26
1316.868,-407.236,255.712
1297.836,-402.6,249.856
1201.456,-379.176,220.576
1126.304,-316.468,219.112
1022.848,-359.656,181.536
876.448,-269.376,185.928
801.296,-209.84,159.576
779.824,-182.756,123.952
691.496,-149.572,104.432
547.536,-91.744,108.092
451.888,-61.976,102.968
397.476,-23.18,91.5
349.408,13.176,92.476
303.536,59.536,62.708
249.856,102.236,37.332
274.256,138.104,12.932
365.756,178.364,-25.132
434.564,207.4,-30.5
507.032,261.812,-27.328
602.924,276.696,-51.972
777.14,286.456,-67.588
899.384,226.92,-99.796
912.072,263.764,-76.616
982.1,251.32,-31.232
1060.424,204.228,10.248
1139.724,180.072,50.996
1246.352,135.42,106.384
1323.212,41.236,159.088
1396.168,78.812,166.408
1364.204,70.76,192.272
1365.912,39.284,172.264
1225.856,47.824,206.912
1022.604,-0.488,243.756
834.236,52.704,292.312
854.0,184.952,215.94
792.512,290.36,151.036
669.78,411.872,91.5
457.988,512.156,95.648
371.856,618.052,59.536
295.24,721.508,38.064
152.744,826.916,19.52
31.964,930.86,64.172
-71.004,982.1,52.948
-133.712,1004.792,68.32
-277.184,1022.36,68.32
-534.116,1018.212,91.988
-563.884,1023.824,80.276
-575.596,1029.924,88.572
-540.948,1028.948,59.048
-565.836,1069.452,34.16
-478.484,1155.584,100.772
-374.784,1119.472,166.164
-393.572,1064.084,148.108
-492.148,1025.044,65.148
-528.016,1002.108,11.224
-480.436,977.952,-25.864
-424.56,957.456,-33.916
-434.32,992.104,-7.564
-478.484,982.588,6.344
-457.988,906.704,43.432
-392.596,812.52,50.508
-289.628,791.536,28.304
-283.528,810.812,46.848
-324.52,878.888,43.432
-322.08,935.252,24.644
-301.828,962.336,-4.88
-308.904,963.8,-39.772
-321.104,957.7,-52.216
-346.968,940.132,-59.78
-350.872,938.424,-54.168
-365.512,934.032,-37.82
-343.308,949.16,-39.528
-329.4,958.92,-49.288
-301.34,956.48,-40.992
-292.312,946.72,-19.276
-313.784,923.052,-8.784
-305.0,933.056,-14.884
-283.284,953.552,-23.424
-259.128,960.628,-14.64
-275.72,944.768,-4.148
-284.016,931.592,5.612
-265.716,936.228,1.464
-243.512,940.132,1.708
-251.32,948.672,1.952
-259.86,956.968,7.564
-252.296,963.556,1.708
-236.924,975.024,-10.004
-236.192,970.876,-3.416
-251.808,946.476,-5.368
-263.032,934.52,0.976
-262.056,943.548,-5.612
-242.78,958.188,-5.368
-240.584,951.112,-6.832
-260.348,944.768,-9.028
-279.38,937.936,-18.056
-269.132,939.4,-24.644
-261.812,935.496,-27.084
-266.936,937.448,-24.888
-286.7,930.372,-22.448
-291.824,926.712,-29.036
-276.696,930.128,-26.108
-269.62,934.032,-30.256
-256.932,943.06,-28.792
-254.736,948.672,-25.376
-253.028,957.7,-24.4
-257.176,956.48,-21.96
-268.888,944.036,-16.836
-272.548,935.984,-25.62
-259.128,955.016,-20.008
-248.392,967.216,-26.108
-260.836,976.976,-21.96
-236.924,979.172,-3.904
-256.2,967.704,0.732
-275.476,951.6,5.368
-271.084,952.576,-9.272
-237.168,957.456,-25.864
-233.508,964.044,-23.912
-244.488,964.288,-9.76
-252.052,944.768,-0.244
-253.272,930.128,-0.976
-253.272,934.032,-0.488
-257.42,944.768,-9.76
-253.76,953.064,-17.324
-251.564,956.48,-13.42
-251.076,965.752,-4.148
-246.684,969.9,-0.976
-249.856,965.996,-1.708
-260.348,948.184,-7.564
-275.476,936.716,-11.956
-266.692,950.868,-5.368
-245.464,960.628,-10.004
-229.604,958.432,-10.492
-255.224,937.936,-2.44
-272.304,919.88,3.172
-276.94,921.344,5.124
-292.312,944.28,-2.684
-304.268,969.9,-0.732
-326.472,999.668,8.54
-361.852,1042.124,20.74
-400.404,1100.928,16.592
-422.608,1185.352,-4.636
-459.208,1257.82,-32.452
-462.136,1331.02,-18.056
-503.372,1365.424,-25.864
-549.488,1374.94,-2.44
-520.208,1401.292,7.32
-376.98,1417.152,-64.172
-177.876,1423.496,-84.668
-151.036,1435.208,-14.884
-187.148,1434.72,100.528
-128.1,1382.748,156.648
-105.164,1317.6,173.484
-115.656,1253.184,207.156
-97.6,1159.488,249.124
-154.208,1076.528,252.54
-16.836,1006.988,214.232
183.244,1013.576,149.084
368.928,1089.948,142.984
219.112,1021.14,162.26
260.836,983.076,234.972
339.16,859.124,239.608
405.04,814.472,259.86
446.764,710.528,182.024
355.752,521.916,59.536
307.44,402.356,86.62
251.564,200.812,200.812
165.188,19.52,233.264
49.288,43.188,185.44
-11.468,158.6,129.564
-52.948,127.856,41.48
-39.528,156.16,39.772
-49.532,114.436,97.112
-3.904,68.32,80.52
56.364,19.032,95.16
93.452,17.568,92.964
125.904,77.836,96.868
203.984,98.576,60.756
327.204,101.992,18.788
422.608,47.092,-57.34
491.66,30.744,-110.532
631.472,60.756,-126.392
750.788,-45.872,-173.484
821.06,-91.012,-143.472
814.716,-112.484,-171.288
866.932,-143.96,-228.14
1027.484,-235.704,-226.188
1137.772,-284.992,-164.944
1177.788,-355.264,-215.208
1221.952,-400.404,-274.988
1301.74,-401.38,-311.1
1322.724,-409.676,-254.248
1295.64,-455.548,-174.704
1381.528,-541.436,-152.012
1532.564,-597.312,-148.84
1624.308,-592.188,-141.52
1605.032,-576.816,-156.892
1642.12,-532.896,-185.684
1723.372,-560.712,-264.984
1741.428,-551.928,-322.812
1700.192,-557.54,-359.656
1661.884,-557.54,-366.0
1735.816,-537.044,-381.128
1773.148,-542.168,-354.288
1698.24,-606.828,-264.984
1673.84,-656.604,-171.288
1692.628,-689.788,-115.656
1744.356,-684.664,-66.856
1748.992,-711.26,18.788
1647.244,-728.584,119.56
1524.756,-732.732,187.392
1432.28,-694.912,247.416
1371.28,-659.288,298.9
1329.8,-644.648,312.076
1300.764,-580.964,284.016
1235.86,-526.308,285.724
1179.984,-480.192,295.972
1155.828,-447.74,300.608
1047.492,-434.32,314.272
932.568,-382.104,291.092
913.536,-290.116,259.372
819.108,-251.076,247.172
720.044,-192.272,227.164
697.596,-103.944,183.976
685.64,-69.052,138.104
659.288,-12.932,98.332
596.092,49.044,78.812
532.164,105.652,48.068
441.152,163.48,12.444
433.588,227.164,2.44
458.72,232.044,-20.252
435.54,258.884,-24.4
364.78,296.46,-20.496
373.076,331.108,-3.416
456.524,327.204,-20.496
573.156,329.4,-53.68
635.62,365.512,-87.108
663.192,398.94,-95.16
668.072,362.34,-66.124
715.164,342.576,-60.268
788.608,329.644,-41.236
898.652,343.796,-46.116
908.168,331.108,-79.3
909.144,371.856,-73.932
952.82,374.784,-76.616
1052.86,348.92,-96.868
1075.064,325.496,-97.356
1004.06,337.696,-58.56
1011.38,356.484,-13.176
1070.916,339.16,-33.428
1099.22,345.748,-52.46
1037.732,365.024,-40.748
1010.892,385.276,-19.276
1016.748,335.988,0.732
990.884,264.496,16.592
966.728,304.512,67.588
979.904,381.128,85.156
952.088,325.252,109.312
1006.256,291.092,154.696
1073.112,294.264,164.456
1108.004,332.816,155.672
1077.748,269.376,138.592
988.444,183.488,152.012
866.2,172.02,202.276
769.088,342.332,228.872
814.228,395.524,161.04
818.132,366.976,30.012
682.224,401.624,14.884
395.524,494.1,155.428
245.464,621.956,211.06
32.452,650.016,144.204
-103.7,697.108,45.628
-323.788,813.74,47.824
-483.364,939.888,-70.76
-700.768,945.988,-77.348
-831.308,986.004,-19.276
-830.576,992.348,-34.16
-903.044,1043.1,-86.62
-1018.7,1095.072,-155.184
-995.276,1128.744,-73.2
-902.8,1110.688,29.28
-797.636,1065.548,61.732
-748.836,1011.624,15.372
-648.064,992.348,-87.596
-561.932,975.268,-139.08
-536.556,984.296,-132.004
-521.184,947.208,-126.636
-479.46,899.14,-141.032
-467.748,856.684,-137.616
-430.416,863.516,-101.26
-435.784,833.504,-85.4
-451.644,830.088,-81.252
-460.428,843.508,-88.084
-416.508,857.66,-96.136
-407.968,837.896,-87.352
-412.36,856.928,-69.784
-407.236,860.588,-55.632
-364.292,920.612,-54.9
-330.62,974.536,-46.848
-325.496,958.92,-57.096
-348.676,937.692,-64.66
-322.08,933.544,-94.672
-279.624,931.592,-110.532
-287.432,953.552,-107.36
-317.444,962.58,-96.136
-334.768,953.552,-88.816
-328.912,929.884,-89.304
-294.996,900.36,-80.276
-317.688,878.644,-67.588
-341.6,869.372,-50.02
-354.532,878.888,-39.284
-358.436,884.744,-54.656
-319.152,908.656,-72.468
-241.316,954.772,-70.272
-214.476,972.584,-50.752
-230.58,976.732,-31.72
-261.568,966.24,-18.788
-264.74,955.26,-15.128
-241.56,962.092,-22.692
-252.54,971.608,-23.18
-253.272,986.248,-28.792
-264.74,975.024,-38.308
-267.912,965.02,-58.316
-274.256,963.556,-69.784
-281.82,950.624,-62.952
-285.968,952.088,-52.46
-293.776,948.916,-59.536
-279.624,955.748,-65.636
-249.856,954.772,-70.028
-233.752,949.892,-64.66
-225.7,945.256,-50.752
-241.316,940.62,-43.432
-248.392,951.112,-32.208
-240.34,959.896,-33.916
-229.116,968.436,-41.48
-200.568,987.468,-41.48
-210.816,981.124,-34.648
-224.724,969.412,-26.84
-253.272,951.356,-27.572
-255.712,952.332,-32.696
-240.34,960.872,-26.108
-223.016,961.116,-29.28
-250.588,953.308,-30.256
-288.408,936.716,-30.012
-287.676,933.056,-14.884
-281.088,934.276,-21.716
-270.108,936.716,-33.428
-264.252,939.4,-24.4
-259.616,936.716,-12.688
-268.4,932.324,-4.148
-258.64,942.084,4.636
-265.228,938.424,6.832
-264.008,947.452,12.2
-257.908,959.164,21.716
-250.832,961.116,24.156
-244.488,963.8,21.96
-259.86,955.992,18.544
-279.868,945.5,9.516
-281.576,938.912,-4.148
-265.472,952.332,-13.176
-264.008,955.748,-12.444
-274.988,953.308,-10.248
-289.628,947.452,-9.516
-291.824,944.036,-23.912
-264.74,945.256,-30.012
-253.76,943.548,-30.012
-270.84,935.496,-24.644
-281.332,935.008,-7.808
-265.472,935.984,7.808
-263.764,939.644,12.932
-291.092,946.964,23.912
-311.344,975.024,31.476
-333.06,1016.992,33.672
-345.748,1062.132,39.772
-381.128,1103.368,51.728
-460.184,1176.812,77.592
-513.864,1270.264,94.428
-523.868,1319.796,72.468
-519.72,1345.904,44.652
-555.832,1326.872,20.252
-621.712,1288.076,-6.344
-655.628,1249.768,-10.492
-698.572,1171.2,-13.908
-761.524,1087.996,3.416
-767.136,1039.196,-1.952
-705.892,984.052,-22.692
-647.576,895.48,-12.932
-611.708,852.78,-7.076
-552.904,798.368,16.104
-485.316,749.568,23.424
-430.904,682.224,18.056
-427.976,590.724,-2.684
-389.912,509.472,1.952
-385.032,480.436,49.044
-385.52,452.864,85.156
-354.288,400.16,86.132
-385.764,329.644,57.584
-416.996,329.888,31.964
-444.324,400.648,80.764
-363.804,412.604,44.896
-154.452,408.456,-20.008
-138.836,432.368,10.98
-113.948,383.568,32.452
-162.748,334.28,59.048
-17.568,312.808,57.584
329.156,270.352,81.008
422.852,245.22,86.376
409.676,179.34,51.24
480.436,199.348,89.06
615.856,224.48,13.42
860.344,228.384,-37.576
1090.436,166.164,32.94
1221.22,135.664,188.856
1320.284,193.98,310.368
1442.528,205.448,342.332
1557.452,141.032,351.604
1493.28,194.224,357.948
1246.596,167.628,324.764
1001.864,71.736,238.144
710.284,-3.904,172.996
446.764,-71.492,73.932
321.348,-86.864,-14.396
229.116,-98.82,-123.952
142.496,-32.452,-189.1
231.556,-126.636,-206.912
558.516,-218.868,-181.048
872.544,-279.868,-151.036
988.444,-335.744,-121.756
1071.404,-382.348,-133.712
1200.236,-459.94,-138.348
1353.468,-539.24,-187.636
1598.444,-538.264,-275.964
1767.536,-565.348,-349.896
1869.04,-567.788,-368.196
2090.104,-520.208,-397.476
2231.624,-557.784,-421.632
2097.668,-577.548,-334.524
1873.92,-674.172,-230.824
1800.964,-725.168,-137.372
1918.572,-713.944,-49.776
1977.62,-674.66,14.152
1858.06,-687.348,66.612
1778.272,-707.112,73.444
1721.42,-721.508,150.792
1722.152,-711.748,224.236
1667.008,-696.132,262.056
1563.552,-679.784,298.412
1510.848,-649.04,332.572
1434.232,-628.3,393.572
1383.236,-599.02,427.244
1307.108,-534.604,422.608
1209.752,-495.076,435.296
1078.48,-467.504,427.488
949.404,-384.056,388.204
880.84,-337.696,355.996
804.956,-262.788,320.128
679.54,-187.636,291.336
559.004,-155.672,278.16
509.228,-115.168,238.876
463.356,-9.272,177.388
398.696,50.264,125.904
350.628,111.508,77.104
325.74,157.136,44.652
309.392,175.68,21.472
302.072,230.336,3.66
348.92,265.228,9.028
433.832,273.28,0.0
485.316,308.904,-42.7
551.684,341.356,-92.232
704.428,332.816,-101.748
820.084,325.008,-70.516
845.216,309.88,-5.124
883.036,232.288,63.196
1019.432,144.936,139.08
1227.808,99.796,183.0
1455.948,93.452,156.16
1417.152,67.588,161.284
1287.832,10.736,192.516
1206.58,-129.564,203.252
1112.64,-127.612,166.896
835.456,11.956,216.184
593.896,58.316,135.908
422.364,122.976,82.716
299.388,180.804,137.128
241.56,359.412,153.72
228.872,553.148,151.036
73.2,523.136,118.096
-93.94,610.976,59.78
-216.184,790.316,84.424
-325.252,946.476,79.3
-530.456,1065.548,51.728
-659.288,1089.704,-58.804
-747.372,1120.204,-120.78
-891.332,1096.292,-84.668
-896.456,1071.648,-40.748
-841.8,1108.98,-36.356
-797.148,1160.708,-114.436
-794.22,1185.108,-142.252
-805.444,1156.316,-123.22
-731.024,1111.176,-103.456
-646.112,1090.436,-104.676
-570.472,1039.684,-93.452
-519.964,939.4,-29.768
-490.684,892.064,16.104
-463.356,835.7,20.496
-413.58,815.448,-0.732
-374.784,836.92,-54.412
-367.708,864.248,-73.932
-370.148,906.948,-72.224
-352.336,934.276,-61.976
-333.792,961.36,-67.1
-325.008,982.344,-62.952
-304.512,968.192,-55.388
-324.276,952.088,-44.896
-339.648,963.556,-40.26
-337.94,955.504,-53.924
-336.476,940.62,-57.584
-330.864,931.104,-62.22
-353.312,923.052,-64.904
-360.632,919.392,-73.2
-378.444,907.68,-64.904
-360.632,915.976,-77.348
-319.152,931.104,-77.348
-319.64,946.232,-70.272
-333.304,929.396,-70.028
-345.016,900.604,-61.732
-322.812,898.652,-47.58
-305.976,893.284,-36.112
-286.456,923.296,-31.232
-273.524,940.62,-36.6
-298.412,948.672,-40.748
-321.348,945.256,-42.7
-334.524,924.76,-53.436
-337.94,918.416,-66.124
-323.788,932.08,-66.368
-309.88,926.956,-61.244
-308.904,928.664,-52.948
-313.052,926.956,-50.02
-308.66,935.496,-45.384
-284.016,951.112,-36.112
-272.792,947.94,-33.184
-285.968,951.356,-38.796
-299.144,945.5,-42.7
-313.052,937.204,-48.068
-304.268,940.376,-50.264
-304.024,936.716,-46.604
-289.14,940.62,-44.164
-287.92,928.42,-37.576
-296.216,934.276,-28.792
-301.096,923.54,-19.764
-303.78,931.348,-23.912
-295.728,946.964,-31.72
-286.456,948.184,-42.7
-287.92,954.04,-43.432
-298.9,957.212,-33.916
-303.048,955.26,-29.036
-292.068,947.208,-28.548
-273.036,946.232,-27.084
-267.912,950.624,-23.912
-262.788,958.676,-22.936
-271.328,945.744,-17.812
-265.96,934.276,-8.296
-279.624,909.144,-2.928
-284.016,899.628,0.244
