acc_x[mg],acc_y[mg],acc_z[mg]
-48.556,926.468,-17.324
-56.852,929.64,0.244
-62.952,938.18,14.884
-57.584,946.232,10.004
-59.048,960.872,-7.808
-44.652,984.784,-26.84
-7.32,963.312,-55.144
-36.844,1107.028,-38.552
17.568,1027.972,-96.868
14.64,1066.768,-91.988
-2.684,1065.304,-103.7
33.672,1052.616,-91.5
68.808,1033.828,-86.132
47.336,1024.556,-64.172
70.028,991.616,-49.532
31.232,1000.644,-31.72
42.7,985.272,-9.516
45.14,983.32,13.176
42.456,983.564,32.94
28.304,973.804,36.112
17.324,968.436,32.94
-2.928,972.584,26.84
-24.4,972.828,2.928
-6.588,945.012,-32.696
-25.864,1007.964,-24.644
-8.052,1014.064,-50.508
-16.348,1035.292,-50.264
-20.252,998.692,-67.1
-17.08,985.272,-60.756
-26.84,969.412,-63.44
-61.0,961.36,-65.636
-46.36,944.768,-77.592
8.784,995.032,-78.324
28.304,1009.428,-75.152
14.884,998.204,-59.78
-33.916,988.444,-49.044
-9.272,975.024,-54.9
-16.836,982.588,-31.964
-31.476,1009.672,-6.1
-14.396,1040.416,-23.424
-39.772,1047.248,-24.4
-57.584,1050.908,-41.236
0.976,1033.34,-33.672
-51.972,1019.188,-39.528
-6.1,1013.82,-37.82
-30.256,1012.6,-31.476
17.812,1008.208,-53.68
67.588,985.76,-43.188
7.32,978.196,-39.528
-10.248,965.752,-38.308
12.444,949.404,5.368
34.648,984.052,-23.912
69.052,972.34,-10.248
62.708,946.964,-7.564
-34.16,934.032,-20.252
-66.612,930.86,-16.104
-32.94,937.936,-12.688
-34.648,964.288,-0.488
-25.376,985.272,-12.932
-23.18,997.228,-30.012
-0.244,1019.92,-27.572
17.812,1040.904,-24.644
83.692,1050.42,-17.812
92.476,1038.952,-13.42
40.992,1024.068,-22.936
-33.916,1026.264,-43.92
4.148,1034.316,-87.596
-7.564,1034.804,-97.6
-31.476,1007.964,-109.312
-65.148,988.444,-85.156
-119.804,991.372,-90.768
-129.808,1012.356,-107.36
-51.484,1060.912,-103.7
-52.948,1087.508,-76.372
-116.876,1061.888,-89.304
-137.616,1023.58,-91.744
-138.836,1021.628,-79.3
-115.412,1043.1,-69.784
-86.376,1053.348,-67.588
-97.6,1061.156,-57.096
-74.664,1099.708,-31.232
-43.432,1091.656,-26.84
-20.984,1070.184,-39.284
8.784,1050.176,-49.776
73.932,1084.824,-60.756
79.3,1042.368,-101.748
73.444,1020.652,-98.332
68.076,951.844,-86.132
61.0,905.484,-59.048
43.676,886.94,-60.756
40.26,892.552,-74.42
34.892,886.208,-80.52
0.488,860.832,-88.084
-24.156,840.336,-91.012
-67.588,816.912,-98.576
-117.364,807.396,-102.968
-159.576,811.3,-105.408
-147.132,818.376,-120.048
-130.296,848.632,-111.02
-151.28,878.644,-92.232
-160.064,910.608,-83.204
-130.54,925.492,-35.136
-132.248,1027.24,1.22
-119.316,1012.6,-19.276
-29.28,1021.384,34.648
167.14,985.272,18.788
146.4,991.128,243.024
574.132,874.496,160.552
1101.172,998.936,160.796
1517.68,987.468,6.344
1209.508,796.66,-422.12
225.212,744.688,-387.96
-211.792,545.096,-79.056
498.492,602.924,389.668
1355.664,414.068,354.776
1246.596,226.92,83.936
900.604,295.972,155.428
875.716,383.324,203.74
911.096,364.536,131.76
855.22,290.116,108.824
764.696,307.196,152.988
611.22,298.9,169.58
516.548,281.576,149.816
490.928,232.776,136.396
466.284,96.38,141.764
398.94,7.32,114.436
379.176,33.428,166.896
382.836,19.276,113.948
367.708,-10.492,47.824
501.664,34.892,-6.588
660.996,114.68,-32.94
769.088,86.62,-54.656
921.344,4.88,-38.308
1166.076,-57.828,-14.396
1369.572,-67.1,-54.168
1495.476,-91.744,-82.716
1539.396,-79.056,-126.148
1535.492,-35.38,-112.24
1565.748,18.788,-106.872
1670.912,74.176,-82.228
1743.868,49.044,6.588
1835.368,19.52,91.744
1867.332,11.468,227.652
1894.66,-76.616,337.208
1954.196,-177.144,452.132
1991.284,-244.732,569.252
1859.28,-270.352,642.696
1631.384,-300.12,686.128
1464.244,-281.088,675.148
1433.5,-207.4,633.912
1368.596,-119.56,564.128
1280.268,-61.488,491.66
1224.88,-10.004,418.46
1175.348,17.812,343.308
1110.444,19.764,273.768
1024.556,30.256,214.964
854.488,33.428,140.056
717.604,70.028,83.448
410.408,110.288,18.056
78.812,172.264,-40.748
-68.076,219.844,-52.46
-62.708,295.728,-34.648
-63.684,334.036,1.952
12.688,355.996,38.064
205.448,411.872,51.972
391.132,484.34,57.34
582.916,532.896,56.608
747.616,581.208,39.528
859.368,639.768,30.744
859.612,688.08,37.332
709.552,714.432,40.992
462.624,776.652,178.12
378.688,775.92,114.68
618.784,1217.316,-133.468
678.32,1770.952,-485.804
550.708,1676.524,-150.06
1058.716,1604.544,-223.748
1224.88,1137.528,-601.704
919.636,601.948,-510.692
396.988,251.808,-117.12
219.356,38.308,461.16
-647.332,188.368,749.812
-323.056,797.636,326.472
-433.344,1038.22,217.892
-582.672,1115.568,108.336
-307.928,963.312,2.196
-462.868,895.968,6.588
-362.096,965.996,55.388
-383.812,1029.192,-9.76
-404.308,992.104,-116.632
-394.06,1077.504,-154.452
-383.568,1026.752,-134.2
-337.696,1030.9,-88.328
-293.776,1021.14,-38.552
-261.08,1006.012,-15.128
-265.96,971.852,28.304
-259.128,963.312,51.484
-290.116,918.416,58.072
-265.716,893.528,50.02
-278.648,837.164,51.972
-345.016,830.332,65.148
-434.32,770.064,51.728
-457.256,823.256,46.116
-436.516,895.48,80.52
-379.908,817.644,162.016
-151.524,752.984,-0.244
-68.32,826.184,-147.376
-13.42,942.084,-62.464
-25.132,962.336,-39.528
-140.788,1021.872,-81.252
-54.656,1125.084,220.332
-231.068,1206.336,99.796
-556.32,1192.672,279.38
-569.252,1052.372,97.6
-428.22,968.924,21.228
-331.596,961.116,45.872
-266.692,1010.892,77.592
-235.704,1056.764,90.28
-193.736,1048.712,95.892
-173.972,1010.892,84.668
-207.156,977.22,59.048
-226.676,961.36,53.192
-218.624,936.716,51.972
-216.916,953.308,53.192
-209.596,958.188,57.584
-223.504,934.276,63.684
-253.028,914.024,83.692
-255.712,911.828,88.084
-252.784,927.2,81.252
-234.972,937.692,64.904
-249.124,951.356,71.736
-256.444,938.424,74.176
-231.8,937.204,76.372
-230.58,938.668,79.056
-233.02,933.544,73.688
-222.772,933.3,68.808
-216.184,941.108,71.492
-217.892,959.164,68.808
-220.576,961.848,65.148
-234.972,967.46,59.048
-241.316,962.824,56.12
-252.784,957.212,56.608
-246.196,957.212,53.924
-240.34,949.404,55.632
-225.212,950.624,65.636
-238.144,944.524,66.124
-241.56,947.452,57.096
-238.144,952.82,53.68
-224.236,957.7,52.46
-222.04,955.992,54.168
-227.652,948.428,50.996
-225.7,948.672,49.044
-215.696,943.06,48.068
-205.448,942.084,53.192
-197.884,936.472,59.292
-209.84,918.904,58.316
-235.46,910.364,54.9
-227.652,932.568,58.316
-222.04,971.608,66.856
-220.332,1025.532,75.884
-235.216,1104.1,118.828
-283.528,1217.804,188.856
-310.368,1347.368,217.892
-365.024,1458.144,177.632
-405.772,1531.588,96.868
-378.444,1561.112,64.66
-336.964,1499.868,43.676
-308.172,1390.556,48.8
-284.504,1266.604,74.908
-249.368,1172.908,59.536
-195.2,1106.784,16.104
-179.34,1006.256,-2.928
-153.476,912.316,-8.54
-56.852,867.664,11.224
-7.076,800.564,29.28
-25.376,739.808,55.144
-54.656,680.516,60.024
-65.148,680.516,91.744
15.86,667.828,24.156
-61.732,647.332,5.124
-112.24,646.6,-30.256
-135.664,619.028,-30.744
-138.836,590.968,-23.912
-172.996,597.556,-12.444
-165.676,648.308,20.984
-230.58,675.148,32.208
-252.296,719.8,-1.708
-238.388,760.548,9.76
-242.292,812.764,-4.148
-243.512,879.62,-0.732
-238.632,922.076,-9.516
-181.048,949.892,-32.452
-166.408,971.608,-33.672
-134.2,997.96,-39.284
-131.516,1012.356,-25.864
-138.104,1030.9,-1.708
-107.36,1054.08,8.54
-104.188,1072.38,0.976
-86.132,1087.996,-8.052
-87.352,1092.876,-12.444
-102.968,1074.576,-22.692
-119.804,1056.032,-28.06
-132.736,1041.636,-25.132
-139.568,1030.412,-22.936
-125.904,1024.068,-28.792
-121.756,1016.016,-31.72
-113.704,994.056,-20.008
-132.98,964.532,-4.392
-151.768,957.7,8.052
-134.2,950.136,12.444
-128.588,928.42,19.52
-150.304,895.48,34.648
-177.632,829.112,54.656
-203.008,762.744,159.82
-191.052,682.224,294.02
188.124,1019.92,564.128
972.828,997.228,209.108
1026.508,821.304,472.872
710.04,21.472,477.02
678.076,130.296,-1090.68
136.884,894.748,-1671.888
862.784,1270.02,33.916
1596.492,747.128,561.2
1645.78,306.708,-218.868
1016.016,48.556,-419.192
659.776,501.176,154.208
844.972,583.404,253.272
708.088,295.24,-73.2
461.16,150.548,-16.104
410.896,150.06,77.836
371.368,117.852,20.008
106.628,116.144,30.744
-77.836,162.016,79.544
-181.536,55.144,85.156
-82.228,-168.604,111.996
70.76,-307.928,124.928
423.828,-212.524,0.976
682.712,-51.484,-110.532
871.08,-88.328,-178.12
1243.912,-205.448,-192.272
1454.728,-268.888,-176.656
1624.064,-270.108,-181.536
1787.788,-255.468,-232.532
1927.6,-269.62,-284.504
2162.328,-228.628,-347.944
2172.82,-172.508,-308.172
1946.632,-209.84,-245.952
1805.112,-256.2,-212.524
1779.736,-240.828,-111.508
1785.836,-263.764,-40.992
1670.668,-286.7,44.408
1540.616,-316.224,123.708
1517.924,-350.872,205.936
1509.872,-410.896,305.0
1512.312,-464.332,381.86
1499.624,-433.832,465.308
1561.844,-369.66,469.456
1495.476,-369.172,473.604
1389.58,-384.788,466.04
1310.036,-342.82,448.716
1271.728,-263.032,395.036
1261.48,-149.816,324.52
1223.66,-83.204,255.224
1075.064,-87.108,215.208
950.38,-85.156,156.16
877.18,-21.228,111.508
778.116,81.984,111.752
713.7,170.8,55.388
683.932,224.968,-15.616
677.1,258.64,-144.936
556.564,332.328,-35.38
360.632,419.436,139.324
196.42,348.432,68.808
109.556,204.228,-8.54
289.384,327.692,21.228
241.804,513.376,144.936
222.04,639.28,128.588
214.72,639.036,41.48
251.564,620.492,55.388
378.444,690.52,81.252
461.404,786.9,101.748
484.34,799.1,113.948
555.1,793.244,69.54
614.148,819.596,61.244
648.064,857.416,58.316
588.04,890.844,66.856
589.748,981.856,76.616
645.136,997.716,47.824
628.056,951.844,29.768
607.804,1020.164,74.664
517.768,998.204,33.672
300.852,1018.7,-50.02
54.9,961.36,-137.128
19.032,908.9,-118.34
90.524,998.936,-0.732
46.848,987.224,179.584
-144.692,1168.028,212.524
-161.284,1139.968,96.868
-313.54,1047.736,-5.368
-425.78,899.384,-7.808
-432.612,801.296,48.312
-392.596,805.688,101.26
-347.456,835.7,131.272
-358.924,863.516,119.072
-383.812,858.392,106.628
-412.116,861.808,73.2
-405.528,876.204,59.292
-407.236,917.684,49.532
-369.416,940.62,36.112
-360.388,939.644,37.576
-364.536,936.228,44.164
-358.192,937.448,53.192
-355.508,917.928,55.632
-349.408,907.68,49.776
-360.876,884.5,25.132
-359.168,869.86,22.936
-361.608,844.484,30.5
-356.972,836.676,48.312
-357.46,851.072,54.656
-357.704,874.496,55.144
-374.784,912.072,43.92
-384.788,931.592,23.424
-391.132,940.864,20.74
-392.596,944.28,37.088
-363.316,952.576,61.244
-353.8,953.552,83.692
-337.696,947.208,88.084
-315.98,923.296,87.84
-315.492,900.36,86.864
-327.204,887.916,76.128
-343.552,890.112,63.44
-349.896,902.312,57.096
-363.56,899.872,45.384
-362.828,907.192,19.764
-361.12,910.364,5.856
-363.804,905.972,13.908
-370.88,886.208,36.356
-366.244,890.356,58.072
-356.484,896.212,72.468
-344.528,904.264,76.128
-339.892,912.316,81.008
-329.888,913.78,96.136
-315.004,934.276,124.684
-319.396,943.548,161.772
-319.396,964.044,177.632
-313.052,976.976,169.092
-303.292,975.024,158.844
-292.068,970.632,157.136
-303.292,955.26,141.52
-328.18,933.544,111.508
-336.476,916.952,70.028
-343.308,915.488,27.816
-350.872,914.024,20.252
-356.972,909.632,23.18
-337.696,911.096,11.224
-338.428,915.0,-11.224
-343.308,916.708,-28.792
-337.208,919.636,-45.628
-325.74,915.0,-47.092
-338.428,909.144,-41.724
-342.82,898.164,-44.164
-340.624,897.432,-56.12
-352.092,894.748,-63.196
-362.096,896.456,-59.536
-361.12,892.064,-53.436
-365.024,900.848,-52.46
-360.144,918.904,-47.336
-356.972,935.74,-50.752
-353.8,946.72,-48.556
-352.58,953.796,-39.528
-344.772,958.92,-34.404
-338.916,952.576,-31.964
-338.672,945.5,-19.276
-329.888,940.62,-2.928
-318.176,944.28,1.464
-295.484,946.476,9.272
-289.384,943.792,18.544
-296.948,923.052,24.888
-322.08,902.556,32.208
-324.276,905.728,34.892
-322.324,910.12,28.548
-330.132,909.388,27.816
-334.036,902.068,35.38
-343.064,892.064,42.7
-341.6,886.452,58.316
-334.768,862.54,80.032
-376.98,863.76,123.22
-279.868,986.004,174.46
29.28,1133.624,140.788
343.308,1096.78,118.096
412.848,964.288,129.076
656.116,982.588,87.84
579.5,825.452,266.204
578.768,189.588,-167.384
26.596,277.672,-538.02
308.172,425.78,130.052
1709.464,532.408,260.104
1964.932,323.056,159.088
1266.36,226.188,198.86
800.808,307.684,227.896
734.196,407.968,264.984
817.4,407.968,235.948
862.54,341.6,157.38
752.74,305.732,154.452
570.472,306.22,126.636
406.26,318.908,54.656
358.924,324.52,-2.928
357.216,202.276,0.488
263.032,21.472,-3.416
197.884,-75.396,32.94
79.056,-127.856,101.26
-33.916,-160.064,110.288
78.568,-207.888,101.504
476.776,-205.448,-30.256
854.488,-166.652,-115.412
1220.488,-94.184,-163.968
1571.848,-87.352,-160.796
1854.156,-139.324,-132.004
2017.148,-213.012,-124.928
2120.604,-210.572,-148.108
2149.64,-226.188,-166.896
1998.36,-186.416,-217.892
1803.16,-85.888,-240.584
1662.128,26.596,-266.448
1523.78,56.608,-214.964
1410.808,5.124,-115.656
1395.924,-49.044,-42.944
1392.264,-97.6,51.972
1342.488,-189.588,122.0
1320.528,-262.788,198.372
1329.556,-245.952,280.356
1273.192,-241.072,335.988
1205.604,-271.328,391.864
1205.116,-231.8,421.388
1300.276,-120.78,398.696
1354.444,-17.324,366.976
1282.464,15.372,341.112
1170.468,45.14,317.932
1121.18,65.148,276.94
1108.492,159.576,227.896
1170.712,255.224,188.368
1236.836,342.332,164.7
1106.54,350.872,171.044
973.072,331.596,117.852
897.676,362.34,83.692
886.452,347.212,107.36
912.56,287.432,55.632
947.94,254.248,94.916
926.956,240.34,128.344
721.02,182.756,119.072
485.804,158.6,115.656
316.224,219.356,114.68
248.148,322.812,80.276
171.776,405.528,39.284
182.756,502.152,14.884
221.796,608.048,-6.1
328.18,715.408,-38.308
450.424,822.524,-50.264
568.52,893.284,-56.608
618.296,920.124,-65.636
631.96,963.8,-71.98
589.504,980.636,-89.06
509.96,1044.808,-74.176
357.704,1167.296,-38.064
230.824,996.984,-190.808
-50.02,1138.992,-42.7
-99.796,1220.976,-171.044
352.58,1098.0,-419.192
584.38,1052.372,-297.436
42.7,1025.532,299.144
-272.792,1081.896,313.54
-191.54,1005.768,84.18
-390.644,840.092,52.216
-486.292,753.716,33.672
-445.3,726.632,66.612
-351.116,782.996,95.16
-294.264,850.584,109.068
-317.444,870.592,110.776
-376.736,832.528,93.696
-386.252,805.2,86.376
-419.436,799.588,78.812
-386.252,834.724,73.688
-361.12,863.516,81.74
-341.844,916.22,75.884
-314.516,923.784,74.908
-319.64,900.36,87.596
-325.984,865.712,95.892
-349.408,895.48,75.396
-367.22,895.968,64.172
-394.548,879.62,56.608
-375.272,908.656,41.968
-378.688,972.34,5.856
-318.664,1010.892,6.1
-339.648,997.472,0.976
-367.464,961.36,-3.66
-385.764,936.228,6.832
-379.176,910.12,25.864
-364.048,890.356,45.628
-349.896,886.452,58.316
-329.156,918.66,57.096
-346.724,921.588,51.972
-387.716,891.332,44.896
-386.74,884.5,44.896
-388.448,902.8,37.088
-378.688,914.512,43.92
-381.616,907.68,53.436
-368.44,902.312,65.148
-352.092,901.824,73.2
-363.56,888.892,63.684
-365.512,890.844,61.0
-361.12,904.996,61.732
-355.02,913.78,58.316
-347.7,921.832,58.072
-353.312,914.756,54.656
-364.048,907.436,56.12
-356.972,909.632,55.144
-350.628,912.56,54.168
-356.728,908.168,56.12
-378.932,892.064,55.632
-384.3,885.476,58.316
-376.248,897.676,55.876
-366.0,909.876,53.68
-371.856,908.656,53.924
-369.416,914.024,56.364
-358.192,915.244,62.952
-345.748,923.296,69.052
-344.772,919.636,71.248
-343.796,918.904,70.272
-339.892,925.492,66.856
-337.208,922.32,67.588
-344.284,913.78,66.124
-349.408,904.752,62.952
-360.632,900.604,56.364
-355.752,904.02,55.388
-353.556,904.508,54.168
-360.144,903.776,49.532
-361.12,904.02,46.604
-351.36,909.632,52.216
-346.724,919.636,53.192
-344.04,929.884,51.24
-345.748,935.252,47.336
-330.864,941.596,55.876
-343.796,930.86,60.512
-360.876,923.296,58.56
-353.068,932.568,56.852
-347.212,941.84,57.096
-342.82,936.716,61.732
-349.652,923.54,69.54
-351.116,923.54,68.32
-349.164,930.616,63.44
-345.016,930.86,61.488
-337.208,925.492,70.272
-336.72,921.588,76.86
-345.504,935.496,76.616
-343.308,947.696,73.932
-352.092,947.94,70.028
-352.58,956.236,70.76
-354.288,969.168,71.98
-356.484,968.924,85.644
-363.316,962.824,89.06
-352.824,962.824,85.156
-329.156,957.7,72.224
-322.324,948.184,54.412
-327.204,928.176,53.436
-339.648,901.336,53.68
-346.968,885.232,34.648
-352.824,874.984,27.084
-370.636,869.616,25.864
-386.496,863.516,17.324
-376.004,868.152,13.42
-357.46,872.788,13.42
-355.508,873.276,3.904
-353.8,888.648,4.392
-342.82,900.848,18.544
-359.656,908.656,36.112
-363.804,919.392,41.236
-355.264,926.468,39.04
-335.5,944.768,56.608
-317.688,962.824,82.472
-324.52,960.872,78.812
-327.204,947.696,57.584
-315.248,925.492,43.92
-332.572,904.02,74.908
-338.916,910.852,146.156
-378.932,939.4,258.152
-376.004,973.316,366.976
-293.288,997.96,443.104
-187.636,1018.7,490.684
-121.024,1014.308,478.24
-99.552,972.584,412.848
-108.092,926.712,319.884
-152.988,896.456,222.528
-177.632,888.16,136.884
-210.572,886.208,50.508
-226.92,882.548,-17.812
-275.232,864.004,-73.444
-338.672,848.144,-127.612
-350.628,845.216,-157.624
-355.264,835.944,-181.78
-366.732,832.04,-207.156
-377.712,849.364,-219.112
-371.368,885.232,-213.988
-397.232,906.216,-212.28
-427.488,925.98,-214.232
-425.292,963.068,-202.764
-401.136,989.42,-175.192
-374.296,1005.28,-134.2
-343.308,1014.064,-84.18
-306.708,1007.476,-32.208
-260.592,991.616,17.08
-233.508,971.12,46.848
-226.188,944.036,49.044
-231.556,913.78,36.844
-239.852,874.496,26.596
-270.352,830.332,18.056
-284.992,778.116,9.516
-290.116,728.34,-3.904
-305.244,697.596,26.596
-81.984,745.664,71.248
247.66,798.124,74.176
586.82,741.028,131.272
367.952,518.012,87.596
-15.616,252.296,175.68
78.08,-157.868,30.256
190.564,-176.412,-50.996
406.26,-396.012,-217.16
1023.092,138.104,-71.004
1853.668,426.756,141.52
2068.144,313.296,236.436
1637.24,186.66,254.492
1365.18,181.78,343.308
1357.86,181.292,306.708
1431.548,135.176,288.164
1359.08,56.364,287.432
1251.476,-12.2,220.576
1085.312,-36.6,195.932
974.048,-53.68,141.032
905.728,-57.34,53.924
797.148,-127.856,18.056
756.4,-168.36,-58.316
885.964,-110.288,-119.804
945.012,44.896,-143.96
939.888,99.308,-118.096
1011.38,39.528,-86.864
1103.124,-6.588,-2.928
1232.2,-2.196,43.188
1252.94,-27.572,132.492
1383.236,-51.24,175.436
1514.752,-81.496,262.788
1605.032,-106.628,318.42
1596.248,-120.048,398.696
1520.364,-186.416,448.228
1479.128,-267.668,501.42
1544.032,-240.828,524.112
1575.264,-220.332,596.824
1433.744,-290.116,600.24
1307.596,-310.124,620.492
1234.396,-271.816,644.16
1179.496,-229.36,594.628
1117.032,-162.016,560.712
1107.028,-62.952,506.544
1053.592,-10.492,468.724
986.736,23.912,417.484
916.708,50.264,403.088
885.72,100.284,367.464
875.228,119.804,362.096
920.124,144.204,317.2
936.228,133.956,305.0
861.32,132.492,264.984
717.604,203.008,228.628
402.6,253.028,207.156
291.092,386.252,114.192
227.164,482.632,139.568
122.732,482.388,95.648
-45.628,437.248,50.02
-57.096,479.948,37.82
101.748,603.9,31.232
281.82,721.508,4.88
413.824,811.788,-5.856
493.612,913.048,16.104
456.768,983.32,9.272
328.424,993.812,41.236
226.92,1028.948,42.944
162.748,1074.332,43.188
148.108,1087.02,-14.396
229.116,1197.308,-125.172
510.204,1226.588,-211.548
297.436,1385.188,-71.492
319.64,1193.892,-27.816
2.928,1165.588,-14.152
-201.788,895.48,97.844
270.108,912.316,-47.58
-366.0,954.284,426.512
-98.576,984.052,422.608
-409.92,950.868,-18.788
-923.784,718.58,-122.488
-836.92,533.14,-96.136
-635.62,633.424,5.124
-390.4,849.364,20.74
-383.812,863.516,21.228
-380.396,876.936,-15.128
-407.968,891.332,-48.8
-403.82,892.552,-83.936
-406.504,899.628,-96.38
-380.884,911.584,-80.52
-330.376,938.912,-42.944
-313.296,941.108,-3.904
-333.792,916.952,-13.664
-378.932,903.044,-14.152
-361.12,892.552,-11.468
-325.984,892.796,6.1
-340.136,909.876,26.108
-335.256,909.144,18.3
-331.108,885.964,9.516
-343.064,867.42,9.76
-353.068,898.164,19.52
-325.496,947.208,10.004
-325.496,986.98,-7.076
-346.48,994.056,-20.74
-341.356,1016.992,-12.932
-341.112,1004.792,1.952
-332.328,966.24,14.64
-316.468,928.908,47.336
-293.288,919.148,72.468
-269.132,922.32,90.524
-273.036,944.524,77.348
-302.804,955.26,42.944
-313.54,966.728,25.132
-341.6,964.532,20.008
-349.164,954.04,22.204
-349.164,944.28,25.376
-327.692,940.864,41.236
-323.544,930.372,41.48
-329.888,915.732,40.748
-328.668,906.216,49.776
-341.356,894.26,59.78
-350.384,881.084,46.116
-345.26,877.18,24.156
-333.06,892.796,10.98
-321.104,906.704,16.104
-322.08,911.34,21.472
-327.692,912.072,23.424
-336.232,920.612,26.108
-334.28,926.712,36.112
-323.056,936.472,45.872
-329.888,942.572,61.732
-338.428,951.356,98.576
-342.088,959.164,149.084
-321.348,961.116,181.048
-282.552,976.732,183.976
-232.288,993.568,174.46
-231.556,976.732,169.336
-233.996,946.72,163.236
-239.852,920.124,139.08
-251.32,899.872,101.26
-261.324,892.796,54.168
-266.936,914.512,-4.88
-273.28,925.004,-43.676
-295.24,930.616,-66.368
-301.828,938.668,-77.836
-310.856,938.424,-99.552
-319.396,923.296,-118.34
-327.204,907.68,-122.0
-332.328,905.972,-112.24
-341.356,904.752,-99.064
-349.896,907.192,-84.424
-345.748,922.564,-76.86
-329.4,942.328,-70.516
-326.96,954.04,-62.708
-332.328,945.5,-46.36
-319.396,948.672,-28.548
-300.12,951.6,-0.976
-289.14,941.596,9.272
-294.508,931.592,18.788
-285.48,945.5,20.496
-264.984,964.776,19.764
-249.856,978.44,14.396
-237.168,981.368,10.98
-251.564,962.58,3.904
-260.348,963.068,-0.244
-243.512,971.364,-9.028
-234.972,981.856,-12.688
-244.0,970.144,-12.688
-245.708,964.044,-15.372
-252.784,957.944,-10.004
-254.98,944.768,-7.808
-261.08,933.3,-9.028
-260.348,931.104,-13.42
-263.764,932.324,-11.956
-269.62,931.348,4.392
-268.644,923.052,53.68
-232.532,940.132,81.496
25.864,1152.168,157.624
588.284,1399.828,207.888
818.376,1597.224,266.448
968.436,1698.24,95.404
194.712,1046.76,379.908
-12.444,181.048,-269.864
-309.148,28.792,-1020.652
-315.736,537.776,258.396
1996.164,448.96,-145.424
2066.68,268.888,78.812
1254.892,273.28,152.744
661.728,241.316,128.1
822.036,273.768,163.724
1047.004,323.544,208.132
1030.168,252.296,152.256
846.192,231.312,171.776
759.572,266.448,155.428
726.144,330.864,159.332
691.496,356.484,122.244
649.04,361.852,117.12
612.928,298.168,101.748
582.672,159.088,76.128
484.584,140.3,139.568
396.012,89.548,184.464
300.852,-39.04,131.028
291.824,-66.612,175.436
270.352,-90.524,110.776
317.2,-58.072,42.944
499.956,71.98,-56.12
630.984,109.556,-160.796
760.06,8.296,-225.212
862.54,-64.172,-266.448
1034.804,-31.72,-325.252
1215.12,-2.44,-390.644
1388.116,-35.136,-464.088
1508.652,-82.96,-478.728
1641.388,-140.788,-445.056
1727.276,-184.464,-404.064
1773.392,-184.22,-390.888
1817.556,-217.16,-369.416
1948.584,-237.168,-338.672
1983.476,-252.54,-270.108
1863.428,-294.02,-177.388
1806.82,-307.196,-88.084
1809.992,-332.328,-3.66
1793.644,-368.44,47.824
1714.344,-365.512,152.744
1558.672,-396.012,253.272
1485.228,-396.5,292.8
1461.316,-361.608,319.64
1330.776,-383.08,334.524
1215.364,-420.168,357.948
1174.128,-409.432,346.724
1126.06,-379.664,313.296
1092.388,-337.696,274.988
976.976,-352.092,256.688
887.672,-284.992,207.888
750.3,-182.024,169.58
519.72,-104.432,145.424
275.232,30.744,95.404
288.408,241.804,0.732
190.808,464.088,-43.188
-80.032,550.708,-81.984
-170.068,622.688,-147.376
-8.296,677.832,-117.608
-77.836,679.052,-141.276
-45.628,678.076,-344.772
-21.96,919.88,70.028
335.256,1031.144,122.976
854.976,1117.764,-23.18
841.556,1076.04,-133.712
667.34,983.076,-184.708
487.512,885.232,-45.628
91.012,927.2,176.9
45.872,991.128,257.176
388.692,996.984,-254.98
235.948,1193.648,15.128
165.432,1290.272,36.6
167.384,1237.568,-60.024
4.88,1122.644,-107.116
-89.06,1090.192,-84.424
-117.852,1044.808,-3.172
-150.06,1001.132,67.832
-91.5,1091.168,73.444
-170.068,1069.94,18.788
-424.56,911.828,-39.284
-513.132,782.02,-68.808
-455.304,723.948,-23.18
-388.448,742.248,24.4
-376.492,766.892,36.844
-357.46,805.688,23.668
-364.536,833.016,3.172
-337.696,834.724,-11.468
-342.088,825.696,-24.4
-330.864,845.948,-15.616
-318.176,907.68,-9.516
-327.936,939.888,-11.224
-309.88,936.96,-12.932
-324.52,925.736,-8.784
-350.628,899.384,-6.588
-365.268,886.452,-2.684
-357.46,893.284,6.832
-348.676,890.6,2.928
-346.236,898.896,1.708
-346.236,880.108,3.416
-350.628,864.004,4.392
-373.564,894.748,1.952
-359.168,905.24,0.732
-370.148,893.04,5.856
-390.888,888.648,7.32
-402.356,888.404,-16.592
-355.264,978.44,-34.892
-315.492,1025.776,-46.116
-317.932,1000.156,-30.744
-307.44,992.348,1.22
-306.708,986.004,15.86
-330.132,950.38,17.812
-345.992,906.46,20.984
-344.04,890.6,30.5
-312.076,909.388,39.528
-314.272,913.536,29.768
-323.544,918.416,10.736
-349.652,924.272,-2.196
-359.412,935.252,-7.32
-350.872,934.52,-13.664
-344.528,946.72,-15.86
-337.452,943.792,-7.564
-338.428,924.516,3.904
-337.452,914.268,15.372
-327.692,903.776,21.716
-310.612,906.948,23.668
-311.344,912.316,22.448
-332.572,911.828,11.224
-338.428,898.164,12.2
-341.6,891.82,19.032
-339.892,907.68,21.96
-333.792,920.612,14.396
-336.72,918.172,8.052
-333.548,916.952,8.784
-330.376,919.392,14.64
-326.716,925.248,17.08
-328.912,929.64,14.152
-318.664,934.52,10.492
-314.028,941.352,4.88
-310.124,939.644,9.028
-315.98,934.276,13.908
-320.86,926.224,19.032
-330.132,917.196,16.348
-326.96,917.928,10.736
-322.812,934.276,0.0
-316.712,937.448,-2.684
-324.032,932.568,1.22
-324.276,932.324,8.052
-328.668,930.616,8.296
-330.132,929.396,6.588
-328.912,934.032,4.148
-328.18,937.936,10.492
-319.884,938.912,20.252
-323.544,936.228,18.788
-323.788,939.156,16.592
-322.324,949.648,20.252
-308.172,964.776,23.18
-307.928,964.776,24.156
-310.368,955.504,30.256
-306.708,948.916,43.188
-294.264,949.648,61.732
-283.528,947.696,79.056
-272.06,949.892,93.696
-254.004,947.208,112.972
-250.832,947.696,132.492
-239.852,955.748,159.82
-241.072,964.776,152.744
-263.52,958.188,121.024
-284.016,948.428,96.868
-285.724,930.128,91.744
-268.4,903.288,89.548
-273.524,881.572,61.976
-301.34,878.888,21.472
-357.704,889.38,5.856
-338.428,909.388,13.176
-302.072,919.392,13.42
-282.308,924.516,-8.052
-312.32,932.324,-3.904
-317.688,937.448,-12.688
-333.792,924.272,-37.088
-316.224,935.252,-77.104
-306.464,948.916,-104.188
-288.164,963.312,-125.66
-254.492,977.22,-130.54
-268.156,977.464,-146.644
-281.332,972.584,-164.7
-284.504,963.8,-161.528
-277.916,974.536,-144.448
-280.112,993.812,-133.224
-300.852,992.104,-122.0
-314.272,973.072,-107.116
-318.664,944.524,-101.748
-300.364,918.416,-82.472
-286.212,886.452,-68.564
-262.544,840.092,-51.728
-286.7,803.004,-23.424
-245.22,762.012,-3.172
-219.6,705.16,36.112
-139.568,713.7,79.3
193.248,884.744,186.66
648.796,1058.228,136.152
738.588,921.588,-98.088
910.608,961.604,-154.94
1045.052,854.976,-356.728
-79.788,745.664,-374.784
-811.544,391.62,210.816
718.58,227.164,190.808
1696.044,-81.984,209.352
1154.12,-132.98,251.564
669.292,-24.156,246.196
689.056,53.924,216.428
869.616,1.464,146.156
858.392,-94.428,107.116
816.668,-83.204,84.424
773.724,12.444,20.496
773.48,111.752,-40.26
830.576,78.324,-116.632
836.432,-59.536,-121.512
955.016,-95.892,-116.876
1078.968,-135.664,-96.38
1163.392,-160.064,-142.74
1229.76,-148.352,-135.908
1445.7,-132.492,-83.204
1556.964,-207.888,-21.716
1600.152,-268.644,-10.98
1666.276,-274.256,9.028
1828.048,-182.512,44.896
1815.604,-144.692,97.6
1649.684,-185.684,122.976
1561.844,-142.74,160.308
1509.872,-112.24,203.008
1437.648,-137.372,230.092
1356.64,-193.248,299.388
1401.048,-205.448,370.148
1370.06,-245.708,467.016
1273.924,-323.544,520.452
1240.984,-389.912,598.044
1287.344,-375.76,630.984
1363.716,-348.92,615.368
1367.132,-280.6,565.592
1310.036,-178.852,514.352
1181.936,-74.176,450.424
1016.504,-6.588,348.188
877.424,41.724,275.232
831.064,122.976,171.288
812.52,235.216,119.804
827.892,261.812,53.924
682.712,229.36,26.596
565.348,200.324,9.76
485.804,289.14,3.416
360.388,386.252,-4.148
210.328,404.308,-14.152
86.62,379.908,-11.956
74.908,406.992,-15.86
52.216,481.168,-33.184
40.992,578.768,-79.788
135.176,681.004,-115.412
286.944,786.9,-137.128
451.156,877.668,-155.184
587.064,940.132,-134.932
547.536,988.688,-107.848
504.104,1052.372,-79.056
496.296,1083.848,-56.852
384.056,1070.184,-45.628
271.084,1055.788,-55.632
160.796,973.56,-87.84
146.4,931.836,-88.084
73.932,910.608,-35.136
-21.472,967.216,40.26
-98.82,1094.584,85.644
-145.18,1123.864,58.56
-180.804,1084.336,33.916
-252.54,1037.244,11.468
-301.34,980.88,-14.64
-313.54,920.612,-24.4
-335.5,868.152,4.636
-330.376,837.164,16.348
-340.38,849.364,2.928
-341.112,874.496,-27.328
-352.092,854.732,-60.512
-402.356,844.484,-71.004
-402.844,858.148,-72.712
-380.884,908.412,-77.592
-348.676,942.816,-73.2
-345.992,941.596,-71.492
-347.212,925.736,-57.096
-324.52,908.9,-41.968
-315.492,909.632,-34.892
-312.32,917.928,-25.132
-298.9,925.736,-23.668
-296.216,941.84,-18.056
-285.724,936.228,-20.496
-294.508,926.956,-20.496
-329.4,941.352,-24.644
-328.18,951.6,-33.184
-346.48,956.724,-33.672
-331.108,973.072,-36.356
-315.004,968.192,-33.672
-322.08,951.6,-31.476
-326.716,938.18,-23.668
-322.324,941.596,-11.712
-307.684,948.428,-10.004
-296.46,953.064,-6.1
-305.0,944.28,-6.344
-314.516,927.688,-0.976
-314.76,920.368,-3.66
-315.004,922.076,-5.368
-304.756,935.252,-8.54
-293.776,938.424,-11.468
-312.32,938.668,-5.612
-321.348,925.492,-2.44
-316.956,919.148,0.732
-306.22,923.784,-1.464
-302.804,925.004,1.464
-310.368,922.32,7.32
-313.54,920.612,4.636
-290.604,929.64,4.148
-288.652,934.764,17.568
-278.648,936.472,24.888
-273.036,936.96,25.376
-262.788,943.304,21.716
-269.132,937.448,7.32
-298.412,923.296,-5.368
-306.22,931.592,-13.42
-303.292,937.936,-17.812
-307.44,936.228,-17.568
-317.932,924.516,-19.276
-318.664,917.928,-22.692
-305.488,926.712,-24.888
-292.068,935.008,-27.084
-283.528,941.84,-24.644
-279.624,946.72,-20.252
-274.256,955.504,-13.176
-281.088,960.872,-6.344
-283.04,967.46,2.44
-284.992,975.756,10.98
-283.772,977.952,15.86
-287.92,970.876,18.544
-281.088,977.952,20.008
-266.692,984.54,24.888
-269.62,982.1,20.984
-273.768,970.876,4.88
-272.792,967.704,-12.444
-275.476,962.824,-10.248
-287.92,958.92,3.172
-284.26,947.696,13.664
-287.188,936.228,7.808
-281.332,923.54,-1.952
-265.472,920.856,-10.736
-268.156,918.416,-15.372
-286.456,907.436,-14.152
-284.26,903.776,-19.764
-286.212,911.34,-31.232
-286.7,918.172,-37.82
-302.316,919.88,-31.232
-301.584,925.98,-16.592
-302.072,927.2,4.636
-295.972,922.32,23.18
-286.212,918.904,42.212
-291.824,931.592,61.0
-293.288,943.792,80.52
-291.824,953.308,74.908
-268.888,964.044,60.268
-247.172,978.928,38.308
-235.948,986.98,6.344
-252.052,979.416,-36.6
-246.684,975.024,-60.024
-244.244,975.268,-66.856
-244.976,971.12,-72.224
-261.324,957.7,-86.62
-274.012,946.232,-96.868
-283.528,927.688,-99.796
-292.068,914.268,-97.112
-294.508,905.728,-93.208
-306.708,908.656,-91.012
-310.368,917.684,-93.208
-304.756,928.908,-97.112
-314.272,934.032,-91.5
-311.588,936.96,-78.568
-308.416,944.28,-61.732
-294.02,948.428,-42.212
-281.82,949.892,-25.864
-278.16,950.624,-10.492
-275.476,959.408,-5.124
-266.204,968.436,0.732
-270.108,982.1,-6.344
-263.764,986.736,-5.368
-273.524,988.932,5.612
-298.168,995.032,10.492
-280.356,1087.264,39.04
-47.092,1382.504,101.992
19.52,1461.316,21.228
-85.644,1325.896,-81.74
244.244,1267.336,-5.124
380.152,1053.836,17.812
364.048,620.736,71.248
258.884,311.1,200.324
351.848,335.988,206.668
548.756,681.492,272.06
671.488,781.776,189.1
729.56,551.928,90.036
805.444,444.08,174.948
811.3,517.524,266.936
702.964,549.488,283.04
758.84,532.652,221.308
753.96,493.856,212.768
769.332,478.484,202.276
816.912,535.824,209.596
856.44,614.392,210.328
817.156,607.804,204.96
864.98,533.872,190.564
879.376,440.176,205.204
819.352,421.876,200.812
752.252,480.192,205.936
652.944,481.168,168.36
514.108,464.82,132.492
397.476,388.692,90.036
303.536,256.2,65.636
294.752,123.708,106.872
237.168,64.904,145.668
148.108,2.928,146.888
138.592,-91.5,101.504
212.28,-194.224,70.028
295.484,-246.196,21.472
542.656,-152.256,-60.024
883.768,-31.964,-143.96
1212.436,-11.468,-183.488
1484.984,-108.336,-151.28
1725.324,-178.608,-74.664
1796.816,-213.012,-16.592
1734.84,-233.752,-38.552
1738.256,-206.668,-72.468
1794.132,-245.952,-85.644
1722.396,-308.904,-135.176
1604.056,-306.952,-177.632
1549.888,-244.732,-237.168
1548.18,-183.0,-247.904
1470.1,-90.524,-203.252
1382.26,-34.404,-185.44
1298.812,-123.464,-126.636
1259.528,-175.68,-67.832
1202.676,-157.136,75.64
1158.268,-201.788,163.968
1089.216,-371.856,263.764
1105.32,-499.712,421.144
1171.2,-523.136,533.14
1281.244,-398.208,559.492
1529.392,-206.912,551.44
1713.612,-119.072,514.84
1575.752,-151.28,490.44
1399.096,-100.528,462.136
1261.724,-27.816,437.492
1152.168,24.888,374.052
1073.844,59.536,297.68
941.84,76.372,214.72
875.716,183.732,171.044
830.82,305.244,109.068
775.188,397.476,94.916
700.524,502.64,48.068
638.548,562.176,37.82
511.18,640.012,19.52
426.024,675.392,4.148
306.952,650.504,13.908
107.116,659.288,3.66
8.54,699.06,-6.1
13.176,712.236,22.448
-65.148,725.9,39.04
-156.16,739.808,10.004
-198.616,757.376,-52.216
-277.428,680.516,-104.188
-344.284,660.264,-104.432
-288.164,724.68,-99.552
-292.068,806.176,-54.412
-291.092,821.304,-65.636
-337.696,823.256,-103.456
-405.772,813.984,-156.404
-396.256,785.924,-199.104
-384.544,812.276,-188.612
-322.812,848.876,-163.236
-282.064,886.696,-105.896
-280.356,913.536,-97.6
-290.604,938.668,-121.024
-292.068,958.676,-124.928
-280.112,939.888,-116.144
-286.456,943.792,-77.592
-295.972,981.612,-63.928
-249.612,1010.892,-68.564
-265.472,1022.116,-89.792
-275.232,1002.84,-87.596
-274.744,952.576,-95.648
-253.028,988.932,-111.264
-276.696,990.64,-91.988
-269.864,979.66,-81.984
-290.604,957.212,-88.084
-303.536,963.556,-72.224
-346.236,942.816,-50.508
-378.444,940.62,-55.876
-344.528,932.08,-62.22
-430.416,929.152,5.124
-530.456,939.644,84.912
-472.872,882.06,132.98
53.192,891.332,-122.488
-202.764,855.708,-25.132
-404.308,985.516,2.928
-135.908,984.052,-288.896
-162.26,980.636,-269.62
-311.588,943.06,-122.488
-421.388,950.38,-31.232
-286.456,895.236,30.744
-3.66,927.932,58.316
-45.872,938.18,14.396
-102.48,977.464,-0.976
-124.196,987.468,122.0
-101.016,966.972,-4.148
-281.088,864.492,-106.872
-223.504,883.28,134.688
-17.08,984.296,231.068
-10.736,1006.012,91.256
-197.884,1024.556,92.72
-285.236,1011.136,81.984
-244.732,1047.736,87.352
-207.888,1063.352,95.404
-136.64,1027.972,66.124
-158.356,1050.42,55.388
-216.428,964.288,48.8
-231.068,961.116,19.52
-285.48,972.584,40.504
-264.74,1017.236,36.844
-249.124,978.196,42.944
-292.312,963.312,14.884
-273.036,968.68,11.956
-247.66,962.824,-4.88
-254.492,951.112,-7.076
-233.264,925.492,-27.816
-238.876,918.172,-29.036
-230.58,916.952,-30.256
-249.612,893.528,-24.644
-253.272,898.408,-13.664
-253.272,910.608,-8.296
-236.436,934.276,-11.712
-232.776,958.676,-4.636
-220.332,977.22,11.956
-230.336,981.124,35.38
-229.604,988.688,49.532
-209.108,988.932,39.04
-174.216,1001.132,32.452
-179.828,977.708,3.172
-192.76,937.936,-16.104
-225.212,906.46,-22.204
-247.66,904.996,-19.764
-260.836,905.24,-14.396
-286.456,931.348,-10.736
-286.212,953.796,9.272
-273.036,969.656,32.696
-269.62,979.416,49.532
-240.34,987.224,43.432
-217.404,989.42,34.648
-213.988,982.1,33.916
-220.332,955.748,33.672
-216.672,943.792,17.324
-200.324,948.184,-17.812
-197.884,961.604,-54.168
-212.036,951.112,-78.324
-250.588,944.524,-89.06
-250.832,953.308,-94.916
-254.248,966.484,-92.964
-254.98,973.804,-84.668
-247.416,978.928,-78.568
-247.66,974.292,-74.176
-244.0,960.14,-74.176
-254.98,940.864,-72.712
-250.1,941.352,-72.468
-239.12,945.988,-58.316
-242.292,935.252,-49.532
-265.472,918.416,-36.6
-276.696,919.88,-26.596
-285.236,930.616,-19.032
-287.188,937.936,-18.056
-286.456,933.544,-14.396
-305.488,918.66,1.952
-280.6,861.076,57.584
-288.896,839.848,67.588
-370.148,782.02,54.9
-121.512,794.464,75.64
411.872,874.496,18.788
777.872,1121.424,-57.34
862.784,1293.688,14.64
688.812,1447.652,126.88
163.236,533.14,-160.308
-611.22,-214.72,-533.628
-394.548,-76.86,-116.144
1371.768,191.052,210.816
2088.64,32.452,321.104
1317.844,-34.16,217.892
816.668,15.372,132.736
996.008,163.236,146.888
1210.972,234.972,187.636
1118.74,202.032,168.36
995.764,93.452,168.116
1053.836,38.064,189.344
1088.484,42.7,220.576
1004.548,51.484,212.524
845.46,30.5,171.776
770.064,13.42,133.956
725.9,39.528,102.968
694.668,71.248,55.388
541.192,-42.944,-3.904
566.324,-148.84,-50.996
666.364,-211.06,-104.92
736.392,-232.776,-180.316
795.928,-208.864,-246.928
840.58,-196.908,-310.368
983.32,-184.952,-354.776
1123.132,-152.744,-387.96
1182.912,-143.228,-403.088
1239.276,-167.628,-391.132
1390.556,-230.58,-329.644
1511.824,-284.748,-227.896
1460.828,-404.064,-139.324
1476.688,-477.264,-57.34
1526.22,-514.84,59.292
1496.696,-559.736,172.508
1443.016,-559.248,250.1
1433.5,-543.632,339.404
1435.696,-560.468,399.916
1462.78,-590.236,454.328
1551.596,-554.368,477.264
1530.856,-494.588,516.548
1449.848,-479.704,526.552
1390.556,-499.224,522.404
1402.024,-450.668,483.364
1368.352,-371.124,458.964
1220.0,-321.836,405.772
1106.296,-272.548,338.184
1062.132,-168.36,281.576
1021.628,-92.232,226.676
936.472,-60.024,161.772
899.14,0.976,95.648
918.416,121.756,60.512
893.528,192.028,34.404
800.808,168.604,9.516
615.124,194.468,0.244
318.42,276.94,-3.904
145.424,361.12,-62.708
189.588,435.54,-2.44
417.972,448.96,-56.364
321.836,451.4,-4.636
154.452,389.18,-43.676
244.732,409.92,-53.68
521.184,512.888,-80.764
722.24,672.708,-29.036
799.588,740.54,-99.064
853.512,768.356,-90.768
835.7,762.744,-42.7
784.704,720.044,28.548
793.976,702.964,47.336
858.636,743.712,61.244
872.3,791.536,55.632
804.956,822.524,86.376
667.34,818.132,77.348
414.8,795.44,87.352
338.184,844.24,72.468
254.004,865.712,-29.524
255.224,964.532,117.608
498.004,1067.012,-67.588
594.628,1197.308,-253.028
691.496,1208.044,-204.96
692.228,1184.376,-200.812
523.868,1000.888,-248.148
239.364,884.744,-224.968
586.088,1053.104,-450.18
690.032,1028.46,-368.928
-141.764,927.932,564.86
-337.452,693.204,346.48
-192.028,666.852,-132.736
-183.0,831.064,208.132
-80.52,915.0,212.768
-252.54,911.584,136.396
-281.576,887.428,71.492
-318.176,798.368,31.72
-400.892,728.096,-17.568
-359.9,787.632,-25.376
-333.792,843.264,-2.44
-325.984,848.388,-17.324
-344.772,893.284,-8.296
-306.464,885.476,-10.004
-355.508,837.652,-14.64
-351.848,863.272,-21.472
-312.564,908.9,-24.156
-276.452,969.168,-37.82
-275.72,965.02,-15.616
-224.236,959.896,21.96
-207.4,978.196,41.968
-189.344,998.936,52.216
-186.66,996.496,50.02
-201.788,982.832,47.58
-206.424,991.372,47.824
-232.532,990.64,35.624
-206.668,994.544,13.664
-212.036,1005.768,13.176
-215.94,992.592,8.296
-254.736,976.0,19.52
-262.3,975.512,15.372
-266.692,977.952,16.104
-271.816,972.584,7.564
-266.204,968.192,10.98
-242.048,962.336,12.932
-254.004,945.256,-3.172
-271.816,928.42,-22.448
-270.352,928.664,-28.548
-255.956,943.304,-20.008
-250.832,960.628,-9.516
-248.148,976.976,-10.98
-247.66,988.688,-14.152
-257.176,991.86,-9.272
-253.76,996.74,-6.588
-219.356,1000.156,18.056
-211.304,974.536,31.476
-220.088,936.716,31.964
-220.332,915.488,26.84
-222.772,920.612,10.248
-210.572,951.6,1.708
-194.712,986.248,-15.616
-186.904,1004.792,-24.644
-185.928,1000.888,-25.62
-202.276,982.1,-18.3
-207.644,960.384,-6.588
-213.988,956.48,2.928
-223.26,951.6,4.88
-228.628,953.796,6.1
-227.652,952.332,5.124
-219.356,955.26,-1.708
-208.132,955.016,-1.952
-197.396,948.184,3.172
-189.588,939.888,11.224
-193.248,931.836,21.228
-188.856,934.276,23.424
-198.86,936.716,20.984
-211.792,939.644,22.448
-243.024,945.5,20.496
-257.176,970.144,15.372
-256.932,987.712,16.348
-244.976,1010.404,23.424
-228.872,1029.68,31.72
-225.944,1005.036,18.544
-225.456,997.472,17.324
-209.596,1001.376,31.232
-188.856,986.004,24.644
-221.796,1003.084,21.96
-185.684,994.3,-29.28
-207.4,960.14,-30.744
-192.76,955.016,-9.76
-187.148,954.528,36.356
-183.0,953.796,71.736
-163.968,955.016,89.304
-130.784,969.9,88.816
-102.724,969.168,72.956
-125.172,955.26,40.016
-159.82,938.668,10.248
-163.48,929.64,-5.368
-149.816,931.104,-13.42
-151.036,943.304,-19.032
-156.648,964.532,-27.816
-168.604,968.192,-40.504
-210.816,965.508,-49.532
-241.804,946.476,-60.024
-249.612,928.176,-78.324
-237.656,946.964,-51.24
-186.904,937.692,-92.232
-193.248,940.864,-91.5
-199.836,928.908,-106.384
-185.44,904.508,-103.7
-217.16,864.736,-96.38
-240.096,798.368,-81.252
-284.504,699.06,-92.232
-344.772,635.62,-78.812
-211.548,615.612,66.856
391.376,777.628,136.64
793.0,1095.072,239.852
1079.212,1248.06,86.62
1447.408,1537.444,-0.488
1337.364,1226.344,-243.756
-403.088,470.676,-1079.7
-1816.58,575.84,125.416
1992.504,1275.632,286.944
2951.18,336.72,25.62
1381.772,222.04,213.744
700.768,407.48,273.28
790.072,405.772,243.756
1088.972,335.256,235.216
1053.104,271.572,258.396
822.768,199.348,215.208
697.352,232.044,179.34
617.808,317.688,154.452
520.696,327.204,95.404
463.356,250.344,65.88
416.264,169.336,43.432
387.472,115.9,56.608
339.404,25.376,75.152
232.288,-64.904,74.176
222.772,-141.276,79.788
342.088,-226.432,49.044
551.44,-222.772,-58.804
851.072,-145.424,-151.28
1114.836,-61.488,-192.76
1255.136,-121.268,-188.612
1434.964,-247.904,-159.576
1596.736,-334.28,-95.648
1696.532,-374.296,-63.684
1702.144,-430.416,-43.92
1675.548,-521.916,-19.764
1598.688,-509.716,8.052
1518.9,-441.884,21.472
1544.52,-404.064,29.768
1541.836,-401.624,89.06
1466.196,-427.488,136.152
1420.08,-465.064,203.74
1387.14,-496.052,293.776
1477.908,-455.304,366.732
1510.848,-408.944,469.212
1414.712,-426.268,511.668
1259.528,-480.68,571.692
1269.776,-451.644,625.128
1292.956,-380.396,646.356
1261.968,-327.448,612.684
1147.532,-330.62,564.86
1150.948,-321.348,506.544
1243.912,-232.532,460.184
1239.276,-165.188,398.94
1179.496,-118.34,313.784
1082.384,-50.752,269.864
966.484,-23.18,204.472
777.14,-22.448,144.936
606.34,38.308,46.848
593.408,173.24,25.132
553.392,275.476,12.688
354.044,282.552,0.488
110.044,267.18,-33.428
80.52,314.272,-32.94
357.46,430.172,-24.888
502.884,475.312,-51.484
634.156,512.888,-84.668
731.024,586.088,-63.684
775.92,674.66,-40.504
739.076,715.164,-19.52
587.796,719.312,1.952
532.408,768.356,10.736
434.564,808.372,51.24
142.252,999.912,309.392
487.024,1112.396,-89.304
488.488,1226.832,-235.948
444.324,1237.812,-494.1
366.732,1384.944,-761.036
929.884,1815.116,-709.308
847.656,1512.312,-568.276
516.548,1219.268,-442.616
783.484,768.356,-629.52
785.924,290.116,-512.156
89.792,17.812,230.092
-666.364,576.572,862.052
-305.244,884.256,395.28
-284.748,970.388,191.052
-283.284,930.616,73.688
-407.48,797.392,-32.94
-480.68,738.344,-31.72
-348.676,787.876,46.848
-226.92,844.728,52.948
-240.584,889.38,39.04
-267.668,890.6,14.884
-360.876,886.696,-51.484
-417.484,894.26,-72.956
-355.996,922.32,-82.96
-310.612,927.2,-53.68
-257.664,925.98,-31.72
-272.548,918.172,-6.588
-294.996,908.412,-10.248
-328.424,923.54,-17.324
-303.78,947.94,-40.748
-318.42,966.484,-34.16
-311.344,955.504,-40.016
-325.984,936.228,-27.816
-309.636,963.8,-33.428
-291.336,971.608,-13.176
-283.04,951.6,-12.932
-286.944,935.74,-4.88
-270.108,982.1,-2.928
-261.568,999.424,-3.172
-280.6,972.584,-13.908
-320.86,939.644,-3.416
-298.656,940.864,13.908
-292.068,923.784,10.98
-291.824,901.58,7.808
-299.388,911.584,15.128
-281.576,920.612,18.544
-270.596,923.54,13.664
-287.92,930.616,2.44
-281.576,936.96,1.952
-321.104,920.612,-9.516
-322.324,913.78,-8.296
-304.512,915.0,6.588
-300.12,920.856,11.956
-281.576,920.856,19.764
-274.744,921.1,32.208
-259.372,930.128,36.6
-263.032,937.692,40.016
-253.76,947.208,35.624
-254.492,957.456,40.504
-253.028,968.192,41.236
-256.2,962.824,36.112
-267.18,955.26,34.404
-264.74,950.868,38.308
-262.544,961.848,43.432
-276.696,980.88,47.092
-275.232,994.3,46.604
-269.62,996.74,57.828
-270.108,996.496,91.988
-266.448,997.228,143.96
-247.66,1011.38,183.244
-232.532,1035.536,212.28
-219.844,1040.66,203.008
-223.26,1033.584,178.12
-200.812,1023.092,151.768
-192.272,1013.82,137.616
-189.588,1005.28,108.092
-208.376,996.74,77.592
-195.444,998.448,43.676
-211.548,972.096,29.524
-228.384,939.4,6.832
-229.848,925.736,-7.564
-229.116,915.0,-24.644
-221.552,907.68,-46.604
-230.58,918.172,-58.56
-241.072,939.644,-73.932
-245.464,963.312,-84.424
-264.984,993.568,-93.696
-280.356,1023.336,-96.868
-283.528,1047.736,-95.892
-325.252,1014.552,-78.08
-277.184,1023.336,-119.56
-276.94,1005.036,-81.74
-289.872,951.844,-79.056
-328.668,865.712,-57.584
-337.208,842.776,-74.42
-301.34,830.332,-66.124
-332.328,795.684,-74.176
-325.252,766.16,-76.372
-322.08,743.956,-60.756
-300.852,752.008,-64.904
-312.32,751.52,-69.784
-312.808,757.62,-57.096
-313.54,781.288,-42.944
-325.74,804.712,-46.848
-335.988,853.268,-38.308
-325.008,908.412,-26.596
-322.812,952.332,-31.72
-294.996,1006.5,-1.708
-319.884,1006.988,56.12
-153.232,1044.076,1.22
-38.796,1091.9,106.384
378.444,1219.268,124.928
594.384,1426.668,155.428
875.96,1483.764,145.912
763.72,1422.764,132.492
688.08,1006.012,191.54
177.388,127.612,-539.972
-115.412,225.456,-54.9
942.084,636.108,428.464
1392.264,476.532,398.696
897.92,253.516,104.92
640.744,463.6,148.108
647.088,608.536,244.0
792.756,516.792,71.248
791.78,387.96,90.036
763.72,321.104,142.252
643.916,251.808,180.072
507.764,267.424,206.668
432.612,249.856,208.132
374.052,124.196,145.668
345.992,45.14,104.92
226.432,30.988,91.012
186.904,-12.688,115.168
196.42,-115.656,80.032
418.704,-151.28,15.372
549.976,-154.208,-28.792
816.18,-155.916,-101.504
1112.152,-92.72,-117.608
1264.408,-59.78,-181.78
1409.588,-108.336,-202.764
1540.128,-145.912,-214.964
1604.544,-160.064,-179.584
1551.352,-188.612,-78.08
1508.652,-288.896,-25.62
1526.22,-380.396,22.692
1596.492,-414.556,79.788
1636.996,-475.556,127.124
1665.788,-476.776,191.052
1561.112,-465.796,238.144
1476.688,-457.5,248.636
1490.84,-385.276,271.084
1498.892,-306.22,321.348
1459.364,-305.488,361.608
1410.32,-338.184,410.896
1333.46,-380.884,468.48
1283.196,-420.9,507.276
1246.352,-417.728,536.556
1225.124,-418.216,549.0
1203.164,-423.096,553.636
1118.008,-383.08,529.724
1101.66,-325.496,496.296
1101.66,-299.144,451.156
1103.856,-280.112,402.112
1094.096,-253.76,371.368
1039.928,-222.284,335.5
934.032,-203.252,306.952
910.364,-134.688,260.592
830.088,-93.94,230.824
800.808,-25.62,181.292
806.176,44.408,157.136
735.416,114.192,117.12
623.176,198.616,76.616
506.544,264.496,60.512
471.652,321.592,8.784
475.312,395.768,25.864
476.532,383.324,56.12
322.568,433.344,19.52
229.848,497.028,-6.1
310.124,570.716,-8.296
462.868,575.108,-40.016
620.248,608.292,-38.064
733.952,650.016,-16.836
806.664,701.988,2.928
780.068,745.664,18.788
781.044,756.156,12.932
750.544,784.46,44.652
671.732,803.492,100.772
623.176,832.772,58.316
629.764,973.316,-44.408
694.424,1098.0,-116.388
848.388,1116.3,-289.384
694.668,1345.904,-294.02
484.584,1101.172,-215.452
505.812,1003.328,-334.28
444.324,1025.776,-230.092
251.076,995.764,39.04
89.304,982.832,193.004
175.924,866.688,65.636
-23.18,849.852,41.236
-146.4,868.64,-33.916
-244.732,920.612,32.94
-236.68,915.976,-43.188
-309.88,861.808,-79.056
-314.76,822.036,-85.4
-363.316,792.756,-87.84
-375.272,792.024,-49.776
-295.972,843.02,-56.608
-304.756,830.576,-53.192
-285.724,824.964,-82.716
-283.528,890.112,-84.18
-256.688,911.096,-83.936
-256.688,866.932,-93.208
-296.948,862.052,-78.08
-297.436,926.956,-76.616
-239.852,1003.084,-103.944
-249.124,1027.484,-82.472
-273.524,985.76,-103.944
-297.68,945.256,-76.86
-276.94,954.04,-34.16
-249.856,956.236,-17.568
-254.98,939.888,-8.54
-254.004,927.688,-12.2
-258.152,919.148,-16.592
-289.628,907.192,-32.94
-309.88,909.144,-41.236
-307.44,903.044,-27.572
-311.344,903.044,-20.252
-300.608,913.78,-19.764
-273.28,937.204,-27.328
-278.16,917.928,-28.304
-250.588,956.968,-33.916
-223.992,966.24,-22.204
-221.308,989.42,-27.328
-198.128,1015.528,-3.904
-208.864,975.512,-15.372
-229.116,964.288,-15.86
-228.872,974.292,-16.104
-254.492,969.656,-39.284
-275.232,962.58,-46.604
-273.524,957.456,-47.336
-261.324,962.58,-41.724
-251.076,982.832,-38.796
-231.068,985.76,-35.38
-242.048,966.728,-38.552
-250.1,950.136,-30.5
-231.8,942.572,-21.716
-221.552,950.136,-12.2
-213.256,954.284,-11.224
-223.748,949.404,-15.616
-224.968,946.964,-21.96
-220.332,950.136,-29.036
-225.944,945.256,-32.452
-235.216,941.84,-30.744
-240.34,945.5,-22.692
-256.2,938.18,-22.692
-262.788,928.664,-29.524
-266.204,928.908,-28.792
-245.708,957.212,-30.988
-239.608,978.196,-37.088
-227.652,987.712,-41.48
-234.484,985.028,-43.676
-227.164,991.372,-41.48
-219.356,997.716,-37.332
-221.796,994.3,-37.82
-231.312,993.08,-38.552
-234.728,984.052,-34.16
-241.804,971.608,-34.16
-241.56,968.192,-36.6
-228.872,979.904,-39.528
-235.216,971.852,-37.332
-238.876,956.724,-39.04
-233.752,949.404,-25.132
-230.336,941.352,-23.424
-241.804,932.08,-26.84
-246.684,943.06,-36.112
-240.828,948.428,-38.552
-230.336,949.404,-35.136
-219.6,949.404,-30.256
-225.7,941.352,-25.376
-233.996,927.444,-25.132
-235.948,928.664,-25.62
-242.292,934.764,-20.252
-243.268,938.912,-34.648
-256.2,947.452,-39.04
-247.416,954.528,-41.724
-242.292,950.136,-35.38
-242.292,944.28,-27.328
-240.096,942.816,-22.692
-229.848,949.648,-22.204
-228.14,958.432,-25.864
-219.6,967.948,-29.28
-224.968,973.56,-33.184
-226.92,978.684,-42.456
-233.264,978.44,-50.508
-232.044,973.072,-46.116
