acc_x[mg],acc_y[mg],acc_z[mg]
161.284,996.252,18.544
151.524,996.496,24.888
146.644,1000.4,29.036
143.716,986.248,27.328
145.912,983.808,16.836
138.592,980.148,10.98
124.684,979.172,10.736
128.832,980.392,9.028
137.128,976.732,8.54
143.96,980.148,11.956
134.932,984.54,12.444
131.272,983.808,7.808
137.86,986.248,3.66
135.908,989.664,5.124
121.268,987.224,7.32
119.316,983.808,4.636
123.464,985.76,3.904
126.392,988.688,3.66
126.148,990.396,6.1
128.588,991.128,10.736
136.64,997.228,12.932
142.74,996.984,16.348
142.496,996.252,16.592
122.488,987.956,11.712
113.46,985.028,8.296
111.996,982.1,8.784
107.848,979.66,5.612
110.532,980.88,2.196
123.952,980.148,-2.196
122.244,981.612,-7.564
126.148,993.08,-8.54
125.416,996.984,-3.172
129.076,992.836,2.44
130.052,986.492,6.344
116.388,978.44,12.932
98.576,971.608,21.96
94.184,971.364,26.596
103.944,975.756,24.156
116.632,976.976,15.372
124.196,986.492,12.688
135.908,998.448,7.808
136.884,1005.036,4.636
135.176,1006.744,-0.244
119.804,995.764,-1.708
105.896,983.808,-4.636
101.992,980.88,-9.76
103.944,984.54,-7.564
113.216,992.592,-2.196
109.312,986.98,4.148
97.356,977.464,9.272
92.232,976.0,9.516
94.428,978.44,10.736
101.016,983.808,10.98
99.796,982.1,8.54
101.992,987.224,5.368
97.6,989.176,3.172
92.72,995.52,5.612
102.968,998.448,8.54
98.088,991.616,9.272
86.62,996.252,3.416
87.596,1004.304,-1.464
95.648,1011.38,2.44
93.696,1006.5,0.488
75.64,990.884,-4.392
68.564,985.516,-11.224
78.08,988.932,-17.568
83.692,992.592,-15.86
75.396,993.324,-16.348
65.392,982.344,-17.324
65.148,969.168,-17.324
67.1,964.776,-19.52
81.496,968.192,-15.86
89.06,975.756,-15.372
90.28,981.124,-12.688
81.74,986.492,-1.464
84.912,988.688,-0.488
85.644,988.444,-0.732
82.228,995.276,-7.564
69.052,998.204,-8.296
68.564,996.252,-5.856
69.296,992.836,-4.392
71.98,998.692,-7.32
67.344,999.912,-7.076
70.516,999.912,-6.588
65.88,995.764,-5.124
60.268,990.152,-4.148
53.436,986.736,-1.708
42.944,976.244,-9.272
58.804,982.1,-10.98
77.592,989.42,-3.66
86.62,1001.132,-4.636
73.444,996.008,-7.076
55.632,988.688,-14.396
40.748,981.856,-16.592
43.676,979.416,-16.348
46.36,979.172,-16.104
41.236,982.832,-18.056
48.8,982.588,-19.764
58.56,992.104,-16.592
56.608,994.544,-7.32
48.556,990.152,-0.976
41.724,979.172,0.976
32.94,966.728,-5.612
52.704,977.22,-10.004
70.028,986.736,-11.956
72.468,992.348,-9.272
55.144,988.444,-6.588
35.136,989.664,1.952
10.736,1026.508,28.06
-31.964,1090.924,64.904
-56.852,1149.972,66.856
-43.188,1181.692,53.924
-55.388,1183.644,33.184
-102.236,1122.888,17.812
-127.124,1062.62,2.928
-151.524,945.744,23.424
-78.812,914.756,-10.004
79.788,846.192,30.256
127.124,679.54,-49.288
112.728,580.964,-101.016
40.748,581.94,-94.672
70.028,535.824,-29.524
221.796,508.984,-62.464
499.712,523.868,-79.788
712.48,534.604,-106.384
728.584,470.188,-77.592
587.552,401.136,-2.928
489.952,257.664,117.12
646.356,63.928,150.06
948.916,-38.796,125.904
1263.188,-22.204,100.284
1235.372,-20.252,40.016
1048.468,37.088,19.52
944.28,-47.824,82.716
980.392,-174.704,134.2
1059.204,-243.512,160.796
1074.82,-242.78,154.452
997.228,-223.26,115.9
982.588,-264.008,70.028
1143.628,-334.036,56.12
1222.928,-358.192,42.944
1230.736,-354.532,41.236
1188.036,-339.648,15.616
1181.448,-333.792,9.272
1210.484,-320.128,18.544
1243.18,-349.408,7.32
1238.788,-359.656,21.716
1221.952,-346.236,38.064
1173.64,-340.624,22.936
1174.616,-322.568,4.392
1196.82,-308.904,8.052
1180.716,-306.464,8.784
1146.068,-297.68,3.416
1154.608,-308.172,-12.932
1144.848,-308.416,-17.08
1102.148,-293.532,-9.272
1083.848,-289.872,-10.98
1067.744,-313.052,-29.28
1053.348,-309.88,-32.94
1043.1,-300.852,-17.324
1046.272,-312.32,-5.368
1010.404,-334.28,-14.64
972.828,-331.84,-20.008
975.512,-330.376,-3.66
974.048,-341.112,8.296
959.652,-327.448,3.904
960.384,-320.128,0.488
987.956,-300.12,-4.88
1031.876,-310.612,4.636
1071.648,-315.736,10.736
1156.316,-297.192,34.892
1227.32,-270.596,78.08
1366.4,-254.98,95.648
1548.912,-284.748,65.392
1712.148,-335.744,23.668
1840.248,-332.328,31.232
1853.18,-356.484,60.268
1769.732,-369.66,67.344
1708.976,-393.572,43.432
1695.8,-428.464,23.424
1605.764,-463.112,-11.712
1496.208,-469.944,-55.388
1405.684,-470.92,-91.988
1257.332,-441.884,-131.516
1158.268,-373.32,-170.068
1036.756,-352.336,-234.484
894.748,-282.552,-294.02
747.128,-223.748,-358.68
579.988,-157.868,-407.48
419.68,-106.872,-447.496
289.628,-57.828,-469.7
124.928,-26.596,-441.152
-93.452,32.452,-346.236
-268.4,70.76,-233.752
-282.064,86.62,-164.212
-204.96,33.916,-34.16
-161.04,-16.348,144.448
-123.22,-53.192,280.844
15.372,-87.108,347.7
189.832,-125.66,466.528
414.312,-151.524,584.624
627.812,-180.316,703.452
766.892,-253.028,796.66
989.176,-321.348,841.068
1295.152,-323.056,857.172
1560.136,-298.412,839.604
1730.204,-266.204,751.276
1869.04,-305.0,649.772
1917.108,-334.28,569.496
1936.384,-294.996,435.296
1923.94,-287.676,290.116
1876.116,-267.18,172.508
1705.56,-264.252,53.192
1533.784,-210.816,-85.156
1404.708,-166.652,-267.18
1270.264,-119.316,-404.796
1136.796,-62.952,-489.952
971.608,-47.824,-534.36
804.224,-11.956,-525.088
690.276,-10.004,-480.192
669.292,-1.952,-424.56
685.884,17.324,-386.252
718.092,31.476,-329.4
771.772,50.508,-267.424
850.34,52.704,-177.876
901.58,16.592,-100.772
946.964,-12.2,-50.02
1011.624,-32.208,-7.564
1038.464,-27.084,18.544
1075.308,-15.86,24.644
1104.832,-32.696,59.292
1079.944,-38.552,81.74
1073.356,-35.136,77.836
1109.468,-14.152,73.688
1121.18,-2.684,85.4
1086.044,-21.716,82.716
1067.5,-30.256,73.444
1071.648,-19.764,59.536
1063.596,1.708,59.536
1062.864,-11.712,54.412
1049.444,-8.54,45.384
1066.28,0.488,42.944
1127.28,-1.22,58.804
1234.396,-9.516,79.056
1304.424,-15.128,100.772
1328.336,-69.784,92.964
1402.268,-97.844,100.04
1544.52,-122.244,111.264
1618.452,-129.32,135.42
1546.96,-90.524,179.096
1342.732,-43.676,171.288
1142.164,33.428,125.416
1006.012,78.568,84.912
861.808,113.948,99.796
754.448,208.376,110.288
595.36,291.336,127.368
507.032,345.504,68.564
526.308,412.848,73.444
543.876,494.1,118.828
441.152,556.808,110.776
286.212,601.948,69.784
173.24,655.872,50.02
29.524,684.908,76.616
-122.732,660.02,132.98
-346.724,662.216,179.34
-561.932,700.28,210.816
-529.236,886.208,161.772
-471.896,908.656,154.208
-432.612,887.184,137.86
-609.024,908.168,119.56
-637.084,911.096,78.812
-558.272,984.052,59.048
-426.024,1054.324,33.184
-371.124,1102.392,46.36
-401.868,1090.192,61.488
-421.144,1007.476,55.388
-366.976,980.392,27.572
-320.616,966.484,17.812
-311.832,969.9,18.544
-290.848,991.616,25.864
-277.184,997.96,17.324
-257.176,981.612,2.44
-223.992,957.944,0.244
-211.548,933.788,13.42
-200.568,954.528,9.516
-214.476,960.628,6.1
-247.172,949.404,4.392
-232.044,934.032,-14.884
-206.668,938.912,-30.256
-208.376,948.916,-28.304
-230.092,957.212,-9.028
-203.74,945.988,-8.54
-172.508,960.628,-15.86
-181.292,968.192,-20.252
-204.228,969.412,-9.516
-200.08,966.972,-7.564
-168.848,969.412,-13.176
-163.236,974.536,-13.176
-180.804,963.8,-16.348
-189.1,945.744,-12.444
-172.752,946.476,-18.056
-137.372,975.756,-21.96
-137.128,986.248,-27.328
-141.032,994.3,-26.596
-131.516,986.492,-26.84
-130.052,979.172,-21.472
-146.644,976.976,-21.472
-161.284,975.756,-28.06
-164.7,971.364,-33.672
-167.628,963.312,-30.744
-164.944,963.556,-26.352
-144.448,968.68,-32.94
-119.072,976.976,-38.308
-126.148,976.488,-38.796
-132.248,984.54,-30.256
-139.08,982.832,-26.84
-116.876,992.348,-38.552
-101.016,996.496,-47.336
-116.388,995.276,-42.7
-136.884,986.004,-31.964
-132.248,982.344,-23.424
-111.996,985.028,-21.228
-99.064,979.172,-28.06
-81.984,985.76,-24.644
-76.616,991.372,-15.616
-95.892,990.396,-6.344
-108.092,990.64,-1.952
-108.092,986.004,1.952
-105.896,972.584,-1.464
-98.332,973.072,0.732
-100.772,968.192,-1.952
-105.896,973.072,-9.76
-102.968,980.392,-16.592
-107.604,988.932,-19.764
-122.244,989.176,-21.96
-127.368,991.86,-24.888
-123.952,991.86,-29.036
-98.332,992.592,-33.916
-93.696,995.276,-32.696
-91.5,995.276,-31.964
-95.892,988.932,-35.38
-93.696,991.128,-31.964
-93.208,990.152,-31.72
-91.5,977.708,-37.088
-93.208,972.584,-39.528
-101.26,981.124,-33.916
-102.48,986.248,-34.404
-92.72,986.98,-33.916
-89.548,984.54,-30.988
-93.94,989.176,-18.544
-91.988,988.2,-14.152
-86.132,987.224,-20.496
-88.816,985.76,-24.644
-96.868,984.784,-23.18
-100.528,980.88,-17.324
-98.332,983.076,-17.568
-97.112,982.344,-20.984
-99.796,980.636,-21.716
-96.38,988.444,-18.3
-95.892,987.712,-14.884
-97.356,983.32,-18.3
-96.136,979.172,-19.764
-101.748,978.44,-16.104
-103.212,980.636,-20.252
-98.576,977.464,-16.836
-94.916,984.784,-18.056
-91.012,985.516,-22.692
-92.72,988.2,-27.084
-104.676,987.712,-26.596
-115.656,980.88,-21.472
-112.972,972.34,-22.204
-95.16,968.68,-21.716
-91.744,973.56,-19.276
-100.284,980.148,-14.64
-104.676,986.736,-14.884
-103.944,988.932,-19.764
-98.82,984.784,-23.424
-107.36,985.028,-25.376
-112.728,984.052,-22.448
-114.924,978.928,-20.74
-111.02,970.876,-21.716
-118.096,970.632,-23.912
-123.22,967.948,-24.644
-116.388,973.072,-26.596
-104.188,982.344,-25.62
-99.796,986.492,-25.62
-95.892,989.908,-24.156
-102.48,985.272,-25.132
-114.192,986.004,-20.008
-120.292,985.028,-19.032
-127.124,981.612,-22.936
-132.98,988.444,-31.72
-129.808,1009.672,-30.744
-122.732,1026.996,-28.548
-149.816,1020.896,-28.06
-207.156,1021.872,-20.008
-269.62,1032.12,-13.664
-369.172,1001.132,-47.092
-403.576,1017.236,-58.316
-240.828,1094.584,-36.6
-102.48,1104.1,-82.472
-65.636,1047.004,-74.908
-112.24,1009.184,-11.712
-45.628,921.588,27.328
-10.004,832.04,65.88
72.712,878.156,80.52
290.848,926.468,27.328
303.536,869.86,-12.2
124.684,813.984,0.976
100.284,649.04,11.712
221.796,582.672,90.28
381.128,464.82,113.216
571.204,396.744,92.72
586.332,300.608,46.36
530.212,178.364,57.34
666.12,27.572,21.96
912.56,-104.188,1.708
924.028,-58.316,6.344
801.296,-9.76,-4.88
779.58,-97.356,-10.248
892.796,-189.588,37.576
898.164,-331.84,67.344
848.144,-367.708,102.236
839.848,-362.828,91.256
963.8,-407.968,92.476
1133.868,-445.056,109.8
1175.104,-561.444,59.78
1219.024,-505.324,89.06
1315.404,-466.04,120.78
1406.172,-444.568,119.56
1424.472,-389.912,79.544
1443.26,-318.664,91.256
1413.736,-308.904,127.856
1363.96,-315.736,102.968
1392.02,-254.492,96.624
1423.252,-240.34,103.944
1363.228,-232.288,60.024
1307.596,-204.472,11.712
1300.276,-208.376,-17.568
1274.9,-235.704,-15.372
1231.224,-239.608,-0.244
1201.7,-264.008,-2.928
1188.036,-287.676,-3.416
1188.524,-305.244,3.172
1205.604,-311.832,17.568
1206.58,-311.1,36.356
1276.364,-304.268,50.752
1407.148,-291.092,58.316
1522.804,-310.368,31.476
1602.592,-292.068,16.592
1649.44,-316.468,0.0
1657.004,-359.9,-6.588
1616.744,-407.236,-41.48
1554.768,-395.036,-100.284
1515.972,-327.448,-116.632
1476.932,-377.956,-130.54
1391.044,-402.112,-154.94
1211.46,-350.14,-193.248
1154.364,-373.076,-249.856
995.032,-341.6,-279.624
841.8,-257.664,-312.32
726.144,-203.008,-340.38
621.712,-184.464,-366.0
461.648,-174.704,-402.6
190.808,-81.984,-447.496
-87.108,67.588,-461.16
-264.496,147.62,-445.544
-323.3,195.932,-367.22
-309.636,149.328,-249.612
-224.236,93.452,-88.572
-55.632,1.952,30.744
155.672,-68.808,158.844
354.288,-104.188,311.344
490.684,-85.4,488.488
565.104,-121.756,620.98
641.964,-175.68,735.66
785.924,-192.516,826.916
1021.14,-193.248,939.4
1192.428,-188.124,995.032
1283.928,-224.968,967.704
1407.88,-243.268,915.732
1637.484,-221.308,864.98
1762.412,-255.712,784.46
1722.152,-291.336,677.588
1674.328,-271.084,520.696
1691.164,-193.248,352.824
1605.032,-195.932,218.136
1466.928,-172.02,67.588
1365.912,-126.636,-116.144
1255.136,-91.012,-255.712
1143.872,-30.988,-342.332
1063.352,27.816,-420.168
997.716,55.388,-466.04
914.512,38.552,-444.324
845.948,40.992,-426.268
830.332,46.36,-403.088
835.456,59.048,-344.284
866.932,96.38,-291.58
905.972,87.108,-238.144
949.404,58.316,-180.56
967.216,29.036,-122.976
999.18,19.276,-71.736
1057.984,14.396,-28.304
1082.384,22.448,-7.076
1090.924,27.816,-1.708
1107.516,27.572,-0.732
1120.204,14.884,3.904
1107.76,13.908,14.884
1086.288,29.524,27.816
1068.232,33.672,39.528
1052.616,33.184,42.944
1039.196,30.5,34.892
1035.048,27.572,23.912
1042.124,25.62,26.596
1049.932,13.664,35.136
1030.9,9.516,37.332
1009.672,10.248,40.26
1018.7,26.108,50.264
1024.556,14.884,49.288
1037.244,32.208,40.992
1043.588,49.288,26.352
1039.684,42.944,11.956
1028.46,52.46,5.368
1023.092,40.992,4.392
1019.188,43.676,7.564
1029.192,43.432,15.616
1032.12,31.964,21.716
1022.848,28.304,27.572
1016.748,28.06,21.716
1025.044,35.38,11.468
1037.0,49.288,8.54
1065.304,51.484,14.152
1063.84,29.768,17.08
1090.436,35.624,25.864
1145.336,36.6,47.824
1197.064,34.16,58.072
1251.72,42.7,61.244
1271.24,33.184,98.576
1287.1,23.912,111.996
1338.096,52.704,103.944
1368.108,64.416,137.372
1306.132,37.82,137.616
1178.276,134.932,140.544
1159.0,203.252,129.076
1077.504,248.392,98.576
937.204,275.72,68.076
900.116,319.884,78.324
779.824,413.092,120.048
658.8,498.98,90.768
547.292,521.428,73.444
452.864,504.592,67.1
381.616,554.612,78.324
315.492,543.144,81.984
212.036,517.28,89.304
2.928,613.172,87.84
-151.524,644.16,100.772
-149.328,681.248,102.724
-212.768,741.76,145.668
-411.14,877.424,155.428
-454.572,983.808,97.6
-389.424,1061.888,63.928
-315.98,1147.776,62.708
-363.072,1147.044,37.088
-400.892,1124.108,26.596
-370.392,1100.44,3.172
-288.652,1114.104,-22.936
-227.896,1128.988,-42.944
-176.656,1144.604,-31.72
-173.728,1114.592,-15.372
-163.724,1078.968,-8.784
-119.316,1057.252,-26.352
-88.572,1042.856,-41.724
-55.144,1042.368,-28.06
-44.164,1031.632,9.028
-39.528,1010.648,41.236
-30.744,968.68,56.608
-40.016,940.864,50.752
-38.552,932.324,35.868
-31.476,945.744,22.936
-14.64,984.54,19.764
-28.304,994.788,24.156
-29.28,994.3,30.012
-45.14,968.436,28.06
3.416,1004.06,24.4
14.884,1017.724,13.176
-23.18,1005.036,12.444
-67.1,981.856,11.468
-23.912,1019.432,4.148
-4.88,1025.288,-10.004
-27.572,1018.212,-0.732
-88.328,972.584,2.928
-131.272,911.828,-3.172
-86.132,921.344,-20.74
-14.884,965.996,-37.088
57.096,1025.044,-53.924
67.588,1049.932,-52.46
42.212,1044.32,-27.572
-0.244,1015.04,1.708
-47.824,983.564,13.176
-52.948,973.804,10.98
-19.52,978.928,-0.488
32.696,987.712,-17.568
44.408,991.128,-38.064
26.84,989.908,-45.628
-1.708,989.664,-40.992
-12.2,980.88,-44.408
4.636,982.344,-52.704
16.592,980.88,-63.684
8.296,979.66,-70.028
-11.224,986.492,-72.956
-10.98,982.588,-74.42
-2.928,977.22,-74.42
-6.588,971.608,-81.984
-4.88,982.832,-86.132
-8.296,998.204,-80.764
-10.98,994.056,-74.908
-5.856,988.2,-75.152
0.244,976.0,-73.688
0.732,970.632,-65.88
2.44,975.268,-59.292
-1.708,973.316,-57.828
2.196,978.196,-56.364
5.856,976.732,-56.364
1.708,979.416,-53.436
9.516,988.2,-51.728
33.916,990.152,-53.192
37.088,997.228,-55.144
21.228,997.96,-52.948
14.396,1000.644,-48.068
11.468,993.568,-49.776
14.64,991.372,-44.896
12.2,984.784,-47.336
23.424,985.76,-53.192
33.916,1000.156,-56.12
39.528,1012.112,-51.972
26.84,1006.988,-53.436
15.86,992.104,-51.484
14.152,980.636,-49.532
23.424,981.124,-50.264
28.792,991.372,-47.58
20.008,998.692,-44.896
17.08,1002.352,-46.116
25.62,1001.376,-50.02
25.132,999.912,-53.436
17.568,993.812,-53.68
14.64,996.496,-49.776
23.668,999.668,-47.824
19.52,995.276,-41.724
5.612,981.612,-40.992
-2.928,968.924,-42.212
10.492,974.536,-39.04
24.888,984.54,-39.528
31.232,990.152,-38.796
23.912,985.516,-38.552
15.372,983.564,-36.112
13.664,982.1,-37.576
19.52,988.2,-35.136
25.132,987.468,-31.964
30.988,990.884,-28.792
33.184,989.908,-28.548
41.48,998.692,-29.28
37.576,996.008,-30.012
32.452,991.86,-25.62
24.644,981.368,-22.448
35.136,989.42,-24.4
35.624,986.736,-26.596
31.964,993.08,-27.084
30.256,995.032,-29.524
28.792,996.74,-35.624
29.524,996.74,-41.968
28.792,996.008,-41.48
24.888,994.056,-39.284
27.084,993.812,-40.016
23.18,999.424,-42.456
19.764,1014.308,-43.92
-0.976,1028.46,-38.552
-27.572,1048.468,-28.06
-60.268,1049.2,-32.208
-99.796,1039.684,-39.772
-172.264,996.74,-40.26
-287.432,860.344,-83.204
-292.8,804.468,-60.024
-163.236,738.832,-2.684
-7.076,643.428,-14.64
168.604,519.476,-75.396
308.66,449.936,-111.02
541.924,511.912,-108.336
661.484,491.904,-123.22
506.788,325.008,-104.676
477.996,352.824,-13.176
478.972,324.032,53.192
682.956,218.868,73.688
859.124,121.512,84.424
910.364,84.424,81.252
824.232,43.188,70.516
757.376,-16.592,105.408
855.952,-203.008,74.176
1123.864,-447.252,98.576
1172.908,-517.28,142.984
1074.088,-510.204,110.044
1079.456,-555.588,96.868
1206.58,-645.38,117.608
1344.928,-695.4,67.832
1446.92,-795.928,51.728
1471.564,-778.848,83.448
1391.288,-770.552,114.436
1206.58,-732.976,123.464
1148.508,-658.068,127.612
1135.088,-616.832,137.616
1082.628,-583.648,130.784
1051.152,-551.684,108.824
1082.872,-530.212,77.592
1140.944,-454.084,79.056
1194.136,-399.916,123.22
1299.056,-433.588,130.54
1479.128,-457.012,51.972
1769.732,-543.144,-12.2
1949.072,-680.516,-1.464
1937.604,-723.216,-4.636
1819.508,-729.804,-42.944
1727.276,-711.992,-85.888
1612.84,-671.488,-133.468
1448.384,-650.504,-183.976
1334.192,-650.992,-218.868
1242.692,-677.832,-223.504
1155.096,-641.476,-205.448
1026.508,-582.672,-170.556
929.64,-526.308,-168.604
833.992,-524.356,-221.552
707.6,-448.472,-261.324
615.856,-356.24,-319.152
519.476,-255.712,-363.072
396.988,-196.42,-403.088
273.768,-124.928,-430.66
170.556,-49.288,-433.344
50.02,22.204,-395.524
-0.732,45.872,-311.832
-35.624,90.768,-203.496
-31.72,81.984,-101.504
-1.952,94.184,-0.976
76.128,81.496,127.856
170.556,64.416,264.008
248.148,20.496,418.216
385.032,-7.32,531.188
595.848,-47.58,636.352
678.564,-106.384,758.596
716.384,-138.836,829.6
848.632,-161.04,816.912
1083.36,-179.828,812.276
1240.252,-205.448,810.324
1262.212,-243.512,797.636
1345.416,-257.42,675.88
1557.208,-246.684,560.956
1686.04,-272.304,480.436
1676.036,-285.48,375.76
1607.716,-274.744,261.324
1542.08,-274.744,157.868
1541.348,-264.496,52.948
1532.808,-288.164,-56.608
1439.112,-318.42,-122.732
1322.724,-274.988,-201.056
1239.276,-230.336,-299.876
1163.636,-174.704,-393.084
1080.676,-163.48,-438.956
1004.792,-154.208,-429.44
929.64,-88.816,-448.472
894.992,-70.028,-470.188
904.508,-71.004,-456.524
945.744,-42.456,-412.36
975.024,-38.552,-382.592
986.004,-76.372,-362.584
1032.12,-103.212,-352.092
1076.772,-118.584,-302.316
1049.932,-121.268,-228.872
1028.46,-130.296,-175.68
1011.868,-137.616,-147.864
982.832,-119.316,-135.664
990.884,-91.256,-106.628
1005.28,-96.868,-71.004
1031.876,-123.952,-50.752
1054.324,-148.84,-50.02
1096.78,-143.228,-52.46
1150.948,-121.512,-35.38
1206.58,-126.636,-10.492
1242.936,-181.048,5.856
1349.076,-178.608,7.808
1504.992,-185.684,2.684
1639.192,-142.74,27.572
1674.572,-134.444,71.736
1492.06,-182.268,95.404
1261.48,-127.856,92.232
1178.52,-12.688,40.504
1224.392,92.476,13.664
1063.352,86.864,32.208
753.228,20.496,53.68
548.512,129.564,53.68
583.404,309.392,41.48
568.764,434.32,49.044
398.696,403.088,54.656
330.376,366.732,40.26
222.04,478.24,104.92
164.456,544.12,176.9
66.124,599.752,197.884
-110.776,698.328,191.784
-224.236,839.116,148.84
-263.764,910.12,99.552
-332.328,933.3,109.312
-335.5,983.076,92.72
-431.636,963.556,62.22
-506.3,901.58,-6.832
-457.744,950.868,-10.98
-421.144,1005.036,-7.076
-410.164,1003.816,35.136
-417.972,1020.408,42.456
-411.872,1007.72,-1.22
-370.636,974.048,-27.816
-297.924,1020.408,-18.3
-274.988,1019.188,-1.464
-283.284,1003.084,38.796
-245.22,960.628,36.6
-213.744,943.304,13.176
-183.976,959.164,4.148
-183.488,980.392,7.076
-190.076,972.34,20.008
-140.3,968.68,-3.904
-92.232,989.664,-18.056
-112.484,1018.212,15.372
-135.42,1011.868,42.7
-129.076,996.252,31.964
-110.532,995.764,5.856
-108.824,989.42,3.172
-137.372,974.292,8.296
-140.788,951.6,8.784
-120.536,953.308,-3.416
-129.808,960.14,-18.3
-144.448,965.752,-21.716
-156.892,954.528,-14.64
-135.908,968.192,-15.128
-99.552,987.468,-8.296
-101.26,987.224,-7.076
-113.948,975.512,-7.32
-99.796,983.564,-9.272
-87.84,1001.864,-20.496
-82.716,1014.796,-24.4
-91.744,1007.232,-26.84
-107.36,987.224,-26.84
-121.024,979.66,-27.816
-122.976,988.2,-27.084
-124.44,983.808,-27.816
-117.364,972.096,-29.28
-109.312,973.072,-30.5
-103.944,976.488,-37.088
-112.484,977.464,-35.624
-115.9,982.344,-32.696
-97.356,985.76,-29.036
-91.744,985.516,-26.108
-107.848,980.88,-26.352
-101.992,973.56,-23.18
-114.68,965.508,-18.544
-112.972,975.756,-11.468
-97.6,984.784,0.244
-103.456,972.584,-9.76
-98.332,964.532,-24.4
-106.14,960.384,-31.476
-106.872,962.824,-34.648
-122.488,959.652,-35.624
-119.316,963.312,-39.284
-112.24,969.412,-38.796
-104.676,975.024,-33.672
-91.256,991.616,-29.28
-86.376,995.032,-24.888
-83.936,1000.4,-24.156
-81.74,1001.864,-23.912
-85.4,1001.376,-27.572
-92.72,991.372,-31.232
-106.384,986.004,-31.476
-110.776,978.196,-33.672
-105.896,977.708,-29.524
-90.524,984.296,-35.136
-82.96,985.028,-41.48
-94.184,989.42,-44.896
-109.556,996.74,-41.724
-111.508,1005.036,-41.724
-66.856,1015.528,-48.556
-54.412,1009.428,-50.02
-78.812,1009.428,-40.748
-88.328,994.788,-27.084
-90.524,982.1,-17.08
-75.884,980.88,-21.716
-59.536,990.64,-28.06
-62.464,988.444,-28.792
-71.004,981.612,-27.328
-78.08,972.34,-25.62
-93.208,967.948,-26.596
-100.284,966.728,-28.06
-95.404,968.924,-33.184
-82.472,974.78,-35.624
-66.124,977.952,-39.04
-83.692,985.516,-31.72
-100.284,984.54,-30.5
-92.476,979.172,-31.964
-90.768,974.536,-33.184
-77.592,983.564,-35.38
-68.32,999.424,-34.16
-76.616,994.544,-36.844
-96.868,982.1,-30.988
-109.8,972.34,-30.012
-92.964,974.78,-34.648
-70.272,989.42,-37.088
-76.372,987.956,-33.672
-93.452,986.004,-26.596
-106.14,977.22,-27.816
-99.308,977.708,-30.988
-72.468,985.516,-38.796
-69.54,978.44,-45.628
-89.792,981.124,-36.112
-99.552,981.612,-26.84
-96.868,973.072,-28.548
-103.212,970.876,-30.744
-97.356,981.124,-25.62
-89.792,988.688,-24.888
-113.46,1006.988,-10.492
-131.028,1029.68,29.524
-136.884,1042.124,55.144
-211.548,1025.044,40.016
-242.536,1005.28,13.176
-110.532,1003.572,-40.016
-114.436,957.944,-80.276
-136.884,952.088,-68.808
7.076,969.168,10.004
70.516,878.888,70.272
76.616,762.012,-25.376
2.684,766.648,34.404
159.088,767.136,59.78
268.4,655.628,-2.928
328.912,643.672,-50.264
414.556,603.412,-88.572
393.816,489.708,-88.328
406.504,445.3,-36.356
462.868,335.256,34.16
603.9,181.78,66.124
682.468,58.56,119.072
651.48,-127.856,84.912
733.22,-187.392,36.356
997.472,-274.988,27.328
1149.24,-307.684,-11.956
1060.424,-380.884,3.904
1120.204,-529.236,77.592
1194.38,-571.204,125.66
1231.468,-553.88,98.332
1287.344,-549.0,96.624
1335.9,-554.856,113.704
1308.084,-579.256,152.012
1331.752,-569.984,153.72
1332.972,-551.928,155.916
1273.68,-475.8,150.06
1243.18,-466.528,155.916
1293.444,-485.316,156.16
1357.128,-484.34,162.016
1338.584,-447.252,162.26
1289.296,-417.972,157.38
1305.156,-368.928,110.288
1415.2,-339.404,51.972
1609.668,-366.976,23.668
1728.496,-366.488,16.836
1787.788,-448.228,-27.084
1779.248,-530.944,-32.94
1811.212,-557.54,-35.38
1785.104,-602.924,-30.5
1665.056,-603.412,-15.128
1493.28,-620.004,-29.28
1346.88,-593.408,-104.676
1254.404,-538.264,-187.636
1167.784,-491.66,-228.628
1048.956,-519.476,-286.7
898.408,-475.068,-320.86
732.244,-402.356,-366.732
609.268,-324.764,-393.816
502.152,-274.988,-396.988
348.188,-190.808,-390.888
189.1,-145.18,-395.524
101.016,-84.912,-383.812
34.16,-4.392,-340.624
23.424,59.292,-269.132
8.052,33.672,-225.212
18.788,12.2,-162.016
80.52,45.628,-63.196
169.58,54.9,54.9
250.588,28.304,157.868
331.84,18.3,291.824
376.492,-23.424,486.78
375.76,-54.168,658.312
511.18,-82.228,724.436
777.14,-101.748,759.084
964.776,-83.936,823.5
1051.396,-95.404,862.784
1150.948,-131.516,831.552
1363.96,-159.576,789.34
1630.896,-204.96,746.396
1722.884,-251.076,680.76
1712.88,-232.044,591.456
1619.916,-255.956,502.64
1600.152,-202.276,386.008
1664.568,-136.884,176.168
1646.756,-95.648,17.08
1483.52,-179.34,-181.292
1358.836,-80.764,-343.796
1335.168,-36.844,-478.24
1241.716,-57.828,-537.044
1130.452,27.572,-554.856
970.144,13.176,-567.3
835.7,25.132,-544.608
839.604,69.54,-548.268
872.056,81.74,-505.812
877.18,105.408,-406.016
864.248,110.532,-312.808
881.084,104.92,-242.048
927.444,62.708,-194.468
1002.84,76.86,-163.236
1034.804,90.036,-160.064
1016.992,92.232,-167.628
1014.064,100.528,-166.896
1014.796,108.58,-152.988
1014.064,133.956,-140.3
1030.9,162.504,-123.22
1034.072,174.948,-101.26
1019.188,122.976,-96.38
984.296,72.956,-71.736
989.176,45.872,-28.792
1069.208,46.604,9.516
1154.852,29.768,58.56
1172.908,22.936,61.732
1147.044,39.04,70.028
1221.708,59.292,41.48
1320.04,88.816,70.272
1490.596,114.192,85.156
1404.464,163.724,138.592
1116.544,218.136,144.936
831.552,364.536,162.26
750.788,445.788,125.416
853.024,493.612,79.3
777.872,513.376,52.46
501.908,689.056,36.356
301.584,740.052,42.212
256.444,734.44,43.676
234.24,754.448,59.292
226.432,824.72,50.02
143.96,865.224,79.056
44.408,807.884,73.444
-63.684,761.036,78.324
-174.948,768.844,113.948
-258.396,851.072,142.74
-369.172,871.08,172.996
-459.208,848.388,135.42
-501.908,867.42,69.54
-481.168,961.848,50.508
-491.66,1059.936,74.908
-482.876,1038.22,90.036
-411.14,1063.352,89.548
-374.296,1030.9,73.444
-351.116,1067.256,28.792
-288.164,1111.42,8.052
-185.44,1187.548,-59.048
-177.144,1189.744,-33.184
-188.856,1132.648,-12.2
-160.308,1072.868,-12.444
-101.26,1027.972,-25.864
-68.808,1008.208,-15.372
-70.76,998.448,19.52
-93.208,977.464,46.604
-109.556,955.504,41.724
-134.932,920.612,30.988
-134.688,914.268,30.744
-121.756,901.336,37.576
-131.76,925.248,33.672
-139.812,965.508,30.988
-136.152,980.148,36.6
-129.32,973.316,17.812
-118.096,976.488,19.764
-128.1,982.1,35.624
-117.608,985.76,25.376
-105.896,994.056,30.256
-104.188,1010.892,25.132
-115.656,1007.72,21.716
-90.524,1006.012,22.448
-82.96,1005.28,28.06
-99.552,998.692,26.352
-115.168,981.124,18.056
-111.02,974.292,10.004
-110.776,967.46,9.028
-117.852,957.944,1.952
-123.952,953.308,3.416
-122.244,965.996,16.348
-116.144,973.56,12.932
-103.944,979.66,1.952
-90.768,987.468,-8.052
-94.672,994.788,-2.44
-107.848,995.52,1.464
-105.164,986.492,0.244
-111.264,965.02,1.22
-106.872,966.972,7.564
-105.408,971.608,12.688
-105.408,984.296,6.344
-112.24,978.684,0.732
-123.952,974.292,10.248
-124.928,973.56,15.128
-113.704,980.636,10.248
-86.376,1001.864,5.368
-82.716,1001.376,-0.732
-84.424,993.812,3.904
-94.428,993.08,12.2
-106.628,981.368,16.592
-110.776,965.752,11.468
-108.58,976.244,7.076
-103.456,997.472,1.464
-94.672,990.396,-10.004
-94.428,994.544,-17.812
-91.012,996.252,-9.516
-99.796,980.88,-1.952
-102.724,980.88,1.464
-91.5,985.028,-4.392
-91.256,984.052,-10.736
-104.92,981.368,-11.712
-114.436,969.656,-10.736
-110.044,971.364,-15.616
-105.896,981.124,-11.956
-95.16,985.272,0.0
-104.92,982.344,9.272
-107.604,982.344,2.44
-104.188,984.784,-8.052
-98.088,995.276,-7.808
-96.624,1000.644,-4.636
-103.7,991.86,0.976
-114.924,976.976,0.0
-108.58,967.46,-6.832
-103.212,972.34,-3.416
-102.724,976.0,0.0
-103.212,977.708,-0.244
-98.82,968.436,3.66
-110.288,960.872,2.44
-109.068,964.288,0.488
-102.724,979.904,4.148
-95.16,995.52,0.732
-94.428,997.228,-0.488
-95.892,991.372,3.172
-103.212,981.124,2.928
-94.184,985.516,3.416
-92.232,989.176,4.88
-102.724,990.152,-1.22
-102.48,990.396,-6.588
-106.872,985.028,-11.956
-101.748,986.004,-15.128
-100.04,992.104,-15.128
-99.796,996.252,-11.956
-107.36,986.004,-7.808
-102.48,980.392,0.732
-98.088,984.784,4.148
-93.452,986.004,-0.244
-93.94,982.344,-1.952
-103.212,975.024,-0.488
-110.044,971.608,1.22
-108.336,969.412,-6.1
-98.088,985.028,-9.028
-95.648,988.2,-7.808
-90.768,994.056,-4.392
-95.648,990.152,-1.464
-102.968,980.392,4.148
-107.116,968.192,8.296
-99.064,974.536,7.076
-92.72,980.636,4.392
-97.356,982.588,-4.88
-92.964,993.812,-5.612
-93.208,986.98,-1.22
-102.236,984.296,1.708
-109.312,977.22,1.22
-105.164,971.852,-9.028
-102.724,981.368,-12.932
-103.7,995.276,-10.004
-106.14,1001.62,-5.124
-125.66,992.104,0.0
-158.356,991.616,9.272
-173.972,1015.772,29.28
-168.36,1051.64,45.384
-170.8,1055.788,43.432
-240.828,1056.276,48.8
-281.576,1048.956,55.632
-296.704,1065.548,75.396
-293.776,1050.176,83.692
-273.768,994.788,59.78
-161.528,935.984,20.252
-134.444,826.916,-33.184
-140.3,767.38,-87.352
-56.852,719.312,-70.76
23.18,644.648,-51.484
67.344,580.964,-30.256
114.436,541.192,-15.86
240.34,493.124,-34.404
451.156,436.028,-33.184
480.68,417.24,-2.928
526.552,361.852,32.208
669.536,223.748,77.104
827.648,166.652,139.324
1002.108,75.884,160.064
1055.056,-13.176,115.9
982.344,4.392,95.404
946.72,-29.524,98.332
1125.816,-203.252,141.52
1257.332,-319.396,172.996
1290.516,-409.188,205.448
1326.14,-402.356,185.928
1353.224,-384.788,177.876
1413.736,-373.32,181.048
1440.088,-405.772,186.416
1392.02,-406.26,177.388
1352.736,-389.18,115.9
1376.16,-356.24,129.808
1381.284,-356.728,173.728
1435.452,-349.652,197.396
1474.98,-330.132,126.392
1517.192,-319.64,49.044
1632.116,-299.144,18.3
1681.16,-307.684,-14.396
1709.464,-388.936,-37.576
1678.964,-466.284,-28.06
1584.292,-495.076,-16.104
1529.636,-492.148,-38.552
1543.3,-506.056,-62.22
1450.824,-520.94,-68.32
1359.324,-480.924,-69.052
1331.996,-510.204,-85.156
1262.212,-532.652,-121.756
1170.956,-511.424,-155.916
1076.528,-482.632,-186.66
978.196,-407.48,-219.356
887.672,-335.256,-262.544
842.532,-286.456,-319.396
791.78,-241.316,-359.9
713.7,-208.62,-376.004
590.48,-165.432,-386.984
483.364,-111.996,-370.392
393.572,-78.08,-377.224
305.0,-12.932,-389.912
249.856,55.632,-383.812
204.228,88.572,-355.02
112.728,103.7,-304.024
61.732,167.14,-243.756
94.428,197.152,-205.204
156.16,160.308,-134.688
255.956,120.292,-3.416
364.78,114.192,154.94
416.264,54.656,293.776
487.756,15.372,441.884
585.356,34.648,574.376
723.216,9.76,696.864
819.108,-3.66,795.928
916.22,4.148,878.4
1048.956,-58.072,930.372
1168.028,-148.596,893.528
1372.012,-197.152,816.912
1501.82,-215.452,744.444
1518.656,-193.492,639.28
1541.104,-193.98,507.032
1547.936,-194.224,349.408
1533.296,-162.504,195.932
1519.876,-122.0,15.128
1481.812,-73.2,-124.928
1400.804,-65.636,-223.748
1277.828,-82.716,-313.296
1207.312,-43.92,-392.352
1154.12,-46.36,-481.168
1115.812,15.128,-502.64
1046.272,67.588,-488.732
947.208,86.864,-501.664
901.336,108.336,-499.224
927.688,109.312,-470.676
936.472,123.708,-422.12
933.544,124.196,-376.492
955.016,122.976,-306.464
968.68,96.38,-233.508
991.616,86.376,-170.068
1003.572,79.056,-150.548
1047.004,90.768,-131.516
1049.688,76.616,-108.092
1063.352,107.116,-73.932
1138.504,125.66,-62.952
1245.376,100.772,-40.992
1328.336,66.124,-22.448
1400.804,29.768,-5.612
1355.176,38.796,30.012
1317.844,101.016,38.796
1168.028,129.564,91.256
1015.284,150.548,77.836
846.68,222.528,96.38
613.172,234.728,123.22
575.84,274.256,102.724
570.228,331.84,140.788
513.376,420.168,106.628
363.56,490.684,103.456
298.9,494.344,102.48
311.1,532.896,117.364
336.72,655.384,145.912
310.856,721.02,178.852
261.324,775.92,168.116
322.08,819.108,166.408
230.336,886.696,157.136
53.924,945.012,102.724
-160.308,965.02,52.948
-241.072,1058.716,20.984
-347.7,1111.176,51.24
-410.652,1162.66,60.512
-457.012,1201.456,53.924
-506.544,1162.416,52.704
-536.8,1097.268,34.404
-518.256,1131.184,50.752
-440.42,1180.96,57.096
-383.08,1161.928,56.364
-341.112,1121.18,71.736
-329.156,1093.12,91.256
-332.328,1052.86,81.74
-306.464,1016.016,60.756
-261.568,997.472,55.632
-248.636,976.488,38.552
-224.48,981.124,21.228
-199.836,990.152,16.104
-170.8,992.348,15.372
-159.82,992.104,5.856
-138.348,1007.72,8.54
-144.692,973.316,20.008
-157.624,950.136,36.356
-169.824,922.32,28.792
-148.108,939.156,1.952
-139.08,959.896,-10.248
-149.328,957.944,-18.3
-160.552,945.5,-14.152
-142.74,964.044,-13.42
-121.268,992.592,-17.08
-129.076,990.152,-17.08
-155.672,960.628,-15.372
-152.256,955.504,-26.596
-145.668,953.796,-30.012
-171.776,950.136,-28.06
-200.568,946.232,-25.376
-173.24,953.552,-33.428
-137.128,964.532,-38.064
-136.396,970.632,-49.776
-127.612,994.544,-58.316
-129.076,1005.524,-48.312
-135.908,1003.572,-37.576
-156.892,965.508,-30.256
-164.212,954.772,-24.888
-157.38,954.284,-32.208
-143.716,954.528,-48.8
-141.52,956.724,-56.608
-155.184,959.164,-60.024
-138.592,968.924,-69.052
-130.052,1006.988,-69.052
-131.272,1011.136,-64.66
-147.132,1000.888,-50.508
-155.184,979.904,-43.188
-146.888,966.484,-40.016
-138.836,974.048,-33.428
-137.128,969.9,-30.256
-128.832,974.78,-26.596
-119.316,971.12,-26.352
-108.336,986.736,-24.4
-100.284,992.836,-21.472
-97.112,996.496,-19.032
-97.6,997.716,-13.908
-117.364,989.908,-8.784
-126.148,983.076,-8.784
-124.684,972.828,-14.884
-126.88,967.704,-21.228
-134.688,970.144,-25.864
-135.908,978.196,-27.084
-123.22,983.32,-23.668
-113.216,979.416,-23.668
-113.948,981.368,-23.668
-133.712,981.612,-17.812
-141.52,978.928,-23.424
-136.152,974.536,-23.18
-126.148,978.44,-24.644
-121.268,982.832,-27.084
-110.044,1001.376,-22.936
-101.748,1015.284,-21.96
-105.896,1000.156,-17.568
-124.928,981.368,-13.176
-125.416,971.608,-19.032
-133.468,963.556,-22.448
-135.664,969.9,-23.912
-134.932,972.828,-27.084
-123.708,975.268,-32.696
-132.248,970.144,-35.38
-130.784,969.168,-30.256
-134.2,963.068,-29.768
-137.128,959.652,-28.06
-125.172,972.828,-27.328
-117.12,985.028,-28.06
-111.264,993.812,-35.136
-117.608,981.856,-38.796
-125.172,978.684,-33.672
-128.1,981.124,-29.28
-118.34,985.516,-28.792
-119.072,985.516,-28.792
-115.9,989.664,-29.28
-114.924,985.028,-28.06
-122.488,981.612,-25.132
-123.464,976.244,-23.668
-116.144,983.076,-21.716
-118.34,984.784,-21.716
-125.416,982.588,-20.496
-128.832,974.536,-27.816
-127.856,971.12,-34.404
-124.684,978.928,-36.112
-123.22,987.224,-32.208
-122.976,988.932,-28.792
-113.704,988.2,-34.648
-114.924,976.0,-36.356
-118.584,976.976,-36.356
-135.664,970.388,-30.256
-135.664,967.216,-25.864
-136.396,960.384,-22.204
-141.276,962.092,-18.788
-145.912,964.532,-19.764
-152.256,975.512,-24.4
-155.184,1005.524,-23.18
-170.068,1022.116,-19.764
-195.444,1040.416,-10.736
-234.484,1086.776,-4.392
-319.884,1123.864,-50.752
-425.536,1158.756,-107.848
-385.52,1205.604,-73.2
-289.384,1181.448,-66.368
-172.02,1112.884,-55.144
-154.452,986.248,-50.02
10.492,872.3,-67.344
138.104,742.004,-42.456
204.716,656.848,-14.884
303.048,654.164,8.54
353.556,652.212,22.936
337.208,587.796,16.104
313.54,488.732,24.888
324.764,430.66,54.9
407.968,331.84,81.252
533.872,287.188,137.372
584.624,195.444,148.596
656.604,76.86,127.856
740.296,-19.276,80.032
815.448,-110.044,68.32
857.416,-192.272,73.2
898.652,-291.336,92.232
931.836,-365.024,75.152
998.692,-402.112,54.656
1032.852,-466.284,22.448
1149.484,-509.472,46.36
1163.148,-549.976,86.864
1140.944,-571.448,92.72
1133.624,-585.112,63.196
1244.888,-557.784,54.9
1334.68,-548.024,55.144
1313.696,-541.192,20.008
1332.484,-477.752,-12.688
1374.452,-474.336,-7.32
1336.388,-480.436,25.62
1233.664,-451.156,66.368
1199.016,-448.96,83.692
1218.292,-475.312,71.248
1265.384,-433.832,61.732
1277.096,-429.928,30.5
1252.696,-421.388,4.636
1226.832,-402.844,7.076
1206.824,-432.612,18.3
1204.628,-414.556,28.792
1242.204,-425.048,1.952
1275.632,-461.404,-25.62
1287.588,-499.712,-19.276
1332.972,-512.156,-2.44
1432.768,-523.38,-26.352
1545.252,-567.056,-62.22
1599.42,-664.656,-81.008
1588.684,-708.088,-52.948
1546.472,-741.516,-57.096
1474.004,-729.804,-76.128
1429.596,-719.312,-108.092
1332.484,-689.056,-145.424
1207.312,-681.492,-184.22
1103.612,-656.36,-201.788
1032.608,-628.544,-205.204
918.172,-601.704,-200.812
783.972,-537.044,-220.576
743.956,-475.8,-273.768
718.092,-391.864,-322.568
670.512,-287.676,-338.184
591.944,-235.216,-367.708
454.572,-162.504,-382.592
366.488,-63.928,-403.82
278.404,10.248,-383.08
171.288,93.208,-379.176
67.588,207.644,-383.08
-19.032,284.992,-366.0
-72.712,370.392,-350.384
-32.208,412.604,-303.536
12.444,385.764,-215.696
0.0,332.084,-84.912
35.868,286.456,86.376
138.592,194.956,281.088
290.36,91.988,479.948
582.916,-57.096,669.292
839.116,-230.58,885.232
963.312,-321.348,1049.2
1078.48,-376.736,1113.128
1270.752,-385.52,1057.496
1435.94,-369.172,923.296
1522.56,-345.992,777.384
1598.932,-330.132,655.872
1703.12,-350.14,502.396
1766.072,-325.984,351.36
1708.488,-308.66,211.06
1583.56,-246.684,89.792
1491.572,-186.416,-15.616
1403.0,-223.016,-171.044
1284.904,-185.44,-265.472
1186.572,-108.092,-310.124
1124.596,-81.74,-369.172
1078.48,-52.46,-440.176
1059.692,-9.76,-477.508
1021.384,22.204,-500.444
956.724,61.0,-521.428
908.9,70.76,-508.496
880.596,105.164,-468.48
842.776,122.0,-409.432
820.084,134.688,-353.556
856.44,121.756,-316.712
903.288,121.024,-263.032
963.556,112.484,-190.32
1004.792,47.336,-147.864
1045.052,29.036,-123.952
1070.672,34.16,-99.064
1067.256,34.892,-77.104
1037.244,38.552,-61.244
1032.364,40.504,-55.388
1059.448,56.852,-32.452
1071.892,52.216,-13.664
1056.276,44.652,-0.488
1052.372,48.8,8.052
1058.716,50.508,19.764
1058.716,52.704,24.4
1056.276,60.756,15.372
1068.72,54.168,-6.1
1108.736,50.264,-14.884
1147.044,23.424,-11.468
1202.676,-42.7,14.64
1331.996,-85.156,27.816
1423.74,-107.36,34.16
1548.668,-168.36,4.148
1633.824,-215.452,2.44
1393.484,-254.736,23.912
1078.968,-221.064,-5.612
841.312,-90.28,-67.588
635.864,60.756,-48.556
505.324,132.004,-56.608
492.148,297.436,-74.664
427.488,523.38,-10.492
397.232,665.876,86.376
319.396,650.26,111.264
289.628,723.704,126.636
221.796,781.532,136.64
68.32,806.908,142.496
18.544,797.148,124.684
-131.516,787.632,152.256
-377.712,831.796,147.62
-531.676,913.78,120.536
-573.4,955.016,117.364
-562.176,977.708,125.904
-525.088,984.296,102.48
-567.788,966.484,58.072
-635.132,913.048,55.632
-621.468,941.108,91.988
-593.896,982.588,97.6
-559.248,1013.576,88.816
-520.696,1044.808,84.424
-475.068,1002.108,71.736
-467.016,946.476,76.372
-505.08,895.48,70.76
-552.172,850.828,66.856
-540.704,909.144,81.496
-473.848,931.592,18.544
-423.828,889.136,1.22
-388.936,905.484,-0.976
-443.104,911.584,22.204
-416.264,935.252,18.544
-393.816,922.076,10.004
-375.272,927.932,0.488
-381.86,926.468,6.832
-370.148,923.052,10.98
-377.712,894.992,6.1
-392.596,868.64,0.244
-387.96,888.16,2.196
-382.348,916.464,1.464
-360.632,925.98,-3.416
-378.932,890.112,12.688
-392.352,867.664,27.572
-369.416,881.328,27.572
-353.312,920.368,27.084
-348.92,940.132,11.224
-355.264,929.396,7.564
-365.756,905.972,20.008
-360.144,901.58,41.236
-350.14,911.584,47.58
-366.976,898.652,50.264
-366.976,886.696,54.168
-341.112,874.496,55.388
-334.28,888.648,44.164
-331.108,930.128,26.352
-340.136,953.308,22.204
-327.448,955.992,4.88
-330.132,951.356,0.732
-312.808,957.212,5.368
-319.64,956.236,5.124
-323.056,945.256,10.98
-311.1,957.7,13.908
-314.272,954.528,16.836
-325.496,946.232,24.644
-311.832,949.892,16.836
-307.684,925.492,12.932
-321.348,932.568,16.836
-340.136,935.984,24.4
-317.444,948.184,27.084
-313.296,935.008,20.008
-312.32,939.156,23.424
-322.812,926.956,25.864
-319.152,925.492,29.768
-320.616,919.392,33.184
-325.496,903.532,31.232
-329.644,899.628,16.592
-326.96,894.016,1.952
-338.916,888.16,5.368
-346.968,891.576,9.76
-332.328,887.184,2.44
-305.732,904.752,-8.052
-290.848,947.696,-22.204
-275.964,979.66,-7.076
-282.552,986.492,14.396
-291.092,967.46,24.888
-302.56,937.204,36.356
-325.496,927.688,30.012
-320.616,932.568,19.52
-313.052,944.28,8.296
-319.64,943.548,-4.148
-313.296,949.16,-5.856
-303.048,951.844,-11.712
-289.872,963.556,-11.956
-295.484,960.14,-6.1
-294.752,954.772,1.22
-290.36,948.184,4.148
-284.016,950.136,8.296
-290.848,940.132,7.564
-309.392,934.52,7.808
-315.98,932.568,7.076
-315.492,927.932,2.928
-311.1,925.736,-0.976
-311.344,928.42,-3.66
-313.296,934.764,-2.928
-313.54,938.18,2.196
-313.784,932.568,5.124
-311.344,927.2,9.028
-310.612,923.54,10.248
-317.688,920.612,11.224
-319.884,931.348,10.736
-312.808,942.572,9.272
-303.048,943.548,7.808
-300.12,947.94,4.148
-300.608,942.328,6.1
-308.172,934.764,10.492
-308.904,932.568,10.492
-305.488,934.52,5.612
-302.316,929.884,5.124
-299.632,940.62,7.564
-296.216,940.132,12.688
-303.536,934.276,15.372
-307.928,934.52,14.152
-309.392,934.764,10.98
-317.688,935.252,4.88
-321.836,935.74,-4.148
-319.884,939.888,-8.784
-323.788,947.452,-15.128
-336.72,950.868,-10.98
-360.876,929.884,-4.148
-362.096,895.48,-7.564
-350.384,873.032,-6.588
-352.092,862.296,-15.372
-345.016,874.74,-18.056
-313.296,905.484,-13.176
-286.212,945.5,-5.856
-289.872,984.296,5.124
-305.244,1014.064,16.348
-314.028,1038.22,30.012
-346.724,1051.152,30.988
-406.992,1072.868,7.076
-454.328,1104.1,-20.984
-498.248,1138.992,-37.576
-552.66,1214.388,-30.744
-564.128,1328.58,-22.448
-564.372,1336.632,-43.92
-553.636,1264.652,-46.116
-498.248,1116.3,4.392
-406.26,989.664,64.904
-340.868,864.248,70.272
-244.488,719.8,9.516
-151.768,636.84,-30.256
-65.392,605.364,-34.404
10.004,599.264,-32.696
81.008,580.964,-38.308
121.756,490.684,-44.164
173.24,432.368,-20.984
260.348,346.48,-62.22
371.856,206.912,-76.372
498.492,196.664,-29.768
619.76,213.256,20.496
709.064,116.388,-17.812
800.808,-26.108,-10.98
859.124,-115.9,32.696
943.548,-49.288,103.212
943.06,-41.48,92.232
948.428,-49.532,75.64
969.412,-61.0,73.2
917.928,-177.144,62.22
914.024,-213.012,51.24
1061.888,-225.456,72.712
1127.036,-254.248,69.784
1167.052,-269.132,67.588
1159.976,-220.088,41.724
1183.156,-217.404,14.396
1189.012,-248.88,-3.904
1226.588,-269.62,-40.748
1272.216,-336.72,-39.04
1303.936,-338.428,0.488
1283.196,-355.02,20.74
1289.296,-353.312,7.32
1287.1,-406.26,4.148
1248.792,-400.16,32.94
1246.352,-377.224,41.236
1296.128,-381.128,3.904
1313.696,-396.988,-13.176
1281.244,-375.272,18.544
1243.424,-387.96,51.972
1242.204,-428.708,58.316
1269.044,-406.748,58.804
1282.464,-382.592,61.488
1327.36,-350.872,68.076
1401.292,-380.396,34.648
1506.212,-364.048,-6.832
1587.952,-358.436,-33.916
1657.248,-353.068,-3.66
1722.64,-442.372,64.416
1670.668,-506.788,78.08
1648.22,-567.056,19.764
1602.104,-548.512,-31.964
1513.532,-533.14,-23.912
1424.472,-533.384,-28.304
1349.564,-551.44,-70.516
1248.06,-520.696,-150.304
1209.02,-519.232,-178.364
1098.976,-463.112,-199.836
968.192,-390.4,-258.152
838.628,-299.876,-318.664
735.904,-256.2,-395.28
640.012,-172.02,-445.788
540.948,-91.256,-486.048
409.432,-48.312,-501.176
258.64,10.98,-473.604
143.96,61.732,-446.276
50.752,92.476,-399.672
0.732,141.764,-323.544
22.936,165.432,-252.784
77.104,149.084,-139.08
106.14,141.52,-10.98
179.828,129.32,94.672
272.06,130.784,229.604
371.612,87.596,409.432
475.312,60.512,584.38
589.016,11.712,721.996
691.74,-24.4,814.472
805.2,-51.24,844.728
917.44,-55.388,854.0
1039.684,-48.312,848.632
1091.412,-72.712,786.656
1230.248,-100.284,709.796
1417.64,-90.28,654.408
1518.168,-90.036,561.2
1550.132,-122.0,474.092
1616.744,-145.912,336.232
1723.128,-128.832,174.216
1813.164,-93.208,-7.32
1733.864,-81.984,-160.552
1563.064,-31.476,-228.14
1404.952,-17.324,-241.56
1267.336,-19.032,-267.424
1158.756,-17.324,-292.068
1071.648,1.708,-305.732
979.66,38.796,-273.28
916.708,51.24,-245.22
846.436,52.704,-244.0
827.892,71.736,-242.048
856.44,108.092,-251.808
866.444,124.928,-262.056
871.08,122.488,-262.788
894.992,119.072,-250.1
917.196,106.384,-225.944
943.548,96.624,-194.712
992.592,86.62,-156.404
1006.5,75.152,-122.976
994.788,75.64,-91.256
1013.576,81.008,-62.464
1060.668,66.856,-42.944
1103.856,52.216,-14.396
1187.548,37.82,31.72
1246.108,41.724,72.468
1275.632,60.268,89.06
1295.64,52.704,102.968
1363.96,41.968,97.112
1352.248,38.308,117.852
1336.388,123.708,126.88
1257.088,222.772,113.704
1087.752,230.58,99.308
934.52,229.36,57.096
822.524,321.592,69.052
695.888,405.528,79.3
525.576,477.996,37.332
447.252,592.432,18.056
429.196,584.38,25.132
367.22,505.812,10.98
162.504,555.832,94.184
80.764,695.644,133.224
8.052,677.1,129.564
-35.624,639.28,119.804
-70.028,661.484,167.872
-212.524,695.644,199.592
-381.372,724.192,128.832
-404.552,837.652,65.148
-370.392,1028.216,55.632
-328.912,1193.648,68.808
-375.028,1259.528,56.608
-456.036,1230.248,10.492
-443.104,1204.384,-6.344
-404.552,1181.448,-10.736
-374.784,1178.032,-10.492
-299.144,1177.788,25.62
-257.908,1143.14,31.476
-230.336,1097.756,5.124
-194.956,1069.452,-5.856
-174.948,1051.884,-8.052
-135.176,1049.444,-20.008
-154.94,1021.14,-26.596
-185.196,993.324,-34.404
-218.868,950.624,-41.48
-203.496,929.396,-64.172
-170.068,949.16,-64.172
-163.236,966.484,-47.58
-153.72,973.804,-35.136
-158.6,976.244,-21.716
-161.284,969.168,-15.616
-142.496,976.976,-24.644
-127.856,985.028,-18.056
-124.928,985.028,-9.028
-128.344,988.688,-9.272
-132.736,980.88,-15.616
-141.52,965.264,-17.568
-152.5,966.484,-18.3
-152.744,970.144,-31.964
-145.18,979.172,-52.46
-146.156,979.172,-62.708
-154.452,975.024,-67.832
-155.916,961.116,-62.708
-158.844,961.604,-52.216
-148.352,965.02,-53.436
-140.3,959.652,-57.584
-139.08,954.528,-63.928
-142.252,950.38,-67.1
-130.784,958.676,-65.636
-124.928,970.876,-68.076
-137.616,967.216,-76.128
-159.088,951.112,-85.888
-162.992,939.4,-89.548
-137.128,961.604,-97.6
-118.584,988.932,-99.064
-124.928,1002.84,-105.164
-137.86,988.932,-100.528
-142.984,976.488,-100.772
-140.788,967.46,-103.944
-143.228,968.436,-96.38
-145.424,969.9,-96.624
-142.496,969.168,-100.528
-124.44,976.244,-103.7
-118.584,986.492,-102.968
-117.608,991.616,-97.356
-110.532,992.836,-92.72
-104.92,1003.328,-88.328
-122.244,984.296,-86.864
-121.024,973.316,-89.792
-126.148,970.388,-90.768
-131.76,956.968,-90.768
-133.956,950.38,-80.764
-131.028,949.404,-77.104
-126.392,958.92,-75.396
-125.66,966.972,-74.176
-120.048,980.392,-78.08
-114.924,981.612,-82.716
-106.14,983.32,-81.008
-108.336,990.884,-74.664
-106.628,1009.184,-70.272
-109.312,1010.892,-74.664
-109.556,1005.036,-83.936
-103.456,999.668,-93.696
-99.308,1001.132,-99.064
-99.308,1009.184,-101.016
-104.188,1005.28,-93.696
-118.584,985.516,-89.792
-127.856,965.508,-88.328
-134.444,956.968,-83.692
-139.08,955.504,-79.3
-142.252,960.628,-75.396
-145.668,967.46,-71.248
-144.692,970.632,-72.956
-137.616,969.9,-82.228
-148.108,966.484,-94.428
-163.968,956.236,-100.284
-166.896,949.16,-96.136
-160.064,939.156,-95.404
-126.88,951.6,-96.624
-97.356,973.072,-91.744
-80.764,995.276,-80.52
-81.496,1006.012,-69.052
-89.304,1001.864,-54.656
-94.184,1001.376,-45.384
-113.704,997.472,-47.824
-130.54,986.492,-44.896
-155.672,976.732,-44.896
-155.672,974.78,-51.728
-140.544,984.296,-61.976
-144.448,988.2,-72.712
-151.524,988.444,-79.3
-150.304,977.22,-86.376
-136.396,972.828,-87.596
-125.66,964.776,-81.74
-128.588,947.696,-73.2
-128.1,939.4,-71.98
-123.464,939.4,-73.932
-119.56,956.968,-78.324
-111.02,977.708,-87.596
-96.868,993.568,-86.376
-77.592,1007.72,-79.3
-91.256,997.96,-66.856
-114.436,976.0,-59.292
-141.032,962.58,-58.316
-151.036,962.824,-67.1
-149.328,973.804,-78.568
-142.496,989.908,-80.52
-156.404,988.932,-80.032
-172.264,980.88,-79.056
-165.432,977.708,-83.448
-142.496,987.712,-89.06
-131.272,999.18,-91.012
-132.98,995.276,-85.644
-147.376,979.904,-77.592
-147.376,964.532,-66.612
-144.448,955.26,-60.512
-137.128,951.844,-60.512
-126.392,955.992,-61.732
-121.512,962.824,-63.196
-122.488,971.608,-61.732
-126.148,980.88,-52.948
-134.444,989.908,-51.484
-140.056,996.74,-51.484
-142.008,996.252,-54.168
-139.568,1000.644,-62.952
-146.644,992.836,-66.856
-159.576,997.228,-66.856
-174.704,991.616,-68.32
-167.628,990.884,-68.32
-162.504,987.956,-72.224
-157.136,991.128,-73.688
-164.212,1006.988,-71.98
-182.024,1024.556,-75.396
-206.424,1035.78,-85.888
-262.788,1067.012,-99.064
-354.044,1139.236,-88.084
-440.908,1213.168,-63.928
-488.0,1233.664,-63.928
-498.492,1219.024,-56.364
-438.468,1161.928,-44.164
-330.132,1074.82,-43.676
-302.316,909.632,-56.12
-318.176,795.928,-40.992
-242.292,709.796,-0.488
-168.604,613.172,-0.244
-104.92,539.728,-15.128
-30.012,467.016,4.88
18.056,386.252,-0.732
182.512,368.196,2.684
384.788,383.324,32.452
470.188,347.944,53.192
489.464,256.932,16.104
586.82,106.384,20.252
639.036,-3.904,53.68
757.132,-89.06,63.684
863.76,-184.952,61.488
1012.112,-278.892,56.608
1083.848,-222.528,42.944
1082.14,-201.788,30.012
1142.408,-240.34,50.02
1202.676,-327.448,79.788
1190.72,-413.092,81.496
1243.912,-412.116,61.976
1304.18,-378.2,39.528
1380.796,-351.116,48.8
1423.008,-342.576,64.416
1389.336,-329.4,61.488
1298.08,-326.96,34.648
1273.924,-278.16,27.084
1304.18,-276.208,36.112
1314.916,-299.876,29.036
1305.4,-304.756,7.564
1280.024,-301.584,-9.516
1265.628,-299.632,18.056
1257.82,-319.64,29.768
1243.912,-329.4,2.684
1236.836,-321.104,-16.104
1272.948,-309.636,-5.612
1289.784,-336.476,2.44
1320.772,-349.896,-19.032
1397.632,-317.932,-54.168
1472.052,-293.044,-77.348
1534.028,-263.032,-110.776
1561.112,-344.772,-95.16
1618.94,-373.32,-49.044
1702.144,-466.528,-64.172
1681.16,-527.772,-94.672
1563.308,-574.864,-95.404
1522.316,-551.196,-96.136
1476.688,-548.024,-87.596
1386.652,-542.168,-122.732
1222.684,-513.62,-157.624
1043.832,-479.948,-144.936
935.496,-431.392,-165.188
806.908,-394.06,-222.528
647.576,-335.256,-298.168
587.796,-215.696,-345.992
540.216,-165.188,-375.516
448.716,-66.368,-393.084
382.104,21.472,-397.476
351.36,61.732,-396.988
307.928,114.68,-373.808
257.908,152.988,-362.584
214.232,193.248,-348.432
182.268,265.472,-332.572
138.348,312.32,-267.18
95.892,354.532,-181.048
94.672,333.304,-90.768
134.688,319.884,30.988
186.904,309.392,185.44
255.956,214.232,351.36
284.992,132.492,537.044
396.5,53.192,722.972
646.356,-7.076,917.44
900.848,-102.48,1039.928
999.424,-163.48,1081.408
1088.24,-144.204,1081.408
1196.332,-135.42,1014.308
1280.512,-127.368,906.704
1339.316,-103.7,770.796
1383.48,-48.068,672.708
1423.74,-15.372,534.848
1427.4,-61.0,351.604
1401.048,-65.392,211.792
1439.6,11.468,99.064
1441.308,-5.612,-2.196
1401.292,-36.112,-97.112
1373.964,-12.688,-189.1
1326.384,6.344,-261.08
1252.94,-28.304,-337.452
1222.928,32.94,-378.688
1127.768,90.524,-374.784
1039.196,95.892,-383.568
1024.312,111.508,-420.9
983.564,96.624,-435.784
940.62,133.468,-386.984
886.452,181.292,-305.244
860.1,181.536,-249.856
886.208,131.028,-245.464
971.608,126.148,-227.408
1038.464,143.716,-212.768
1047.492,135.176,-189.832
1026.264,96.136,-179.096
1041.148,82.716,-150.06
1123.376,101.748,-105.408
1239.764,88.084,-64.172
1302.96,64.66,-12.2
1351.76,41.236,17.324
1377.136,0.976,20.984
1431.304,7.32,4.148
1459.12,19.52,-6.588
1453.264,-2.196,-50.752
1430.084,50.02,-59.292
1301.008,144.936,-30.744
1110.688,198.86,-10.736
895.968,215.208,-13.908
690.52,289.872,-2.928
550.952,362.828,-5.612
451.4,435.784,-6.1
274.744,405.04,5.124
158.112,430.172,29.036
104.676,645.38,90.768
108.58,724.436,167.628
41.48,689.544,143.228
-42.456,736.392,132.736
-176.168,728.828,142.984
-171.776,767.136,164.7
-204.472,880.108,214.232
-310.612,956.968,209.84
-342.332,966.728,172.752
-325.008,999.668,151.036
-315.98,1015.772,134.932
-307.44,1035.78,105.408
-316.224,1075.796,92.964
-316.224,1108.004,83.692
-282.796,1129.476,79.056
-270.596,1132.892,79.788
-270.352,1104.1,76.86
-254.004,1084.092,102.48
-257.908,1039.196,126.88
-270.108,963.068,108.58
-255.712,915.976,81.74
-241.804,924.516,59.78
-284.748,943.792,52.948
-317.932,962.824,44.408
-340.136,1006.5,34.16
-326.228,1017.968,16.104
-265.96,1008.208,3.416
-233.996,962.58,-19.276
-238.388,906.704,-44.164
-287.432,859.856,-29.036
-335.988,850.34,-0.976
-345.26,874.496,12.444
-337.452,903.288,-4.636
-316.224,914.756,-47.824
-285.724,935.252,-104.676
-245.464,958.92,-143.228
-229.36,959.652,-148.352
-220.088,980.636,-126.636
-246.196,995.764,-94.916
-261.812,1001.864,-81.252
-258.64,1011.38,-77.104
-251.32,1012.844,-78.812
-210.816,1014.796,-74.908
-181.78,1015.04,-63.196
-195.688,986.98,-49.532
-208.132,964.044,-41.724
-205.936,949.404,-42.944
-213.012,955.26,-38.552
-214.72,972.096,-31.964
-223.504,986.004,-16.104
-231.312,981.124,-3.416
-204.472,976.488,11.956
-183.732,963.312,36.844
-171.532,954.284,46.116
-170.312,937.936,33.916
-169.58,933.3,19.764
-183.488,941.352,16.104
-207.888,947.94,20.496
-220.332,957.212,18.544
-196.664,957.944,-2.196
-175.68,967.46,-17.568
-178.364,981.368,-25.132
-223.504,984.052,-20.008
-245.464,981.124,-15.372
-245.708,971.608,-13.908
-235.46,956.968,-10.004
-238.144,945.988,-0.488
-238.388,945.012,-11.468
-225.7,965.508,-24.888
-218.624,985.516,-25.864
-208.376,984.296,-31.964
-199.348,958.432,-41.236
-206.18,938.912,-40.748
-234.972,928.664,-40.504
-258.64,932.08,-50.02
-250.344,935.008,-66.856
-233.752,935.496,-76.86
-222.772,942.084,-71.492
-200.08,967.46,-54.168
-183.244,984.296,-58.56
-180.56,981.368,-68.32
-177.876,976.0,-63.196
-180.56,990.396,-38.064
-175.924,1004.06,-21.228
-177.876,1000.4,-22.204
-181.536,986.248,-35.624
-181.292,971.12,-49.776
-176.9,970.144,-51.484
-199.348,973.316,-35.624
-213.988,975.268,-33.428
-206.912,964.044,-39.772
-197.64,953.552,-45.384
-180.072,961.848,-34.648
-177.632,967.948,-20.008
-183.976,965.996,-16.592
-190.808,963.556,-22.204
-189.344,964.044,-25.132
-183.0,972.584,-20.252
-182.512,976.0,-17.324
-190.808,974.048,-14.396
-204.228,968.192,-8.052
-206.668,945.988,-5.368
-193.736,942.572,-8.296
-182.512,949.16,-19.032
-182.756,948.916,-34.648
-188.124,960.872,-42.212
-211.548,963.8,-45.384
-196.42,960.872,-23.18
-168.36,950.136,-9.028
-148.84,947.208,-21.716
-141.276,934.52,-32.208
-151.28,930.128,-30.988
-150.548,947.696,-17.324
-152.988,951.112,-18.3
-160.796,935.008,-30.012
-186.904,919.636,-44.408
-199.348,923.052,-57.096
-210.816,933.544,-62.952
-202.276,953.308,-74.176
-203.74,976.0,-70.76
-206.668,1005.28,-61.732
-219.844,997.472,-49.532
-201.056,987.712,-35.868
-190.808,980.636,-40.26
-189.344,967.948,-43.676
-193.98,958.188,-43.676
-192.76,954.284,-58.316
-173.484,968.192,-67.1
-159.332,973.316,-59.292
-165.188,963.556,-47.58
-182.268,959.896,-56.12
-189.588,955.504,-67.832
-190.564,965.02,-73.444
-180.072,992.104,-66.856
-176.168,1006.744,-57.828
-210.572,999.912,-59.78
-239.608,1022.36,-59.292
-238.388,1074.088,-50.996
-257.42,1118.252,-50.264
-263.764,1142.896,-44.408
-299.144,1138.504,-32.208
-379.908,1125.816,-31.964
-511.912,1120.448,-36.356
-539.484,1162.172,-5.612
-493.612,1148.02,30.012
-450.18,1073.6,20.74
-446.276,960.384,-14.152
-422.852,811.3,-53.436
-382.592,691.252,-36.356
-335.744,567.544,19.764
-262.056,448.716,48.312
-151.524,335.256,56.364
-82.472,197.884,47.092
65.148,114.924,18.544
201.788,26.596,-18.3
225.944,-45.384,-68.076
407.48,-82.228,-99.308
617.076,-188.612,-96.38
823.012,-219.844,-39.528
941.108,-308.66,8.54
1010.648,-506.3,38.064
962.092,-629.52,18.544
1000.4,-616.1,23.912
1250.744,-637.816,69.54
1423.008,-589.016,107.36
1460.584,-520.452,60.512
1452.288,-536.556,27.084
1390.556,-518.988,-11.712
1452.532,-498.248,-61.488
1565.504,-444.568,-81.984
1590.636,-473.604,-26.84
1671.644,-492.392,7.076
1770.708,-544.364,-73.688
1888.56,-552.416,-125.172
1910.032,-586.088,-123.464
1869.284,-639.524,-134.444
1857.328,-631.228,-183.244
1810.724,-591.212,-201.056
1685.064,-604.388,-198.616
1554.036,-594.628,-181.292
1500.6,-626.592,-183.732
1503.284,-651.724,-171.532
1478.884,-660.264,-154.94
1408.124,-647.332,-144.936
1341.268,-658.8,-142.008
1312.476,-657.824,-148.596
1260.26,-635.864,-148.596
1162.416,-624.64,-142.252
1059.204,-597.556,-134.444
1012.112,-544.364,-154.94
943.06,-528.26,-199.348
835.944,-431.392,-238.144
680.516,-358.436,-292.556
516.304,-280.112,-323.3
435.54,-169.336,-382.592
422.12,-95.648,-439.444
358.436,-65.636,-480.924
225.212,6.588,-489.464
129.076,71.492,-485.56
50.752,125.172,-467.992
-20.008,204.228,-447.252
-24.644,250.588,-438.224
11.712,313.54,-386.74
25.62,321.348,-293.288
62.708,312.564,-184.22
156.404,286.212,-59.536
259.128,219.112,110.044
433.344,133.956,279.624
705.404,69.296,457.012
893.04,9.76,642.452
964.532,-12.444,799.832
1036.268,-12.444,873.52
1221.952,-42.456,909.632
1367.376,-32.452,903.044
1365.912,-36.112,864.492
1337.364,-34.648,836.92
1366.4,-23.912,750.788
1444.724,-52.704,615.368
1477.42,-99.552,477.996
1433.988,-87.352,327.936
1394.46,-35.868,168.604
1397.632,-14.396,5.856
1421.056,-39.528,-153.964
1382.016,-24.156,-272.06
1245.62,-31.72,-347.212
1111.664,-12.688,-397.72
1083.116,28.792,-443.836
1082.628,38.796,-438.468
1013.576,32.94,-423.34
963.312,72.224,-458.476
966.728,90.28,-475.068
993.08,113.46,-466.528
1033.34,144.204,-432.856
1040.904,139.324,-383.812
1002.596,79.3,-323.544
944.524,53.192,-264.984
970.632,108.092,-243.512
1007.232,106.14,-214.232
1019.92,82.472,-173.484
1062.62,77.592,-134.932
1098.976,61.0,-87.84
1168.028,36.844,-46.36
1286.856,18.3,-0.732
1443.016,-3.172,47.824
1523.536,-37.088,62.22
1484.984,-43.432,65.148
1411.54,-20.008,75.396
1379.576,54.656,66.856
1287.588,111.264,62.22
1149.728,164.456,23.424
1008.452,207.156,-9.76
856.196,210.084,-25.62
754.448,234.484,-28.06
598.776,258.64,12.444
409.188,324.032,17.324
249.368,464.576,33.428
142.74,509.716,60.024
108.58,512.156,47.336
180.56,535.336,63.196
58.56,557.54,90.768
-102.236,676.368,78.08
-98.82,719.068,33.184
-36.6,731.268,45.384
-192.76,781.044,129.32
-367.22,827.404,117.364
-421.388,874.496,81.252
-418.704,924.76,78.812
-441.396,936.472,100.284
-522.16,1105.076,115.9
-521.672,1208.044,101.504
-477.02,1200.236,85.4
-478.728,1175.348,120.292
-539.972,1163.392,132.248
-597.556,1147.776,114.924
-520.94,1126.548,78.568
-453.108,1080.432,41.48
-401.38,1042.124,44.896
-419.192,1013.332,79.788
-427.976,953.796,58.316
-376.004,904.996,16.592
-319.884,868.152,-14.396
-293.288,869.86,-21.716
-284.504,898.164,-37.576
-295.24,895.724,-43.92
-314.028,913.292,-23.18
-315.98,924.028,-5.124
-292.556,933.3,-17.568
-252.54,956.968,-44.164
-228.628,969.168,-57.584
-211.304,980.636,-67.588
-183.976,981.124,-66.612
-173.972,979.66,-67.588
-138.836,978.196,-78.08
-158.356,960.872,-65.88
-189.344,965.996,-62.952
-202.032,964.776,-62.464
-180.804,972.34,-53.924
-183.976,970.632,-54.168
-187.392,977.464,-68.564
-184.464,970.144,-84.424
-158.844,973.072,-97.356
-152.5,972.584,-91.256
-113.216,1006.5,-66.856
-146.644,992.104,-54.168
-159.576,979.172,-45.628
-126.148,975.024,-27.084
-151.768,962.824,-20.74
-189.832,955.016,-17.812
-217.16,955.016,-28.792
-197.884,960.628,-55.876
-179.096,966.972,-76.372
-163.724,986.98,-87.596
-152.012,1000.644,-95.648
-155.916,995.764,-101.016
-145.668,987.224,-97.356
-167.14,969.412,-78.812
-176.412,968.192,-57.096
-173.972,962.092,-49.044
-154.452,958.432,-59.536
-148.84,947.452,-69.052
-156.892,950.136,-63.196
-153.964,956.48,-55.388
-149.084,967.46,-67.1
-138.348,976.244,-86.62
-137.86,988.444,-87.108
-144.204,1001.376,-75.152
-146.644,994.788,-69.784
-161.528,988.2,-76.128
-168.116,988.932,-83.936
-150.06,989.176,-80.276
-136.152,996.008,-74.176
-133.956,989.176,-71.98
-150.304,981.856,-73.2
-166.652,972.34,-68.32
-168.36,962.092,-68.076
-154.696,963.8,-68.808
-154.208,961.36,-70.516
-156.892,964.532,-72.712
-163.724,956.968,-72.956
-164.944,956.48,-79.788
-162.748,963.556,-82.228
-160.064,971.12,-83.692
-152.5,980.636,-81.496
-158.6,975.024,-75.152
-146.156,984.052,-71.248
-147.376,975.512,-64.416
-151.036,966.972,-64.172
-153.476,960.384,-62.22
-148.84,969.9,-61.244
-153.476,978.44,-61.0
-154.696,979.904,-59.78
-157.868,971.852,-59.536
-163.48,965.02,-59.292
-165.92,970.144,-64.172
-156.892,968.924,-69.052
-159.088,975.024,-71.492
-148.596,980.148,-72.712
-147.864,987.468,-70.028
-154.452,985.028,-67.1
-166.408,972.828,-61.488
-177.876,964.288,-62.952
-171.044,961.36,-63.928
-164.456,966.484,-67.588
-162.992,966.24,-70.516
-166.164,958.432,-71.004
-172.508,954.772,-70.76
-151.28,973.316,-65.392
-143.472,980.636,-58.316
-152.744,980.88,-51.972
-159.82,970.144,-53.436
-170.8,965.996,-55.388
-160.308,980.392,-58.56
-160.308,975.756,-54.656
-152.256,983.076,-51.24
-155.428,979.416,-59.536
-155.916,974.048,-67.344
-170.556,968.192,-70.76
-174.46,967.704,-68.32
-169.336,975.024,-59.292
-150.548,984.296,-57.34
-146.644,989.664,-66.124
-147.62,1002.84,-74.908
-153.476,999.912,-76.372
-162.26,994.056,-67.344
-171.776,994.3,-56.608
-170.312,991.372,-50.264
-164.7,1006.256,-53.924
-160.796,1026.752,-53.68
-176.9,1034.316,-56.852
-187.636,1038.464,-66.368
-215.452,1040.904,-79.544
-239.852,1084.092,-98.088
-261.812,1133.136,-119.316
-288.164,1155.828,-131.76
-290.116,1169.248,-113.216
-264.496,1173.152,-75.152
-305.488,1154.12,-53.68
-389.18,1147.532,-45.384
-484.34,1154.364,-41.724
-493.368,1166.564,-51.972
-333.06,1187.548,-91.744
-186.904,1185.108,-122.976
-219.844,1158.756,-106.872
-321.104,1098.244,-61.732
-387.716,980.636,-25.132
-364.048,883.768,-5.856
-267.424,801.052,-10.98
-86.62,779.336,-14.152
100.04,746.396,-25.864
100.284,644.404,-14.884
19.764,571.692,0.732
28.548,477.996,58.56
83.692,323.056,73.2
301.584,254.98,66.856
493.856,229.36,89.548
566.568,210.328,58.56
582.184,154.94,14.152
626.348,139.324,13.664
674.172,83.204,50.02
748.836,-10.004,52.46
806.176,-107.116,103.7
768.844,-98.088,128.1
701.5,-87.352,109.8
760.792,-105.896,136.152
821.06,-151.036,154.696
839.604,-192.028,88.572
896.944,-121.024,70.028
974.292,-136.884,66.612
970.388,-181.78,55.144
914.268,-193.004,31.964
901.824,-206.912,31.232
950.136,-243.024,52.948
1016.992,-291.58,42.7
1120.936,-319.152,15.372
1255.38,-339.648,5.856
1343.464,-322.568,29.524
1354.2,-351.36,31.964
1336.632,-362.584,21.228
1425.448,-364.536,28.06
1534.272,-371.124,69.54
1560.136,-377.224,67.1
1551.596,-355.508,24.888
1558.672,-334.28,-0.732
1579.9,-319.396,14.396
1559.16,-346.968,-2.928
1525.488,-328.912,-39.04
1494.256,-323.788,-63.196
1484.252,-321.104,-60.024
1478.396,-348.676,-46.116
1462.048,-359.168,-10.98
1448.14,-379.664,-20.008
1461.804,-386.74,-66.124
1466.928,-372.832,-68.808
1471.076,-349.408,-43.188
1510.848,-374.296,-16.348
1557.696,-435.052,-20.984
1548.18,-454.328,-19.032
1500.6,-448.96,-22.936
1409.832,-477.264,-36.112
1396.656,-460.428,-63.684
1379.332,-449.448,-89.304
1277.584,-447.984,-127.368
1185.596,-450.424,-158.6
1087.508,-395.28,-202.52
984.052,-347.212,-264.74
872.3,-266.936,-321.592
780.312,-178.852,-390.156
676.368,-143.228,-448.716
558.76,-98.82,-481.168
441.64,-21.716,-502.152
345.016,66.124,-501.176
255.468,134.444,-485.316
179.34,153.476,-467.504
133.956,222.772,-439.2
104.188,266.936,-396.012
81.74,286.7,-322.08
83.448,284.016,-229.848
104.188,280.112,-141.032
152.744,243.024,-34.16
241.316,211.304,90.768
377.468,182.268,224.48
495.32,149.084,366.244
593.408,145.668,501.176
635.132,109.312,601.46
728.096,88.572,655.872
896.212,91.744,690.032
1083.848,97.6,705.648
1209.02,79.788,678.076
1288.808,95.16,604.632
1320.04,123.708,530.7
1288.32,127.124,475.556
1306.864,125.66,403.82
1324.188,146.156,366.488
1302.96,112.484,390.4
1349.564,97.844,359.168
1419.836,70.272,253.028
1414.956,64.904,189.832
1381.04,61.244,162.504
1340.536,23.912,120.292
1316.136,28.792,35.868
1302.472,47.824,-69.784
1253.672,73.2,-159.088
1173.152,119.072,-249.612
1087.752,156.16,-320.128
1030.412,178.12,-382.592
996.008,181.048,-414.8
971.852,182.756,-404.064
930.86,206.668,-359.168
876.204,192.028,-338.184
855.22,211.792,-353.8
874.008,248.88,-370.636
907.192,256.932,-336.476
935.496,241.56,-275.232
906.216,262.788,-219.844
885.72,245.464,-194.956
877.18,239.852,-180.316
904.752,274.012,-148.352
951.844,281.088,-126.636
973.804,274.744,-121.024
975.024,264.496,-137.616
991.372,277.428,-136.152
1020.408,292.312,-112.728
1058.228,302.804,-101.504
1062.376,303.78,-93.452
1072.868,293.532,-94.428
1081.164,279.868,-61.0
1141.432,252.052,-17.324
1223.172,226.432,7.32
1325.652,212.036,-20.252
1419.836,183.732,-39.284
1493.036,183.0,-42.212
1504.26,189.344,-40.504
1409.588,203.496,-32.696
1164.612,265.228,20.008
946.72,342.82,27.084
780.068,357.216,-0.732
624.64,388.936,-23.668
458.72,425.536,6.588
426.268,472.384,40.26
477.264,547.78,97.6
432.124,532.164,112.728
355.752,583.648,84.668
214.964,684.664,80.276
123.464,674.416,60.268
158.6,692.96,46.116
79.056,761.524,76.372
-73.444,820.084,69.296
-207.4,752.252,97.6
-257.908,750.056,145.668
-325.984,804.468,177.632
-411.384,890.356,192.76
-532.408,894.992,177.632
-593.408,952.088,128.832
-599.752,988.932,132.736
-599.996,1024.312,138.104
-612.928,1024.556,136.396
-583.404,1045.784,121.024
-603.168,1042.368,91.5
-616.832,1038.708,85.156
-580.476,1018.212,81.496
-499.712,984.54,67.588
-409.432,989.664,56.364
-363.316,1013.82,48.556
-347.7,1005.524,80.764
-351.116,966.728,114.436
-356.972,913.536,94.428
-309.88,902.556,66.856
-254.492,913.536,50.508
-273.036,912.072,40.26
-301.584,911.584,33.184
-300.364,920.124,18.788
-259.128,951.844,15.86
-255.712,984.296,30.256
-240.828,994.3,28.792
-232.288,993.568,31.964
-204.96,995.52,39.284
-198.128,979.416,46.36
-186.66,966.972,47.092
-185.684,953.308,47.092
-197.396,939.888,47.58
-203.496,932.812,45.872
-184.464,936.228,42.212
-184.464,957.456,32.208
-199.836,967.216,20.984
-214.476,965.02,15.616
-220.82,968.436,19.276
-227.164,970.388,26.596
-213.744,979.172,26.84
-206.912,985.272,31.232
-210.816,979.172,31.72
-224.48,979.416,39.284
-243.756,969.168,33.672
-243.512,964.288,12.688
-205.692,975.756,-22.448
-138.592,1002.352,-42.456
-132.248,996.984,-46.604
-165.676,995.764,-31.232
-214.72,975.512,-1.464
-218.136,965.996,19.764
-187.88,964.044,32.94
-161.528,955.016,38.064
-155.672,961.36,45.384
-140.3,970.632,54.168
-137.616,971.364,57.584
-152.744,975.268,55.144
-167.628,960.384,48.556
-183.0,950.38,36.112
-196.908,941.352,14.884
-187.88,954.772,14.64
-197.884,958.188,18.056
-219.6,956.236,16.592
-202.276,959.896,17.08
-183.488,957.944,19.764
-177.144,965.996,14.884
-175.436,960.384,6.344
-176.168,960.872,2.196
-177.876,960.14,-6.344
-173.484,958.188,-16.592
-184.708,954.284,-22.448
-216.916,947.208,-23.424
-250.1,941.352,-19.032
-238.876,968.436,-15.128
-193.98,983.32,-24.888
-147.376,991.372,-31.476
-138.836,986.004,-31.964
-179.828,966.24,-22.204
-215.94,959.896,-9.028
-239.852,950.624,0.0
-224.48,950.868,-6.588
-188.612,968.68,-15.616
-178.608,982.588,-12.2
-193.492,975.024,2.196
-210.572,953.796,10.492
-216.428,932.324,13.176
-193.736,939.156,6.344
-162.992,955.504,2.684
-166.896,965.264,0.488
-170.8,976.0,-0.732
-185.684,973.316,0.976
-185.684,973.316,2.928
-193.736,966.972,11.712
-196.908,957.7,17.324
-205.204,955.748,24.156
-208.132,973.804,17.324
-203.252,986.736,-1.952
-194.956,992.592,-26.352
-204.228,997.472,-40.992
-210.084,994.3,-47.092
-216.184,990.396,-44.896
-207.156,984.54,-45.14
-193.248,975.756,-38.796
-167.872,981.368,-25.864
-168.36,969.412,-11.712
-176.412,959.652,-3.172
-178.852,952.576,3.66
-178.364,947.452,4.148
-187.148,944.036,3.66
-185.684,956.48,-4.392
-178.608,967.46,-9.028
-179.828,974.292,-3.66
-185.196,974.536,2.196
-183.244,971.12,-2.44
-183.488,970.632,-11.224
-190.076,973.072,-15.86
-186.172,980.392,-11.956
-173.728,987.712,-2.928
-163.968,986.736,-5.612
-170.8,974.048,-6.832
-188.856,959.896,1.464
-205.204,953.308,16.104
-197.152,953.308,18.056
-172.996,962.336,13.176
-166.896,975.268,12.688
-172.508,970.632,19.764
-173.24,961.848,17.812
-164.944,966.484,13.176
-160.552,966.728,10.004
-162.26,969.656,16.592
-174.948,971.12,23.912
-171.532,970.632,22.448
-163.968,972.34,16.104
-165.188,974.536,11.468
-182.268,971.852,6.1
-181.78,980.392,1.952
-178.364,987.712,-4.636
-170.556,995.276,-14.884
-167.14,988.932,-27.572
-162.016,977.22,-25.132
-192.028,965.02,-10.736
-206.668,960.14,-12.2
-204.472,955.26,-12.2
-198.86,969.168,-14.64
-185.196,987.956,-14.884
-157.136,1008.208,-16.836
-140.544,1019.432,-17.568
-144.936,1017.48,-19.764
-153.476,1004.06,-15.128
-162.016,1004.06,1.708
-159.576,990.64,4.148
-159.332,996.496,8.784
-145.912,1016.016,5.368
-138.348,1018.212,1.22
-145.424,1019.188,-3.416
-149.816,1021.872,-10.004
-157.136,1021.384,-14.64
-172.264,1024.556,-15.86
-130.784,1040.172,-14.152
-94.672,1021.872,-6.344
-93.696,1004.548,-12.688
-97.6,982.588,-12.688
-96.868,943.548,-7.808
-111.508,907.68,-1.22
-89.304,911.828,0.0
-25.62,933.3,10.492
-20.74,922.076,6.832
-59.048,916.952,15.372
-81.984,929.884,34.648
-106.14,958.432,41.48
-137.128,991.86,18.056
-150.792,1033.34,-10.248
-186.416,1072.624,-24.644
-239.364,1118.008,-27.084
-278.16,1204.384,-25.376
-297.924,1286.124,-30.744
-326.716,1311.744,-65.88
-435.296,1246.352,-92.476
-468.48,1232.932,-30.988
-364.292,1169.736,42.944
-254.736,1093.364,89.304
-249.124,1026.996,110.532
-338.916,955.748,55.876
-352.336,880.108,-13.908
-254.248,795.684,17.324
-132.492,648.308,38.796
-168.604,464.82,28.06
-115.9,388.692,-29.28
-113.704,186.172,-55.144
104.92,164.212,-79.788
375.028,-35.624,-32.94
456.768,-190.808,41.968
441.152,-379.908,80.276
546.072,-565.348,76.128
869.128,-714.676,126.148
1023.092,-732.488,193.248
955.26,-642.452,190.808
949.404,-531.92,138.592
1104.344,-490.196,124.44
1128.744,-428.708,100.772
1050.42,-351.604,45.872
969.656,-343.064,19.276
955.748,-419.924,58.804
1063.352,-457.012,49.776
1196.82,-453.352,-16.104
1254.16,-484.584,-19.764
1308.084,-481.656,17.08
1338.34,-484.828,2.196
1435.94,-477.996,-55.632
1615.768,-518.256,-35.136
1731.668,-536.8,18.056
1800.476,-580.232,18.056
1936.14,-552.66,-21.716
2140.612,-537.288,-42.944
2227.232,-565.592,-9.028
2255.536,-700.524,18.3
2271.396,-722.972,-11.956
2176.724,-791.536,-76.616
1975.424,-769.576,-111.752
1844.396,-767.38,-154.94
1710.44,-793.0,-187.636
1546.472,-837.408,-225.456
1390.312,-847.9,-241.316
1303.204,-816.18,-309.148
1187.548,-799.1,-374.296
998.692,-729.072,-400.648
827.892,-664.168,-465.552
623.664,-517.524,-555.832
349.652,-385.032,-630.74
68.808,-262.3,-637.572
-105.896,-137.86,-639.524
-209.596,-25.132,-632.936
-271.816,3.172,-537.532
-291.824,15.128,-403.82
-262.3,10.248,-290.848
-244.488,-69.296,-143.716
-205.692,-81.008,31.232
-69.784,-87.352,219.112
21.472,-67.344,438.712
68.564,-111.508,640.256
287.676,-133.712,866.444
621.224,-148.84,1113.128
899.384,-162.992,1285.636
1147.532,-156.892,1269.776
1445.944,-140.056,1121.668
1685.552,-155.672,932.568
1758.02,-122.244,737.124
1743.136,-104.188,528.992
1714.588,-101.504,339.404
1644.804,-132.736,192.028
1597.712,-113.46,-16.104
1510.116,-94.184,-223.016
1472.296,-111.264,-417.972
1502.064,-81.496,-627.568
1508.652,-43.188,-753.472
1385.188,-83.448,-758.352
1187.304,-88.816,-691.008
1000.888,-61.732,-612.44
864.492,-75.884,-540.704
803.492,-85.888,-512.156
812.032,32.452,-490.684
805.444,114.68,-462.38
771.284,131.516,-422.12
797.392,84.668,-381.616
848.632,92.232,-321.836
864.736,102.48,-252.052
901.824,144.692,-232.776
920.856,150.548,-249.124
950.868,170.556,-238.388
990.152,163.724,-163.48
1043.1,110.532,-71.248
1182.424,59.292,1.708
1340.78,23.424,47.58
1433.988,-0.976,92.476
1461.072,-16.592,143.472
1522.804,9.516,162.748
1644.072,26.596,125.416
1635.044,-5.856,71.492
1461.804,35.38,1.952
1192.428,109.068,-11.712
968.436,162.26,-30.744
843.264,232.288,-73.444
759.572,315.98,-104.92
646.6,309.392,-84.912
425.048,311.1,-3.66
278.892,380.396,58.56
328.912,466.528,69.296
257.664,592.432,84.668
139.568,585.112,59.292
-57.584,594.384,74.908
-209.108,664.9,84.668
-274.256,694.424,88.816
-267.668,704.184,77.592
-252.54,759.328,61.0
-370.636,808.616,49.288
-420.656,868.64,37.576
-438.224,918.904,35.38
-371.612,971.852,2.44
-321.592,1025.044,-27.572
-328.912,1060.912,-45.14
-328.912,1099.708,-56.852
-275.476,1165.1,-54.9
-221.552,1185.108,-48.8
-258.396,1187.548,-7.564
-273.524,1184.864,36.6
-278.648,1149.728,42.944
-216.184,1121.668,-5.856
-137.616,1128.5,-40.26
-110.288,1125.816,-33.672
-113.948,1137.528,-17.812
-143.96,1122.156,3.416
-166.652,1060.668,1.464
-151.28,1025.288,-25.62
-116.144,1001.864,-54.656
-114.192,986.736,-45.14
-111.752,983.808,-19.032
-104.188,967.216,-10.736
-92.72,968.436,-25.62
-83.936,964.288,-29.524
-87.84,957.7,-38.064
-82.228,962.58,-39.284
-78.08,966.484,-43.188
-120.536,970.632,-46.604
-181.78,948.428,-49.532
-210.572,928.176,-56.12
-177.632,941.352,-65.148
-125.66,963.556,-79.788
-104.432,976.0,-85.156
-90.28,977.464,-71.004
-102.968,953.308,-42.944
-109.556,947.696,-29.28
-105.896,946.72,-24.888
-102.236,958.188,-31.964
-106.872,968.436,-34.892
-120.78,978.44,-40.26
-134.688,980.88,-57.584
-148.108,983.564,-66.368
-152.5,978.196,-68.32
-145.424,965.508,-67.1
-103.944,969.412,-60.512
-96.868,966.728,-54.656
-136.396,972.828,-54.656
-143.716,975.024,-37.576
-141.764,976.732,-22.936
-116.144,981.124,-28.792
-77.836,992.104,-30.5
-89.792,995.032,-30.012
-100.528,1009.916,-21.716
-107.36,994.3,-17.568
-107.604,986.004,-39.04
-105.408,982.832,-57.34
-106.384,985.76,-63.684
-113.46,993.08,-71.248
-83.204,1010.648,-90.036
-44.408,1018.7,-91.5
-43.92,1012.6,-80.52
-74.42,981.856,-59.048
-98.332,954.528,-44.164
-132.004,938.18,-31.72
-147.62,948.672,-25.864
-132.736,966.728,-25.132
-115.9,982.1,-30.012
-104.676,986.004,-46.848
-93.94,977.708,-59.292
-87.596,988.932,-67.588
-85.644,998.936,-67.1
-82.472,998.448,-61.976
-63.44,1002.108,-56.12
-44.408,1006.256,-54.168
-27.572,1010.648,-51.484
-44.408,1002.596,-39.528
-68.564,992.104,-28.548
-82.472,976.488,-28.792
-91.012,972.584,-37.82
-92.72,975.756,-47.092
-99.552,980.148,-54.412
-93.452,985.516,-62.952
-85.156,989.176,-60.024
-85.4,988.2,-51.484
-88.816,982.1,-46.848
-85.156,981.124,-53.68
-82.716,978.196,-59.78
-84.668,987.468,-55.388
-100.284,980.88,-50.508
-103.944,977.952,-46.116
-108.58,960.872,-46.116
-104.676,959.164,-48.556
-87.84,965.996,-50.752
-72.468,969.9,-50.508
-83.204,983.32,-43.188
-92.476,981.368,-38.064
-96.868,972.584,-35.38
-85.888,982.344,-36.356
-71.736,993.324,-37.82
-70.028,990.64,-37.576
-82.228,989.908,-40.26
-78.568,989.176,-39.772
-81.74,993.568,-39.284
-90.524,988.932,-38.064
-80.764,986.736,-39.04
-75.152,980.392,-35.868
-74.908,986.248,-38.064
-86.62,982.832,-39.284
-98.82,981.368,-39.04
-101.26,984.052,-42.212
-90.768,985.028,-50.264
-75.884,999.18,-52.46
-71.98,1003.572,-48.068
-78.812,997.472,-39.284
-87.108,986.248,-36.844
-89.06,978.928,-35.38
-90.036,978.928,-40.016
-96.136,976.976,-41.236
-101.26,972.34,-50.02
-88.328,978.196,-58.804
-82.228,984.784,-61.732
-82.472,992.592,-61.0
-92.72,985.272,-52.948
-102.968,983.564,-42.456
-97.112,982.588,-34.648
-77.348,986.248,-28.548
-77.592,981.612,-27.084
-88.328,978.684,-27.084
-94.916,973.56,-24.888
-89.548,979.416,-34.892
-76.616,991.128,-42.944
-74.664,1000.4,-49.044
-83.448,996.008,-54.656
-97.356,992.592,-55.632
-110.044,991.128,-54.412
-114.924,986.98,-56.608
-114.924,978.196,-60.756
-108.824,979.904,-58.56
-108.092,974.536,-51.972
-105.896,973.56,-48.8
-102.48,968.924,-47.58
-99.796,969.656,-47.336
-95.16,973.072,-42.944
-86.864,984.784,-38.064
-90.036,981.124,-37.088
-103.456,974.048,-29.524
-111.752,971.852,-16.836
-107.36,974.292,-4.88
-88.328,973.804,-2.196
-66.124,971.12,-7.564
-56.364,971.12,-15.616
-67.588,972.584,-22.692
-83.936,983.076,-25.864
-98.088,988.444,-28.06
-102.48,997.472,-30.256
-103.944,994.788,-33.672
-108.58,996.008,-38.796
-113.216,996.252,-42.7
-117.608,997.228,-49.044
-116.632,994.3,-55.876
-110.288,991.128,-61.488
-109.8,988.932,-59.78
-111.752,982.588,-52.948
-110.288,971.852,-38.308
-103.944,959.652,-30.256
-90.524,952.576,-28.792
-78.568,955.748,-24.644
-75.884,968.68,-21.228
-75.884,971.852,-21.228
-82.716,973.072,-27.328
-93.452,976.244,-32.452
-107.848,982.832,-34.404
-114.192,988.2,-36.112
-109.8,1000.644,-40.016
-98.576,1010.892,-44.164
-97.112,1013.088,-47.824
-104.92,1008.94,-42.456
-111.02,1000.888,-32.208
-105.896,1005.28,-25.132
-103.456,1014.796,-19.032
-113.704,1032.608,-19.52
-144.936,1071.648,-14.396
-197.152,1130.452,-20.252
-279.624,1208.776,-30.988
-396.5,1281.732,-48.556
-500.2,1327.36,-43.432
-547.536,1355.42,-23.424
-547.78,1305.644,-38.308
-501.176,1201.456,-85.4
-446.032,1098.732,-88.084
-369.904,1014.064,-81.008
-253.76,939.888,-60.024
-202.032,766.404,-37.82
-220.82,610.0,1.708
-202.764,481.9,11.224
-66.368,348.676,6.588
129.808,283.04,-0.732
370.392,151.036,-25.864
532.164,-31.232,9.516
534.604,-187.88,65.88
505.324,-294.02,36.356
547.536,-367.952,-4.148
770.064,-471.652,-17.568
857.66,-524.356,-9.76
824.232,-532.164,-20.008
780.556,-487.756,17.08
801.052,-526.308,70.028
902.312,-573.888,74.664
1053.348,-588.772,39.772
1158.268,-537.532,-6.1
1122.156,-488.732,33.672
1091.656,-499.712,89.792
1092.144,-529.236,80.52
1088.972,-535.092,63.44
1153.632,-549.976,50.752
1220.0,-593.652,50.02
1294.176,-580.232,85.888
1407.392,-616.832,90.28
1530.124,-641.476,51.484
1590.148,-639.524,66.368
1578.192,-638.548,75.64
1618.696,-638.304,25.376
1660.42,-618.052,-32.208
1589.172,-599.02,-61.244
1484.252,-598.288,-67.1
1417.884,-584.624,-81.008
1404.952,-579.744,-88.328
1402.268,-612.196,-85.156
1352.248,-597.8,-83.204
1389.824,-601.948,-95.892
1486.204,-616.832,-122.732
1533.296,-597.068,-153.232
1515.728,-609.756,-167.384
1480.348,-622.2,-141.52
1438.868,-662.948,-132.98
1367.62,-654.652,-120.048
1267.336,-642.452,-137.86
1187.548,-574.864,-171.776
1158.268,-518.5,-227.408
1075.552,-480.436,-268.156
983.564,-425.536,-291.58
856.684,-402.356,-314.272
728.096,-310.856,-327.692
661.728,-196.42,-345.26
605.364,-165.676,-370.148
527.04,-103.7,-402.356
402.112,5.124,-435.784
248.88,105.408,-446.276
142.984,166.652,-458.72
107.36,212.036,-468.48
86.864,262.544,-457.744
49.532,310.368,-397.72
34.404,303.048,-306.708
64.172,246.196,-207.156
145.18,195.2,-122.244
251.808,159.088,-15.372
420.412,141.276,125.172
521.428,86.132,258.396
530.456,27.328,419.924
525.576,-25.864,606.34
605.852,-63.684,782.996
790.56,-85.4,855.708
1012.112,-101.016,872.788
1220.488,-121.024,833.26
1339.072,-130.296,840.092
1366.644,-168.36,825.94
1422.032,-205.448,750.3
1520.608,-192.516,637.572
1489.376,-192.76,559.248
1423.984,-184.22,457.256
1428.62,-191.296,324.276
1505.48,-183.732,167.628
1507.676,-173.24,35.136
1447.408,-119.56,-125.66
1438.624,-108.58,-300.364
1472.052,-89.06,-466.284
1512.068,20.252,-651.724
1392.996,13.42,-757.376
1159.976,-4.148,-742.004
915.244,33.184,-653.92
768.356,62.708,-557.54
700.768,71.736,-509.228
707.6,101.992,-459.696
686.372,105.408,-413.336
727.852,126.88,-351.36
819.108,127.368,-293.532
888.16,137.128,-256.688
956.968,131.028,-219.356
1010.16,117.852,-160.308
1042.368,91.5,-104.92
1068.72,54.9,-91.256
1140.456,66.124,-111.264
1189.012,88.572,-110.288
1244.156,84.18,-93.208
1295.64,58.804,-54.656
1336.144,27.572,-5.368
1328.336,-19.276,39.04
1310.524,-47.58,50.752
1257.088,-10.248,58.072
1154.12,33.184,54.656
1053.836,64.904,22.936
980.88,98.82,6.832
912.804,169.336,-5.368
802.516,164.7,1.464
696.132,208.62,10.98
604.144,283.04,40.016
542.9,312.564,71.98
495.564,345.992,63.44
327.204,449.448,65.88
174.948,481.412,55.632
170.312,503.616,73.2
155.672,567.056,60.268
70.272,686.616,50.752
-107.116,778.36,64.172
-246.196,886.94,46.36
-228.384,947.94,40.016
-353.068,1020.896,87.108
-524.356,1150.216,126.392
-675.636,1173.884,138.836
-733.952,1186.572,84.912
-745.908,1215.364,28.548
-687.592,1262.212,17.568
-563.152,1293.932,37.088
-488.244,1259.772,63.44
-452.864,1198.772,93.94
-421.388,1120.204,100.528
-306.22,1088.484,71.736
-228.628,1052.372,18.544
-184.708,1028.216,-3.66
-186.66,995.764,19.764
-237.168,949.892,43.92
-234.24,916.22,34.16
-225.456,894.016,-1.22
-215.208,872.788,-52.216
-181.292,891.088,-71.98
-165.92,935.74,-60.756
-167.384,983.564,-44.408
-164.456,1009.428,-42.944
-166.652,995.52,-46.604
-157.868,992.348,-38.308
-182.024,975.024,-30.256
-132.98,996.984,-31.964
-98.82,1002.84,-32.452
-116.632,999.18,-26.352
-146.644,1007.476,-8.54
-99.552,1031.632,6.832
-105.164,1008.208,10.492
-128.588,986.492,0.0
-144.692,959.164,2.196
-121.512,945.5,-6.832
-85.644,973.316,-4.88
-81.008,1004.792,-4.148
-104.432,994.544,-7.076
-127.612,981.124,-7.076
-131.272,962.58,-6.588
-134.932,952.82,-0.488
-147.864,950.136,9.76
-142.74,964.776,32.94
-111.508,979.904,40.26
-67.1,986.736,37.82
-45.872,999.912,30.5
-62.22,998.448,28.792
-102.48,983.32,23.668
-114.68,972.828,1.464
-111.264,968.924,-20.008
-97.112,981.612,-29.036
-94.184,989.664,-26.596
-90.768,994.544,-26.596
-74.42,1003.084,-28.548
-75.152,999.424,-29.524
-75.396,1003.816,-30.012
-68.076,1006.012,-13.908
-74.908,997.96,-5.124
-79.788,982.344,0.732
-76.372,973.804,4.392
-78.324,966.728,-2.44
-71.248,976.732,-10.492
-70.028,984.784,-9.516
-70.516,989.664,-4.148
-78.812,981.124,0.488
-91.012,979.66,-1.22
-105.164,970.876,1.464
-89.06,981.856,-1.22
-81.74,988.444,-4.636
-75.396,1002.596,-7.808
-85.156,1002.352,-8.784
-103.456,992.836,-3.904
-101.748,986.98,-0.976
-85.888,984.784,-1.22
-78.08,992.104,-4.392
-73.688,1003.816,-4.148
-83.204,997.716,-2.44
-91.5,985.76,-1.22
-100.528,973.804,-4.148
-87.108,979.66,-7.564
-87.108,977.708,-5.124
-76.372,988.2,-1.708
-73.932,982.832,9.028
-71.736,981.612,15.86
-81.984,969.412,18.3
-78.324,969.9,14.884
-68.076,974.78,16.104
-73.932,982.832,14.64
-76.616,988.444,16.348
-81.74,988.688,18.788
-89.304,983.564,12.2
-91.744,981.856,10.736
-83.448,989.908,6.588
-78.812,996.008,9.516
-63.44,1012.6,13.664
-60.268,1003.816,18.3
-76.86,992.592,22.692
-86.864,989.664,22.692
-82.716,993.324,16.104
-80.52,992.592,10.736
-84.912,992.836,8.784
-86.132,981.856,13.176
-82.96,983.808,18.544
-87.596,981.368,12.2
-93.452,977.464,0.976
-94.672,978.928,-7.076
-86.864,990.152,-3.172
-78.08,999.18,2.44
-71.98,993.568,3.172
-70.272,981.124,-0.976
-83.692,969.168,0.488
-98.576,968.68,1.952
-92.72,974.536,-2.44
-87.108,986.98,-5.856
-90.768,990.64,-8.54
-99.064,989.42,-1.952
-104.188,978.928,7.808
-101.016,975.512,9.516
-94.916,977.952,5.612
-88.328,989.908,2.928
-86.376,1002.352,1.22
-85.4,995.52,6.588
-85.888,983.32,14.152
-94.428,972.096,19.52
-97.356,970.388,9.516
-87.596,975.268,4.392
-77.348,987.224,0.0
-71.492,990.64,5.856
-71.492,995.276,12.688
-75.64,989.664,12.2
-76.616,988.444,12.2
-75.396,992.348,9.028
-71.736,989.176,6.832
-73.2,992.836,9.76
-89.304,985.272,12.2
-91.988,980.88,12.2
-93.696,975.756,8.784
-98.332,975.268,1.464
-97.844,985.272,-5.856
-92.232,996.984,-4.148
-92.232,994.3,-0.244
-98.332,990.884,-2.684
-98.088,988.932,-6.588
-96.38,992.592,-5.368
-97.6,998.936,0.732
-106.384,1010.16,2.196
-105.408,1026.996,2.44
-113.216,1041.392,-1.952
-122.732,1057.984,-14.884
-132.248,1088.24,-25.132
-159.332,1126.548,-42.212
-192.516,1183.644,-73.2
-226.432,1219.512,-104.92
-267.912,1259.528,-120.292
-298.9,1296.86,-102.236
-295.728,1283.196,-77.836
-314.76,1244.156,-58.316
-322.568,1188.036,-57.34
-299.632,1139.968,-43.92
-259.86,1116.3,-35.136
-185.684,1107.76,-61.488
-161.528,1101.66,-78.08
-195.2,1057.252,-80.276
-162.016,1037.976,-60.756
-4.392,1047.248,-28.548
70.028,1026.996,20.008
53.924,1021.628,49.776
-39.284,966.972,56.608
-136.884,892.308,52.704
-132.492,835.944,40.016
-53.68,789.828,50.752
86.132,760.304,87.596
165.432,751.276,133.468
139.08,679.296,149.084
132.98,528.016,113.216
180.316,462.868,94.428
345.26,394.792,75.884
468.48,339.16,54.9
506.788,304.268,15.86
478.972,245.708,-28.548
522.892,181.048,-19.276
596.092,60.512,-10.248
667.828,-34.892,26.108
685.396,-117.364,60.512
645.624,-118.34,47.336
643.916,-137.616,4.88
695.888,-157.868,-36.6
828.38,-164.7,-68.564
904.02,-160.308,-71.004
832.772,-206.912,-17.812
790.56,-233.996,44.408
843.02,-245.708,69.784
832.528,-240.828,87.352
879.376,-273.768,61.0
1040.904,-356.728,-41.236
1187.792,-315.736,-85.888
1103.368,-263.032,-36.844
1017.724,-303.048,20.252
1122.644,-403.332,-50.752
1267.824,-411.384,-66.612
1279.292,-403.576,4.392
1242.692,-430.172,36.6
1380.552,-426.268,8.54
1506.7,-467.26,6.588
1547.692,-432.124,49.044
1648.22,-444.568,-7.076
1823.412,-422.364,-75.64
2022.272,-423.584,-100.528
2079.856,-478.24,-133.468
2042.036,-464.332,-156.892
2001.044,-439.688,-158.844
2015.44,-489.464,-171.288
1968.836,-530.212,-170.068
1807.796,-542.412,-159.82
1614.304,-563.64,-171.044
1485.96,-545.828,-174.46
1409.344,-551.928,-205.204
1321.748,-512.888,-226.676
1272.216,-468.724,-254.98
1131.916,-471.652,-282.796
927.444,-456.768,-325.74
842.288,-350.384,-369.904
789.584,-293.288,-442.372
668.316,-240.34,-499.468
458.476,-147.62,-567.056
152.5,-26.108,-616.588
-129.808,100.284,-631.96
-308.172,207.156,-569.984
-301.34,245.708,-427.244
-237.9,217.404,-251.076
-177.388,169.092,-71.492
-116.876,107.116,115.168
-24.4,-2.928,288.408
186.172,0.244,436.516
460.672,81.252,644.404
586.332,113.46,861.808
689.544,78.568,982.588
866.444,34.404,1017.724
1108.98,19.276,988.2
1325.164,59.048,935.74
1476.444,83.936,829.844
1508.164,63.684,706.624
1499.868,53.68,603.9
1486.204,81.984,493.612
1490.596,68.808,383.08
1471.808,50.752,277.428
1394.46,80.52,205.204
1312.72,99.552,114.68
1261.236,102.48,-25.132
1215.608,122.244,-149.328
1165.344,136.396,-219.112
1133.136,156.648,-285.48
1128.5,180.56,-368.44
1112.64,134.688,-440.176
1093.12,135.908,-453.596
1029.436,159.332,-399.428
961.116,107.604,-387.96
933.056,117.12,-402.844
979.904,131.028,-422.608
1001.62,153.476,-416.02
996.74,199.104,-393.572
957.7,236.436,-332.328
929.884,206.668,-269.62
1007.964,204.716,-181.536
1144.604,214.964,-80.764
1250.256,195.688,-37.576
1324.92,156.892,-71.004
1332.484,218.38,-93.94
1374.696,284.26,-103.944
1427.156,305.976,-115.9
1458.388,319.152,-88.816
1370.548,265.228,-38.308
1173.152,166.896,-6.344
931.592,96.624,-10.248
607.072,198.128,-34.892
452.864,371.856,-73.444
409.92,421.632,-81.496
439.932,474.58,20.984
383.568,409.92,75.884
338.428,402.112,30.5
441.396,393.328,28.06
561.688,481.412,70.76
400.648,583.648,172.264
145.18,608.78,168.36
-65.148,660.996,104.432
-228.14,695.644,112.484
-390.888,734.684,183.488
-621.468,811.056,199.592
-796.172,857.172,141.52
-843.264,911.584,137.372
-812.764,987.712,107.848
-761.036,1059.448,57.096
-666.852,1119.472,44.408
-581.452,1159.976,81.008
-479.216,1150.948,111.508
-438.468,1101.66,154.208
-432.612,1069.94,140.544
-434.808,1021.384,102.48
-410.408,1002.108,53.436
-367.22,1040.416,19.276
-328.18,1072.136,3.172
-291.824,1095.316,3.416
-301.096,1073.356,10.248
-326.228,1040.66,10.98
-315.98,1026.264,3.416
-300.364,1022.36,0.732
-297.192,1003.572,9.272
-322.812,975.268,32.696
-344.284,941.84,25.132
-340.624,917.928,-6.588
-307.196,935.496,-30.988
-271.572,974.536,-34.16
-258.884,989.664,-32.94
-264.008,962.336,-32.696
-254.004,929.884,-37.82
-244.732,915.488,-46.848
-246.684,919.392,-48.312
-243.512,932.08,-59.048
-261.812,913.048,-73.444
-282.796,897.188,-61.488
-296.704,901.824,-40.992
-315.736,912.56,-21.96
-317.444,914.024,-22.204
-304.268,920.612,-29.28
-284.504,915.732,-44.896
-276.208,914.268,-52.704
-279.624,915.976,-64.416
-273.768,924.272,-78.568
-285.724,912.804,-76.86
-296.948,912.56,-57.584
-300.364,917.928,-35.624
-276.208,938.424,-38.064
-247.66,947.94,-49.776
-251.564,941.352,-44.164
-257.908,948.672,-26.108
-231.8,961.116,-11.224
-215.208,958.92,-0.488
-211.06,977.464,-2.44
-198.372,987.468,-11.956
-209.84,969.412,-9.516
-234.24,939.644,-14.884
-230.336,925.004,-30.988
-233.264,935.984,-45.628
-241.56,957.7,-58.072
-230.336,971.608,-53.192
-231.068,964.776,-38.796
-254.736,962.58,-33.428
-261.08,959.896,-33.916
-262.544,959.164,-43.188
-251.32,963.556,-52.948
-233.02,964.288,-50.752
-220.088,961.604,-51.24
-224.48,963.312,-39.04
-230.336,962.824,-23.668
-217.404,967.216,-19.276
-196.42,964.288,-19.764
-193.736,958.432,-24.644
-203.008,956.968,-21.716
-225.944,949.892,-15.86
-252.784,947.208,-12.688
-268.644,954.04,-22.692
-235.948,975.756,-33.428
-204.472,985.516,-52.216
-188.124,997.472,-70.028
-203.984,976.732,-62.464
-233.752,955.26,-40.016
-237.656,952.088,-10.736
-226.676,936.96,9.272
-215.208,927.444,12.932
-233.752,907.68,6.1
-238.632,915.976,7.808
-256.932,929.64,20.74
-258.884,948.916,24.888
-217.648,985.272,5.124
-172.264,1010.404,-32.696
-173.484,1013.088,-39.772
-225.7,981.368,-24.888
-279.38,941.108,-6.832
-283.528,936.228,4.392
-247.66,958.432,6.832
-239.364,965.752,3.66
-256.2,968.192,0.732
-266.204,955.016,4.148
-263.52,945.5,6.1
-250.1,946.232,13.42
-228.14,948.184,18.788
-204.228,943.548,19.032
-200.568,938.424,16.348
-202.52,948.428,16.104
-192.516,975.756,22.448
-181.536,975.024,25.132
-177.388,958.92,32.452
-196.42,940.376,39.284
-214.476,940.62,28.792
-206.668,958.92,18.544
-186.66,996.984,4.148
-193.248,1011.624,-5.856
-207.888,1011.136,-7.32
-226.432,990.152,3.904
-232.288,973.804,16.836
-237.412,949.16,20.252
-235.46,944.768,8.54
-224.48,964.044,-3.172
-225.456,971.364,-5.368
-233.264,957.212,-2.684
-241.316,938.18,-1.708
-240.096,939.156,-0.488
-231.8,972.34,7.076
-219.112,1005.036,3.416
-203.252,1010.648,-7.808
-201.3,1001.376,-11.468
-219.356,976.488,-4.636
-220.088,963.068,-7.32
-208.62,957.212,-16.592
-215.696,942.084,-13.42
-223.992,935.252,7.564
-226.676,929.396,15.128
-214.232,930.372,8.296
-211.792,937.936,5.856
-216.184,945.012,7.564
-226.92,949.892,11.712
-229.36,951.844,9.028
-223.26,960.872,-14.884
-220.088,970.144,-33.184
-221.552,990.64,-32.696
-248.392,983.32,-21.472
-270.352,967.704,-8.052
-273.28,958.676,2.44
-258.884,955.748,-2.684
-242.78,955.016,-19.764
-243.268,948.184,-27.572
-255.712,948.184,-17.568
-245.952,957.7,-7.32
-233.752,958.432,-11.712
-215.696,957.456,-27.328
-207.156,961.604,-32.696
-218.136,963.068,-26.84
-233.508,969.656,-18.544
-241.804,967.704,-25.132
-236.68,960.628,-34.16
-225.944,962.092,-30.256
-236.436,953.308,-25.864
-241.804,948.184,-25.864
-234.972,945.256,-27.816
-233.752,953.552,-14.884
-229.36,958.676,-6.832
-232.044,957.456,0.488
-235.216,955.26,-8.784
-246.928,949.16,-17.08
-246.928,949.648,-18.3
-246.44,959.164,-12.932
-245.464,969.168,-9.028
-240.34,966.24,-11.956
-247.172,961.36,-17.568
-260.592,945.744,-19.276
-266.692,938.912,-16.836
-254.736,943.792,-20.496
-244.732,949.648,-28.792
-244.488,946.72,-33.916
-251.564,939.888,-32.452
-250.1,937.936,-25.376
-248.636,937.204,-22.448
-245.952,947.208,-21.716
-241.56,955.992,-24.156
-249.124,957.944,-25.376
-259.128,966.728,-28.304
-276.696,981.612,-29.524
-300.608,1012.844,-34.892
-345.992,1073.6,-26.596
-427.732,1134.112,-0.488
-533.628,1191.696,0.976
-661.728,1267.824,5.368
-663.68,1338.096,-12.932
-640.012,1333.704,-37.332
-620.004,1279.536,-40.504
-659.288,1138.016,-10.004
-659.776,1014.064,18.544
-562.908,888.404,91.988
-415.288,727.852,105.896
-339.16,592.188,74.664
-244.0,445.788,23.424
-127.368,355.752,36.844
76.128,306.22,54.9
347.944,211.06,41.48
493.612,107.848,25.62
405.528,43.92,18.3
310.368,-8.296,-0.732
437.98,-117.608,-39.772
728.828,-229.116,9.028
823.988,-240.828,57.096
742.248,-291.092,54.656
722.484,-307.928,69.296
801.784,-324.764,93.94
832.528,-349.652,86.376
853.512,-358.192,121.512
856.44,-388.936,159.82
847.412,-416.02,141.032
878.4,-451.156,135.664
992.104,-469.456,146.644
1125.084,-458.232,127.612
1224.636,-454.084,82.96
1379.576,-446.276,88.084
1558.184,-490.684,90.036
1660.176,-510.692,78.08
1661.64,-460.672,73.444
1676.036,-449.936,80.276
1691.652,-487.756,61.976
1679.696,-470.432,42.456
1612.108,-457.988,21.96
1572.336,-439.444,0.244
1534.76,-442.86,-32.452
1505.968,-438.956,-56.12
1496.452,-427.244,-60.756
1495.476,-436.76,-66.124
1482.544,-480.192,-87.108
1477.176,-463.112,-89.792
1520.364,-451.888,-111.752
1547.936,-467.748,-145.668
1592.1,-454.328,-184.708
1616.012,-478.972,-150.304
1632.116,-504.836,-125.904
1626.016,-540.704,-110.776
1561.356,-578.524,-89.06
1503.528,-574.376,-81.74
1405.928,-549.0,-91.5
1270.996,-511.18,-130.052
1190.964,-468.724,-181.78
1080.432,-458.964,-240.096
928.176,-369.904,-296.948
756.156,-283.04,-369.904
609.024,-201.056,-445.056
491.66,-120.536,-510.448
375.272,-15.86,-528.26
210.572,70.76,-542.168
28.792,151.28,-564.86
-121.024,231.8,-539.24
-140.544,290.116,-477.996
-84.668,280.844,-380.152
-52.216,220.82,-243.268
-25.376,172.264,-100.04
-22.204,144.936,35.624
20.984,128.832,112.972
159.088,137.372,187.148
359.9,91.5,305.244
456.768,51.972,448.228
499.956,-13.42,565.836
595.116,-67.588,705.648
768.356,-63.44,772.748
934.764,-51.728,783.484
1087.508,-89.304,798.124
1218.048,-67.344,816.424
1321.504,-65.88,796.66
1403.976,-64.66,722.484
1525.976,-73.688,669.536
1597.224,-65.148,656.36
1638.948,-34.648,592.188
1707.756,-41.724,437.492
1730.448,-26.84,312.32
1701.9,-17.568,205.448
1644.56,-1.464,95.648
1598.932,1.22,-34.404
1542.568,0.976,-172.264
1439.844,21.228,-320.372
1323.944,104.188,-402.356
1187.06,111.508,-466.284
1064.328,126.88,-513.376
945.988,177.388,-537.532
842.776,208.376,-548.268
768.112,227.896,-516.304
705.404,233.264,-464.576
669.292,233.02,-423.828
689.788,281.088,-391.132
733.464,323.056,-337.94
765.184,324.764,-275.232
796.904,313.54,-210.816
842.532,285.48,-145.424
909.876,258.64,-103.944
972.34,253.272,-82.716
979.904,273.768,-53.68
950.624,281.576,-42.212
934.276,289.872,-42.944
969.168,301.828,-31.476
987.468,309.148,-16.592
983.808,324.764,-2.196
985.028,308.66,2.196
990.396,317.444,8.052
1020.896,325.252,-4.88
1052.128,326.716,0.244
1094.828,336.232,6.588
1114.592,306.22,-1.952
1118.496,286.456,-11.224
1131.428,274.988,-6.588
1170.468,294.996,12.444
1257.576,323.3,25.62
1312.232,321.836,33.428
1290.028,308.416,66.124
1260.016,296.46,87.352
1295.396,352.58,80.032
1258.308,435.296,83.692
1152.412,381.616,24.888
959.408,381.372,32.452
780.312,433.1,80.032
756.644,472.384,61.244
746.152,455.304,36.356
638.792,453.596,-8.784
473.116,506.544,-20.984
316.712,539.972,10.736
253.028,554.856,36.6
140.3,573.4,42.212
6.1,640.744,15.372
-69.052,656.116,-10.004
-49.288,665.388,27.084
-4.392,703.452,70.272
-81.984,768.356,107.848
-238.144,812.52,121.756
-385.764,823.256,122.976
-452.132,834.724,96.38
-431.148,859.856,59.536
-450.912,965.508,82.472
-500.932,1046.516,108.824
-528.992,1083.604,113.46
-540.46,1076.284,85.156
-495.564,1090.68,23.424
-458.72,1117.276,34.16
-423.096,1157.292,88.816
-443.104,1135.576,117.852
-444.812,1077.748,110.532
-381.128,1055.056,92.476
-320.86,1035.78,82.96
-290.848,1039.928,87.352
-300.852,1027.24,84.18
-322.568,988.932,63.44
-335.256,938.424,49.776
-321.836,911.828,29.28
-321.348,882.792,28.06
-329.4,869.128,24.644
-300.12,896.456,7.076
-295.484,913.292,-9.028
-265.716,981.856,-9.516
-290.36,981.612,8.052
-297.68,985.272,29.524
-308.416,974.78,32.696
-327.448,960.14,12.2
-303.048,965.752,3.904
-287.676,962.092,9.028
-291.58,969.656,12.932
-298.9,957.456,21.716
-287.92,952.576,15.128
-290.36,950.136,15.616
-315.248,942.572,12.444
-299.632,942.816,6.344
-285.48,940.376,6.1
-293.532,939.888,6.832
-307.196,938.912,20.252
-314.272,945.988,20.496
-304.024,942.328,17.812
-284.992,922.076,11.224
-269.132,904.752,-2.928
-287.92,888.892,-11.956
-302.804,904.508,-5.124
-311.588,910.364,-4.392
-310.124,908.9,-10.98
-295.484,913.048,-8.784
-284.016,916.22,-0.732
-291.092,925.736,19.276
-285.724,939.888,28.792
-286.7,944.768,43.676
-290.848,963.312,55.876
-298.412,958.92,65.88
-285.724,964.044,70.272
-260.348,978.44,50.02
-274.988,966.972,33.916
-277.916,975.756,24.156
-271.572,965.752,34.892
-274.256,952.332,34.16
-280.6,945.744,28.792
-278.404,945.744,18.788
-283.528,945.012,14.396
-270.596,958.676,11.712
-273.768,958.676,27.572
-274.256,958.676,32.696
-284.748,939.888,36.6
-284.992,929.152,31.72
-284.26,921.1,37.82
-280.356,913.048,46.116
-269.132,905.24,41.48
-274.012,904.02,27.572
-292.312,906.704,16.836
-296.948,921.344,23.18
-289.384,943.304,25.376
-283.04,952.332,20.74
-280.356,957.212,7.076
-278.16,962.58,1.952
-286.7,960.872,-2.684
-275.72,972.34,5.368
-267.18,978.196,8.784
-247.66,978.684,6.832
-256.932,963.8,6.344
-280.844,940.62,16.592
-300.852,924.76,29.524
-299.632,929.884,34.16
-282.308,935.74,37.088
-273.036,940.376,37.576
-269.864,943.792,38.064
-277.428,940.864,35.136
-290.116,929.152,34.892
-295.728,928.42,36.356
-289.628,934.276,36.6
-284.016,939.888,42.456
-285.968,938.668,39.772
-293.288,933.544,32.452
-291.58,935.252,23.18
-289.14,942.572,22.692
-289.628,945.744,28.548
-294.264,940.864,34.648
-288.652,933.3,36.356
-269.132,938.668,32.696
-263.764,948.428,36.112
-277.672,950.868,42.456
-290.604,943.792,50.02
-291.092,941.108,49.776
-283.772,944.768,40.748
-268.644,942.816,33.672
-278.648,939.4,33.916
-294.508,943.792,37.088
-301.34,948.672,34.16
-296.704,952.332,27.572
-300.608,956.724,22.204
-302.804,964.776,21.472
-297.436,966.24,20.984
-289.14,969.9,18.544
-291.336,965.752,14.152
-290.848,955.016,11.712
-290.848,954.284,20.496
-290.36,960.14,23.18
-294.508,944.036,18.544
-296.704,935.74,10.492
-294.996,944.524,9.76
-307.196,975.268,23.668
-336.476,1007.232,32.452
-357.948,1034.316,18.544
-408.7,1057.984,-25.864
-446.032,1132.892,-51.24
-496.54,1216.096,-52.704
-577.304,1284.66,-49.532
-675.392,1302.228,-53.436
-711.748,1281.732,-46.36
-710.284,1217.316,-29.036
-724.192,1155.096,-30.256
-676.368,1135.82,-30.744
-546.316,1101.172,11.712
-500.688,1044.808,66.612
-511.18,944.524,73.688
-602.192,863.272,101.016
-603.9,817.4,131.516
-552.904,711.748,127.612
-355.02,718.824,146.156
-101.748,700.036,130.052
21.96,611.464,81.252
9.76,505.812,48.556
26.108,397.964,45.872
123.464,238.876,31.72
274.256,126.88,8.296
427.244,50.996,-35.868
464.088,-52.704,-98.088
446.276,-117.852,-125.172
492.88,-140.788,-119.804
611.708,-233.996,-87.596
608.048,-288.164,-58.316
569.984,-251.564,-65.636
552.66,-259.86,-91.012
604.144,-293.532,-103.944
709.064,-272.792,-34.404
816.18,-298.168,0.0
899.628,-286.944,5.124
950.868,-294.752,40.992
1074.576,-351.36,56.12
1189.744,-315.492,5.612
1255.38,-269.62,-38.064
1301.008,-301.096,-54.168
1464.976,-304.512,-29.768
1643.584,-308.172,-17.08
1692.628,-330.62,-10.736
1629.676,-315.004,35.38
1671.156,-338.428,26.84
1815.848,-287.676,-29.28
1831.464,-255.712,-87.108
1809.748,-248.636,-126.88
1840.248,-229.604,-141.276
1917.108,-227.164,-150.548
1931.748,-278.16,-165.432
1891.732,-261.324,-182.268
1842.2,-282.064,-207.4
1756.068,-306.22,-197.884
1657.98,-356.484,-177.632
1613.084,-391.62,-187.148
1569.164,-391.864,-210.084
1462.78,-374.784,-243.268
1285.392,-322.324,-286.456
1070.916,-270.108,-344.772
987.468,-213.256,-421.388
1036.512,-155.428,-455.548
947.208,-108.824,-465.064
687.104,-70.516,-497.028
368.684,-36.112,-521.184
123.464,34.16,-543.388
-69.54,130.784,-580.964
-259.372,130.296,-543.632
-387.472,172.02,-424.804
-317.444,244.732,-238.388
-176.412,211.548,-39.772
-47.092,141.52,122.244
32.452,91.5,254.98
155.428,74.664,383.568
298.412,76.616,558.028
550.22,56.364,738.344
858.148,55.388,893.04
1078.968,-16.592,1003.572
1204.872,-70.028,1000.644
1347.856,8.296,915.732
1504.504,62.464,785.192
1619.672,71.736,655.628
1684.576,94.428,483.608
1730.448,156.16,337.452
1718.98,152.012,215.696
1719.468,123.464,98.82
1655.784,114.192,51.972
1524.756,114.68,-13.664
1399.34,144.936,-152.988
1307.352,194.224,-302.804
1203.896,272.06,-422.364
1056.032,312.808,-519.476
899.384,322.08,-566.324
757.864,364.292,-571.204
655.14,382.104,-579.988
608.292,381.616,-601.704
617.32,456.524,-543.632
606.34,463.6,-469.7
611.464,475.312,-388.692
630.496,472.384,-280.356
713.944,445.056,-204.472
812.032,423.34,-181.536
882.548,479.216,-177.632
970.388,516.548,-139.08
1029.68,476.288,-86.62
1091.656,469.456,-46.848
1179.496,451.644,-11.956
1278.072,406.748,7.808
1336.388,407.968,2.928
1322.48,381.372,-8.296
1274.656,312.076,-39.04
1260.26,279.38,-76.86
1145.336,277.184,-93.94
934.764,225.7,-49.532
856.196,214.72,5.124
877.912,289.872,20.496
635.62,219.112,25.376
366.976,237.412,-19.276
192.76,319.64,-57.828
187.88,327.936,14.396
274.012,322.08,131.76
232.532,448.472,226.432
-67.588,678.808,213.012
-81.496,736.148,49.288
-131.516,792.024,53.924
-216.184,890.356,150.304
-492.148,1011.868,238.144
-768.844,1120.692,105.896
-742.004,1112.396,18.544
-668.072,1113.372,75.396
-742.004,1145.58,75.152
-817.888,1088.972,40.016
-815.448,1002.596,36.844
-780.8,983.076,59.78
-762.744,997.228,70.516
-745.42,1036.756,71.736
-701.5,1066.768,67.1
-641.72,1027.484,53.192
-585.112,986.248,65.148
-522.404,961.116,65.148
-486.292,910.608,55.388
-468.724,858.148,82.716
-465.064,844.484,93.696
-439.688,846.924,57.096
-389.912,855.952,30.012
-384.056,875.716,26.352
-407.236,885.476,32.696
-391.864,890.356,12.932
-356.972,902.8,1.22
-350.872,915.976,5.368
-361.12,918.904,25.376
-373.808,904.264,27.328
-394.548,903.288,10.248
-393.572,907.436,-1.22
-380.64,904.02,2.684
-377.468,892.308,19.276
-373.076,894.504,24.4
-379.176,892.064,7.076
-383.812,885.964,-4.392
-370.88,889.38,12.2
-356.728,921.588,45.628
-360.388,931.348,30.5
-352.58,931.592,8.784
-349.652,924.76,-17.324
-348.188,915.976,3.66
-367.952,897.432,23.424
-377.224,890.844,18.056
-358.436,893.772,5.612
-346.968,901.58,6.344
-358.68,902.312,22.448
-377.956,895.724,21.96
-379.42,904.996,23.912
-358.436,922.564,24.644
-360.876,912.316,25.62
-375.76,907.192,20.496
-383.812,912.804,4.88
-376.004,918.416,-11.468
-380.64,919.392,-12.688
-386.984,927.688,0.976
-389.18,922.076,-1.952
-385.764,916.464,-8.54
-374.54,919.636,-2.196
-363.804,923.052,4.392
-365.024,924.272,6.1
-380.152,922.076,5.856
-377.956,908.412,12.688
-360.876,900.604,24.888
-358.68,899.384,28.548
-361.852,900.36,12.2
-369.904,899.384,2.196
-366.244,910.852,2.928
-347.212,920.368,-2.196
-367.464,919.392,-6.1
-390.4,911.584,-3.416
-382.104,904.264,-0.488
-379.176,897.92,0.488
-381.128,897.188,-5.124
-378.932,903.044,-7.076
-375.516,909.632,-4.88
-377.956,913.536,-1.708
-369.416,915.244,-3.416
-376.004,905.728,-0.244
-380.396,908.168,0.244
-362.34,910.608,0.732
-357.948,912.072,0.0
-376.492,898.652,-0.976
-383.568,893.04,-6.1
-366.244,889.624,-12.2
-343.552,893.772,-10.004
-367.22,891.088,8.54
-380.64,887.184,13.908
-365.024,892.064,1.708
-355.996,909.876,-9.516
-374.784,920.124,-11.956
-379.908,910.852,-18.056
-366.0,916.708,-20.008
-366.976,920.612,-14.64
-377.224,921.832,-5.124
-377.956,926.468,-0.244
-383.812,934.276,1.952
-387.96,942.328,0.244
-388.448,930.128,-9.516
-381.616,936.716,-12.444
-370.636,938.18,-18.056
-365.268,937.936,-10.004
-383.324,929.64,-2.44
-429.196,932.568,13.664
-468.48,942.084,19.276
-503.372,918.904,1.22
-541.924,915.488,3.172
-586.82,943.792,5.124
-633.912,960.384,12.688
-672.708,950.868,14.884
-602.68,932.812,54.656
-467.504,858.636,23.668
-421.144,789.584,-20.984
-354.044,742.736,-81.74
-135.176,685.152,-112.24
98.576,654.896,-69.052
210.816,568.52,-29.768
342.088,508.008,-16.104
440.42,439.2,64.172
453.108,349.164,100.772
501.908,220.82,78.324
573.156,211.304,71.004
589.992,232.532,61.732
684.908,169.336,47.092
891.088,8.296,63.684
904.264,-24.156,95.648
933.056,-51.484,104.92
999.912,-149.572,142.984
1154.608,-230.824,180.316
1354.688,-290.36,189.344
1502.064,-349.896,181.292
1618.94,-288.652,198.128
1683.6,-297.436,230.58
1640.9,-250.832,226.676
1618.208,-249.856,190.32
1682.136,-270.84,129.808
1714.344,-197.396,55.876
1618.94,-123.952,33.672
1485.472,-108.092,36.356
1457.168,-123.952,15.616
1488.644,-136.396,28.06
1474.004,-140.788,57.828
1474.004,-122.976,58.804
1547.692,-111.752,-1.952
1618.452,-169.336,-39.528
1687.504,-202.52,-27.816
1630.896,-223.26,-22.448
1527.196,-209.352,-15.128
1447.164,-216.672,-9.76
1320.772,-190.32,-2.196
1233.664,-131.76,-4.636
1121.424,-154.696,-31.476
1017.724,-137.616,-75.884
946.72,-82.96,-127.612
863.516,-30.988,-168.604
693.204,15.372,-215.452
545.096,85.156,-273.768
474.58,152.5,-343.064
375.272,190.076,-388.204
207.644,253.76,-388.692
52.216,314.272,-378.2
-21.716,376.98,-383.08
-14.64,424.56,-378.688
61.488,436.028,-375.516
135.908,420.656,-343.308
244.244,374.54,-241.804
365.268,333.792,-132.248
475.8,296.948,-20.984
557.54,310.856,144.448
604.876,322.812,337.208
612.684,256.2,564.86
619.516,157.624,842.776
687.104,72.956,1056.032
784.46,33.672,1141.188
958.676,21.472,1141.432
1114.104,26.352,1088.484
1141.188,46.116,1000.888
1152.168,62.952,853.268
1293.2,83.936,660.996
1448.14,49.776,493.124
1531.1,27.816,341.356
1584.78,13.908,157.38
1616.744,74.176,-68.564
1532.32,157.624,-248.148
1392.02,193.736,-374.296
1250.256,222.772,-483.364
1088.24,233.996,-494.344
960.628,239.608,-468.236
882.792,257.664,-414.8
796.172,268.156,-418.216
769.82,311.1,-441.396
806.908,364.78,-411.872
871.08,372.344,-362.828
884.988,329.156,-339.404
894.504,295.972,-286.456
917.44,294.508,-221.796
892.552,318.908,-182.024
922.076,311.832,-163.968
946.232,287.92,-123.952
898.896,286.7,-71.98
895.968,297.68,-47.336
955.992,292.068,-37.82
983.32,268.156,-19.276
965.264,278.892,-5.856
996.252,292.556,-7.808
1078.236,253.76,-15.86
1272.948,231.312,-0.488
1475.956,194.224,27.328
1423.252,55.632,38.796
1238.3,44.164,48.8
1124.108,128.588,10.492
982.588,253.028,49.776
836.676,266.936,64.904
812.032,257.42,59.78
775.188,364.048,97.356
505.08,366.976,101.504
222.772,483.12,50.264
167.14,722.728,-0.488
249.124,803.248,14.152
316.468,691.252,27.572
58.316,769.088,106.872
-83.936,783.24,142.008
-270.352,739.076,113.46
-409.92,780.556,90.28
-437.98,845.948,61.244
-550.464,912.56,61.0
-728.828,992.592,50.02
-842.044,1022.604,-1.708
-867.176,994.056,-89.792
-748.836,1008.452,-96.136
-658.068,1026.996,-74.42
-691.74,1040.904,-53.192
-698.328,1015.284,-44.652
-688.568,926.224,-7.32
-612.684,914.268,30.988
-463.844,928.42,63.684
-462.624,912.316,53.436
-507.52,885.232,5.124
-524.6,861.32,-22.204
-473.848,862.296,-17.08
-425.536,891.576,-24.156
-444.568,899.872,-23.18
-467.26,873.276,-40.992
-463.6,840.092,-51.24
-449.448,830.088,-70.76
-431.88,866.932,-64.172
-436.516,879.62,-40.016
-402.356,900.604,-7.32
-371.368,915.488,-2.196
-346.236,957.212,-4.636
-345.992,983.076,-11.468
-381.128,958.432,-5.368
-382.592,946.964,-6.588
-369.416,917.196,-0.244
-344.528,921.832,-2.196
-355.752,915.244,3.416
-373.564,915.732,3.416
-392.596,913.78,5.612
-400.404,905.972,-1.464
-404.552,897.188,-5.612
-372.1,898.896,-20.74
-355.02,896.7,-22.448
-378.2,904.996,-23.912
-375.76,916.952,-18.3
-353.8,919.88,-7.808
-353.068,919.148,-5.612
-377.956,903.532,5.368
-377.956,890.844,10.492
-360.876,896.212,3.904
-337.94,908.656,-3.904
-343.308,916.952,-3.904
-352.092,916.464,-4.88
-359.168,907.68,-0.976
-361.364,913.536,-3.66
-343.552,930.128,2.196
-326.228,944.768,-10.736
-327.936,937.204,-13.908
-334.768,925.248,-1.708
-346.236,915.732,6.832
-344.284,913.048,6.344
-344.284,916.464,13.42
-325.984,927.688,12.444
-305.488,931.104,5.368
-327.204,928.42,5.368
-377.224,906.46,8.54
-406.748,893.772,17.568
-403.088,882.548,11.956
-373.32,888.404,3.172
-357.948,904.752,-12.2
-350.628,926.712,-24.644
-343.796,941.596,-16.836
-350.384,928.42,-4.88
-373.808,911.584,7.564
-377.956,901.092,9.272
-357.216,905.484,0.244
-348.432,913.048,-1.22
-346.968,927.2,5.124
-358.192,929.152,14.152
-365.024,926.468,15.86
-357.216,934.276,12.2
-337.452,946.476,6.832
-323.3,945.5,1.708
-325.252,948.672,1.22
-345.992,933.3,2.196
-359.168,925.736,0.732
-371.856,915.488,4.148
-369.66,907.924,7.808
-350.628,915.488,12.932
-344.528,915.0,9.516
-341.6,915.732,4.88
-352.58,914.268,7.32
-357.948,915.488,8.784
-353.312,919.392,3.416
-343.308,928.42,-0.976
-338.428,931.348,-4.88
-341.356,928.176,-4.148
-347.212,924.272,-2.196
-336.964,925.98,0.732
-333.792,926.224,-2.928
-330.62,927.932,-9.028
-327.692,929.64,-10.736
-350.384,917.928,-10.248
-359.656,908.656,-16.836
-360.388,903.288,-22.204
-359.656,915.976,-24.644
-353.068,919.392,-31.72
-336.964,919.636,-30.5
-321.836,933.544,-28.548
-308.66,947.208,-18.544
-316.468,943.304,-20.008
-335.012,926.712,-18.544
-360.876,919.636,-17.08
-370.148,923.052,-17.812
-372.588,929.396,-19.032
-387.228,939.156,-18.788
-397.72,942.328,-10.248
-392.84,955.504,-5.124
-424.56,970.876,-16.348
-482.144,1017.724,-35.868
-531.676,1075.796,-46.36
-582.184,1139.968,-42.944
-613.904,1194.868,-31.232
-643.428,1176.08,-45.872
-700.28,1103.612,-73.932
-725.656,1043.588,-89.304
-752.984,1001.62,-94.916
-793.732,951.112,-118.096
-771.04,938.912,-112.728
-713.944,931.104,-73.932
-621.224,902.556,-48.068
-505.568,849.12,-41.236
-439.2,773.724,-26.352
-416.264,714.432,-0.732
-421.632,667.096,28.06
-373.32,610.976,34.892
-183.732,564.372,46.604
32.696,510.692,64.172
142.74,440.42,73.444
213.5,366.976,70.272
323.3,292.068,61.976
405.772,206.912,55.876
613.904,194.224,53.924
846.192,122.0,56.12
983.808,56.364,121.268
935.496,50.02,171.044
806.42,22.936,150.06
867.42,-25.132,162.504
1038.22,-10.248,244.732
1109.468,-12.444,224.48
1077.504,-7.564,179.34
960.628,-17.568,155.184
786.9,14.64,152.5
625.372,57.828,102.968
526.796,77.104,8.54
499.468,60.512,-21.96
510.204,-1.22,25.376
497.76,-39.04,19.764
515.084,-145.668,16.836
595.604,-258.396,48.312
684.664,-248.88,46.116
798.124,-271.572,28.06
945.988,-342.82,53.436
1056.276,-396.256,73.688
1162.172,-444.324,84.912
1381.772,-458.72,144.204
1609.912,-472.384,206.668
1736.06,-467.992,189.344
1823.412,-448.716,125.172
1950.78,-338.672,87.352
2076.196,-297.436,111.752
2143.784,-271.084,74.664
2196.732,-233.752,18.3
2266.272,-199.836,-37.576
2336.788,-222.284,-41.236
2308.484,-278.404,-1.952
2179.408,-318.908,68.808
2014.708,-421.632,85.156
1895.392,-407.724,58.56
1784.86,-386.74,-0.976
1718.004,-369.66,-48.556
1685.552,-374.296,-72.956
1599.42,-411.384,-118.096
1483.276,-466.284,-140.788
1333.216,-492.148,-142.252
1179.984,-478.728,-172.508
1026.264,-425.536,-244.0
875.228,-331.596,-339.892
736.148,-257.42,-421.144
528.992,-236.68,-502.64
289.14,-141.52,-550.464
15.128,-68.808,-552.904
-315.004,-10.736,-551.44
-595.116,153.232,-500.932
-722.728,214.476,-382.348
-583.16,182.512,-247.172
-415.288,116.632,-62.708
-291.092,67.832,188.124
-146.888,21.716,411.628
30.256,-46.36,625.372
245.22,-92.72,852.048
576.328,-107.848,1114.348
888.648,-145.424,1373.964
1221.708,-235.216,1485.96
1561.844,-210.328,1415.688
1741.672,-117.12,1195.6
1779.492,-41.48,890.844
1825.852,81.984,646.6
1895.88,142.984,359.656
1855.376,174.704,78.812
1596.248,122.0,-131.76
1415.688,219.356,-331.596
1302.228,286.7,-488.976
1226.832,296.46,-528.26
1090.68,250.832,-547.78
992.348,318.176,-519.72
885.476,299.876,-494.588
821.304,257.664,-466.04
783.728,316.224,-427.732
778.848,340.868,-345.016
764.696,329.156,-293.288
752.984,320.372,-268.4
772.748,314.272,-222.04
804.468,331.84,-188.856
862.052,347.944,-166.408
912.072,322.08,-134.932
945.256,309.148,-77.592
953.064,307.928,-7.808
930.128,305.488,22.204
989.908,288.652,43.92
1063.84,280.112,65.392
1046.76,294.264,64.172
1031.876,308.904,39.284
1024.068,321.348,11.956
1058.472,318.908,12.932
1056.52,291.092,23.668
1019.92,299.144,26.108
992.348,303.292,20.74
985.272,319.152,39.04
998.936,315.248,60.756
987.712,296.948,58.804
953.552,296.704,46.116
951.6,315.492,47.58
974.048,325.008,60.512
989.42,295.972,50.508
1018.456,311.344,25.62
1037.244,325.496,0.732
1052.372,339.892,5.124
1096.536,322.324,32.208
1182.18,287.188,77.104
1395.436,238.632,111.02
1558.672,194.224,127.856
1526.22,244.732,142.496
1511.092,335.256,132.004
1495.964,390.4,151.524
1349.076,356.972,166.164
1163.148,270.108,141.276
1046.76,269.62,139.568
895.724,297.436,150.548
652.944,256.2,99.308
409.92,290.848,29.768
370.148,364.536,-11.224
291.092,394.792,-1.708
125.904,333.548,26.108
40.748,431.88,71.98
-30.256,543.876,92.72
-85.888,483.12,67.344
-232.044,412.604,118.584
-609.268,564.86,156.892
-719.068,625.128,74.908
-825.452,614.88,45.872
-916.952,683.444,47.092
-993.568,780.8,48.556
-1152.656,883.036,64.172
-1182.912,934.764,57.584
-1050.664,950.38,53.436
-946.232,926.224,15.372
-870.348,950.136,6.1
-811.544,943.792,37.576
-767.136,901.092,45.628
-693.204,846.436,43.676
-651.968,784.216,53.68
-616.1,750.3,47.824
-585.112,741.516,58.072
-565.592,754.448,76.128
-536.556,774.456,95.648
-485.072,791.048,87.108
-480.924,794.464,73.932
-480.192,822.768,89.548
-507.764,815.204,95.16
-538.264,787.876,72.712
-559.492,774.944,50.996
-562.42,788.852,37.576
-548.268,807.152,41.48
-517.28,826.428,42.7
-496.052,847.168,46.116
-503.86,839.604,43.676
-527.528,830.576,39.284
-535.092,827.648,30.744
-519.964,830.82,23.18
-523.38,835.944,24.888
-528.26,839.604,20.008
-528.504,826.916,13.176
-515.816,829.112,-11.224
-505.812,833.748,-22.204
-504.104,858.636,-15.372
-506.788,853.512,-11.956
-503.86,837.896,-12.688
-502.884,820.816,-19.032
-503.128,828.136,-20.008
-502.396,828.868,-15.372
-506.544,829.112,-2.928
-501.908,845.46,1.708
-492.148,856.928,0.488
-481.656,867.42,-5.612
-483.364,857.416,-4.392
-498.98,850.34,-9.76
-485.316,859.612,-13.664
-488.976,860.344,-11.712
-486.536,861.808,-14.152
-492.88,843.752,-10.004
-504.836,839.116,-9.028
-490.928,844.484,-4.148
-464.088,847.9,-2.44
-465.796,856.928,-5.368
-468.968,869.86,-7.808
-475.8,862.296,-19.032
-467.748,871.08,-26.108
-472.872,861.32,-22.448
-479.46,859.612,-16.592
-472.872,866.932,-15.86
-463.844,857.66,-15.128
-479.948,846.192,-10.736
-491.416,850.34,-9.028
-488.488,862.052,-12.688
-465.552,872.544,-28.304
-457.256,866.444,-24.156
-469.212,862.54,-12.2
-473.116,859.856,-6.344
-463.112,866.2,-10.736
-461.892,860.344,-16.592
-475.312,852.78,-10.98
-488.976,850.34,-8.296
-485.072,851.804,-4.88
-486.292,851.316,-10.736
-496.54,846.924,-14.152
-502.884,849.12,-19.032
-489.464,863.028,-19.032
-464.576,860.1,-24.888
-464.332,858.88,-26.84
-465.552,862.54,-33.184
-469.212,861.808,-26.84
-465.796,865.224,-21.96
-466.284,863.76,-16.836
-464.576,861.564,-10.492
-465.796,853.756,-7.32
-460.184,850.096,-10.736
-450.424,862.296,-19.52
-454.328,872.3,-20.984
-471.652,879.376,-16.836
-471.652,876.936,-12.688
-477.508,870.348,-15.372
-485.316,880.596,-20.252
-502.64,891.82,-21.716
-511.18,895.48,-30.256
-520.94,891.088,-39.284
-542.656,891.088,-36.844
-596.092,894.992,-30.012
-674.172,901.824,-13.176
-751.764,889.624,-6.588
-756.644,865.712,-10.98
-745.176,805.444,-33.184
-716.14,761.768,-48.312
-685.396,676.612,-60.512
-610.0,584.136,-75.64
-498.736,530.7,-63.928
-336.964,506.056,-42.7
-189.832,461.648,-44.408
-99.064,446.276,-16.104
-21.96,422.608,15.86
127.612,346.724,13.176
240.096,258.64,-10.492
376.004,243.268,-24.644
439.2,160.796,-56.608
510.448,95.892,-56.852
562.42,13.42,-46.848
630.252,-57.34,-54.656
846.436,-253.028,-70.76
1157.292,-322.324,34.892
1266.848,-420.656,160.796
1260.504,-455.304,175.68
1552.328,-490.684,96.868
2002.996,-406.504,80.032
2099.376,-291.824,62.708
1990.796,-207.644,19.032
1937.36,-154.452,-16.592
2064.972,-134.444,-63.684
2174.04,-124.44,-71.004
2060.092,-127.612,-56.364
1902.712,-114.68,-81.252
1840.492,-125.66,-119.316
1846.104,-106.872,-109.8
1857.084,-148.84,-110.288
1790.472,-192.028,-113.46
1712.148,-220.576,-143.716
1645.292,-202.52,-186.66
1623.576,-198.128,-219.112
1544.276,-225.7,-239.364
1405.196,-232.776,-241.072
1260.26,-235.46,-245.464
1129.72,-240.828,-248.636
1010.404,-215.208,-259.128
883.036,-183.488,-267.668
741.516,-145.18,-254.98
617.808,-88.084,-255.712
498.492,-64.416,-293.532
405.528,34.16,-344.04
293.288,64.904,-404.552
132.492,133.468,-403.332
-11.468,197.64,-416.264
-128.588,240.34,-389.912
-208.62,275.476,-329.888
-226.92,312.808,-261.324
-257.664,332.816,-134.2
-226.676,343.796,-20.008
-72.468,358.436,106.872
187.636,353.068,220.088
422.12,335.744,348.92
625.128,329.888,500.932
815.692,255.224,670.512
970.876,223.016,799.1
1098.976,185.44,890.356
1164.368,140.3,902.8
1242.936,170.8,875.96
1359.08,194.712,780.556
1427.644,202.276,647.576
1440.576,231.068,512.644
1458.632,250.832,372.832
1444.724,272.06,249.124
1387.628,267.912,126.636
1398.608,291.092,-15.372
1349.076,298.168,-119.56
1200.48,261.568,-147.132
1087.752,266.936,-168.36
1068.476,279.136,-236.924
1058.472,287.92,-269.132
1035.292,292.556,-326.96
958.188,315.736,-356.24
908.412,376.98,-382.592
881.816,409.432,-394.792
893.772,424.316,-397.964
896.944,411.14,-378.932
894.504,392.352,-329.4
880.352,371.612,-304.512
870.592,413.092,-303.536
924.516,436.272,-305.732
913.292,381.372,-290.116
864.736,370.392,-225.944
855.952,383.08,-157.624
894.504,387.228,-111.752
935.984,379.42,-86.376
992.592,367.464,-60.512
1005.036,356.24,-44.652
1075.064,348.188,-55.876
1269.776,333.304,-36.844
1450.824,277.428,16.348
1480.836,259.86,74.664
1351.028,241.316,96.38
1209.264,229.848,65.392
1131.184,268.156,23.18
948.428,316.468,54.9
747.616,303.292,36.112
541.192,338.184,37.332
378.2,450.668,61.732
361.364,466.772,66.368
372.588,520.208,86.62
273.524,620.004,121.512
162.504,660.02,101.26
83.936,708.82,69.54
24.644,739.808,94.672
-23.668,790.56,157.868
-71.004,808.616,178.608
-230.092,922.076,129.808
-329.156,959.896,74.42
-393.084,960.14,57.584
-372.1,983.076,59.048
-466.284,981.856,78.324
-630.252,982.832,72.224
-698.328,965.752,44.652
-646.112,949.404,38.552
-553.636,976.976,55.388
-557.052,1014.308,79.056
-631.472,1005.28,101.992
-632.936,981.856,99.552
-582.184,940.132,86.62
-528.504,927.688,79.3
-484.096,932.568,71.248
-505.324,934.52,66.368
-536.8,893.04,31.232
-524.6,870.348,-4.636
-480.436,874.74,-26.108
-450.424,882.06,-28.06
-465.552,882.548,-19.764
-502.64,872.3,-22.204
-494.588,849.608,-43.188
-464.82,857.172,-44.164
-422.852,877.18,-47.824
-390.644,903.288,-40.504
-401.624,920.856,-39.284
-416.752,913.536,-34.404
-417.24,906.704,-28.304
-407.968,910.12,-25.376
-381.128,911.34,-17.812
-364.048,908.412,-17.812
-392.352,894.26,-24.888
-415.044,890.844,-34.404
-407.968,897.188,-28.304
-373.32,917.44,-21.96
-353.8,931.348,-18.544
-341.356,941.352,-13.176
-365.024,923.296,-15.128
-380.884,903.288,-19.52
-385.52,886.208,-22.936
-380.884,908.412,-19.032
-356.484,926.956,-22.204
-342.576,924.272,-21.472
-359.656,923.54,-25.864
-366.732,920.612,-25.864
-357.948,911.34,-33.916
-331.84,926.956,-42.456
-319.884,944.768,-34.16
-325.252,954.284,-17.568
-344.528,935.984,-10.98
-358.192,917.44,-15.86
-363.072,905.728,-25.132
-364.048,912.804,-25.864
-342.332,923.296,-21.96
-352.336,911.828,-19.764
-366.0,903.044,-19.52
-377.468,896.944,-16.592
-367.952,899.14,-23.668
-355.752,898.652,-30.5
-341.844,908.656,-30.256
-344.528,909.876,-29.768
-349.164,909.632,-26.596
-363.804,902.8,-22.936
-366.0,898.652,-20.984
-351.604,905.728,-18.544
-357.948,904.02,-13.664
-349.408,915.732,-11.712
-347.7,911.096,-5.856
-350.384,910.12,-8.54
-352.092,907.192,-13.908
-356.484,911.584,-12.688
-361.364,919.392,-17.08
-360.632,920.856,-22.204
-357.216,923.784,-24.644
-355.752,919.392,-30.744
-346.48,920.856,-30.744
-363.56,922.32,-24.156
-365.024,918.904,-16.836
-370.148,922.32,-12.688
-371.368,925.98,-13.176
-364.78,926.712,-19.032
-365.756,924.76,-26.108
-362.34,930.128,-24.644
-366.0,929.884,-19.032
-364.536,934.52,-17.568
-370.636,934.032,-18.056
-370.148,940.864,-20.74
-382.836,950.38,-15.372
-398.94,982.1,-6.588
-424.56,1017.236,-2.928
-463.6,1037.976,-13.664
-516.548,1057.252,-17.08
-554.368,1057.008,-25.864
-542.9,1042.368,-45.384
-546.804,1016.992,-61.976
-606.584,989.42,-77.348
-631.228,933.544,-64.416
-590.724,877.668,-43.676
-480.68,849.364,-18.544
-317.444,838.14,-7.808
-256.688,778.848,-14.884
-333.304,736.148,-6.588
-330.864,675.636,-8.54
-211.304,607.316,-4.636
-81.496,580.72,-2.684
24.4,564.616,8.784
153.232,540.948,14.152
257.42,468.724,-9.516
316.468,378.2,-26.596
333.304,297.192,-13.908
489.708,205.936,27.816
724.924,127.612,71.248
899.14,61.976,105.652
850.828,-1.952,79.3
779.336,-15.372,59.536
814.228,-81.74,39.772
945.012,-162.748,37.088
1029.436,-134.2,66.124
1042.368,-215.94,73.444
1000.156,-266.204,81.008
1083.604,-306.22,77.592
1219.756,-319.884,125.904
1246.108,-315.248,140.788
1191.94,-293.288,125.66
1184.376,-306.22,86.864
1281.244,-315.004,72.224
1386.408,-295.24,103.7
1393.972,-296.948,108.824
1378.844,-311.588,106.384
1405.196,-326.472,104.188
1437.648,-293.532,101.016
1403.244,-296.216,91.012
1364.692,-315.736,96.868
1341.756,-318.176,103.456
1332.484,-322.324,93.94
1288.32,-315.98,73.688
1235.616,-290.604,62.952
1213.168,-252.296,58.56
1211.948,-262.3,37.088
1254.16,-276.696,17.08
1292.956,-275.964,32.208
1333.704,-273.28,61.732
1422.276,-296.948,92.476
1479.616,-295.484,88.084
1527.196,-285.236,48.8
1636.02,-224.236,39.284
1727.032,-223.26,54.168
1705.072,-268.4,80.276
1687.504,-310.856,111.996
1661.396,-315.736,119.804
1592.588,-302.072,100.772
1509.384,-283.528,67.588
1444.236,-252.052,30.744
1362.252,-271.572,-30.5
1248.548,-225.456,-80.276
1154.608,-191.052,-122.732
1008.208,-188.612,-162.26
846.192,-120.048,-216.184
676.612,-33.916,-269.864
542.412,43.676,-317.2
424.56,105.652,-355.264
291.58,146.4,-357.948
179.096,229.36,-334.036
86.864,275.476,-287.676
20.008,295.972,-246.928
38.064,319.152,-188.124
72.468,301.34,-116.388
68.32,336.232,-52.704
51.972,375.516,15.86
91.256,367.708,65.392
240.828,334.524,142.252
386.008,337.696,270.596
453.84,316.468,423.584
496.54,244.976,551.44
635.376,204.472,638.304
831.064,199.104,747.616
941.352,171.776,836.676
971.364,149.816,870.592
1077.26,112.728,846.924
1280.268,94.916,809.104
1347.612,136.152,714.188
1418.128,160.308,579.988
1367.864,192.76,446.52
1411.784,211.792,345.504
1474.736,210.328,246.928
1443.504,190.808,147.864
1338.828,183.732,97.112
1299.544,162.748,36.112
1267.824,158.112,-39.772
1211.948,181.048,-135.42
1116.3,197.884,-223.016
1070.428,230.824,-296.46
1050.176,251.32,-373.808
1035.78,292.068,-441.152
984.784,299.632,-458.72
909.876,294.508,-430.66
855.464,286.456,-410.408
817.156,278.16,-363.316
794.464,287.676,-297.68
811.3,290.116,-257.908
850.584,286.212,-209.108
892.552,287.92,-153.232
910.608,265.228,-106.384
972.584,271.816,-61.732
1037.244,274.012,-13.664
1040.66,288.896,37.332
1040.416,334.28,46.116
1086.532,333.792,24.156
1167.296,314.272,11.224
1207.312,303.78,14.64
