acc_x[mg],acc_y[mg],acc_z[mg]
-115.168,1009.428,5.124
-108.824,1000.4,-3.904
-103.7,999.424,-8.052
-100.04,997.96,-5.856
-115.412,992.592,-2.196
-111.264,976.732,-13.908
-111.752,961.604,-33.428
-123.952,960.628,-26.352
-118.584,966.24,-13.908
-97.112,967.948,-16.836
-108.824,969.412,-16.592
-101.016,965.996,-19.764
-104.188,988.688,5.612
-112.728,990.396,10.248
-124.196,991.128,19.764
-126.88,994.544,5.368
-121.756,995.276,0.488
-113.948,1005.28,1.22
-101.992,996.008,-11.956
-91.988,991.128,-21.96
-82.472,986.248,-22.936
-81.74,1000.4,-12.2
-96.38,1005.768,4.636
-100.04,997.472,0.488
-112.728,988.688,-0.244
-83.936,979.416,-19.032
-50.996,987.224,-34.404
-72.956,1002.596,-22.448
-83.692,1007.964,-13.908
-79.544,1014.064,-0.732
-75.152,1023.092,19.276
-59.292,1027.24,32.94
-70.028,1020.408,34.648
-63.196,1009.672,15.616
-90.28,989.176,11.224
-99.064,989.176,16.836
-108.824,1003.816,43.676
-106.14,990.884,41.724
-88.328,986.98,35.38
-105.408,992.592,39.528
-101.748,983.076,20.008
-104.188,986.248,25.376
-79.056,1003.572,39.528
-91.5,998.204,34.892
-83.936,991.616,32.452
-77.592,988.932,23.18
-82.228,976.488,12.688
-91.5,981.856,12.932
-90.524,984.052,5.856
-88.084,985.76,4.392
-74.42,994.544,-6.832
-78.812,972.34,-24.888
-74.664,969.412,-23.912
-82.96,972.096,-25.864
-102.724,970.876,-32.208
-92.964,991.616,-38.064
-91.988,999.18,-22.692
-91.012,1018.212,-9.516
-70.272,1013.82,-35.136
-84.668,1011.136,-44.408
-107.604,1009.672,-48.312
-26.84,982.1,-70.028
-18.3,964.288,-66.124
-161.772,1086.288,18.544
-105.408,1009.916,-18.788
-134.2,1009.428,-3.172
-117.12,1015.04,-0.732
-94.672,1034.072,-6.832
-96.868,1019.676,-17.568
-108.824,1014.308,-11.224
-102.236,1010.892,-4.392
-144.204,1036.512,44.408
-130.54,1016.992,19.276
-92.476,1016.26,8.784
-61.488,1018.212,17.568
-81.74,1016.26,13.176
-122.0,999.18,4.88
-122.244,974.78,-9.028
-115.168,1000.4,-7.32
-77.592,996.74,-57.584
-77.836,1021.14,-17.568
-75.396,1046.76,17.08
-82.716,1048.956,12.688
-71.492,1043.344,2.928
-50.996,1037.976,2.928
-30.744,1022.116,-12.444
-55.632,1011.136,10.248
-57.096,1009.916,18.3
-59.78,998.448,25.376
-51.728,991.86,31.964
-23.424,1017.48,61.732
-46.848,1040.172,98.576
-33.428,997.228,46.604
-1.22,975.268,10.736
-3.416,961.36,-14.152
-30.5,947.94,-31.232
-19.52,940.62,-33.428
-46.604,953.064,-31.72
-95.16,953.796,-5.856
-94.428,978.44,27.328
-101.504,952.088,-13.664
-111.02,945.744,-19.764
-77.592,986.248,-21.96
-77.836,1005.768,-3.66
-92.72,1007.964,13.42
-79.056,1011.136,37.088
-88.084,1012.356,50.508
-70.516,989.908,37.82
-75.152,986.736,40.748
-117.364,997.96,64.904
-115.9,961.848,33.672
-102.724,962.58,20.008
-106.628,954.04,23.912
-123.464,963.068,49.532
-113.216,963.312,40.748
-116.632,955.016,23.912
-123.708,949.16,15.128
-126.88,949.404,13.176
-99.796,958.92,3.66
-91.988,976.976,6.588
-119.56,983.32,19.764
-115.9,973.072,8.052
-143.472,978.928,40.504
-117.608,986.736,21.96
-98.332,966.728,-1.22
-91.5,978.44,14.152
-99.552,995.276,34.404
-117.852,997.716,46.848
-116.388,982.832,30.5
-99.552,995.52,20.74
-69.54,1008.94,16.348
-77.592,1006.012,22.448
-78.08,1008.452,39.772
-90.768,1003.816,56.364
-98.332,985.028,41.968
-101.26,977.464,39.04
-77.104,980.148,33.428
-81.984,995.764,35.624
-84.424,996.984,39.528
-69.54,988.932,19.764
-52.46,1012.112,48.8
-100.772,949.648,-22.448
-88.328,1013.82,57.096
-63.196,990.396,18.056
-85.888,980.148,8.54
-89.548,1015.528,58.804
-77.836,1010.404,49.776
-59.048,999.668,34.892
-60.756,1011.38,48.8
-51.484,1023.092,56.12
-50.264,1027.972,54.656
-17.568,1019.432,37.088
-36.356,1005.524,16.104
-51.24,976.488,-24.156
-77.104,972.34,-19.52
-77.348,987.712,4.148
-100.284,982.344,5.124
-103.212,981.612,1.464
-88.816,973.316,-32.452
-87.352,960.14,-50.02
-81.496,971.364,-43.676
-74.42,987.468,-19.276
-59.536,992.592,-5.368
-80.276,1008.94,17.812
-83.448,997.228,-5.612
-77.836,989.908,-22.448
-83.936,997.228,-29.768
-71.98,1006.256,-33.428
-59.292,1032.12,-18.3
-67.344,1044.564,-12.688
-58.804,1039.928,-13.42
-41.724,1039.44,-10.736
-61.488,1025.288,-9.272
-58.072,1018.944,5.856
-81.74,1005.524,20.984
-94.428,980.392,11.468
-81.252,985.028,-0.976
-129.32,981.612,32.696
-106.872,996.496,22.448
-132.004,1002.108,25.62
-112.24,994.544,7.32
-112.484,992.592,-2.928
-80.52,986.98,-6.1
-81.74,1001.864,4.636
-73.932,1001.132,-4.392
-105.652,991.128,-17.324
-116.632,975.268,-35.38
-98.576,975.268,-34.648
-81.252,985.028,-15.128
-66.368,992.592,-3.904
-71.004,992.836,-10.492
-91.5,982.832,-19.276
-119.56,967.216,-21.472
-113.46,963.556,-21.228
-105.164,970.144,-15.86
-105.164,989.42,-10.492
-97.356,1004.304,-2.44
-109.556,1007.232,9.516
-118.34,1006.012,4.148
-123.464,1024.068,17.568
-144.448,1022.36,24.156
-141.032,1007.476,11.224
-138.592,1021.628,13.42
-173.24,1025.288,13.42
-192.272,1013.332,6.832
-122.488,1183.888,26.84
-284.016,1178.52,47.092
-169.824,1163.636,110.776
-35.38,1071.892,26.108
-122.244,1010.648,106.384
-146.156,832.04,124.44
166.164,455.792,-39.284
620.492,255.712,-151.524
958.92,-58.316,-151.036
1181.448,98.82,-103.7
1206.824,133.224,39.772
1218.78,85.644,20.496
1230.004,107.848,104.188
1169.98,115.168,108.58
1140.456,117.364,64.172
1127.768,113.948,-10.98
1040.172,111.996,-73.688
991.616,115.412,-100.528
999.18,131.028,-84.912
1000.888,116.144,-40.016
987.712,113.46,-49.532
1021.872,114.436,-4.148
1060.18,106.14,60.756
1074.82,93.696,47.824
1029.924,98.82,70.76
985.272,117.364,23.668
934.764,98.576,-10.004
908.168,80.276,-25.864
860.588,101.016,6.1
835.456,105.164,39.772
717.36,116.388,63.928
670.512,99.796,24.888
605.364,109.8,47.824
578.524,117.608,79.544
635.376,99.064,116.876
621.712,56.12,77.592
506.056,51.24,-17.568
520.208,33.184,-51.484
656.116,-20.008,-2.196
484.096,-15.372,38.308
580.232,-24.888,-54.412
703.94,-53.924,-62.22
813.008,-82.472,-44.652
901.336,-129.564,96.38
896.212,-95.648,136.64
726.876,-59.048,191.784
964.532,-168.604,57.828
1111.908,-239.852,-53.924
1237.812,-253.272,-70.028
1166.564,-180.072,33.428
1155.584,-155.428,163.724
1291.004,-178.852,113.948
1180.472,-170.312,75.884
1135.088,-198.86,2.44
1144.116,-177.388,12.932
1317.844,-212.768,68.076
1293.688,-196.42,82.96
1251.72,-174.46,79.788
1272.46,-137.86,121.024
1422.276,-172.508,121.756
1573.8,-204.716,112.972
1561.112,-170.556,40.748
1489.376,-162.748,-57.584
1501.332,-174.46,-92.232
1493.036,-152.5,-61.244
1448.384,-83.936,11.468
1311.256,-30.988,75.396
1221.708,-16.348,116.388
1229.272,-72.224,105.164
1210.24,-105.164,73.2
1148.02,-106.872,37.82
1075.308,-93.452,-5.368
1027.972,-115.656,-10.492
1006.256,-108.58,20.984
1033.584,-144.204,21.228
1035.536,-129.32,26.108
1025.776,-123.22,25.376
1019.92,-130.784,36.112
1010.404,-138.836,-0.244
1018.7,-150.304,-39.528
984.784,-119.316,-48.556
986.98,-122.732,-28.548
1032.12,-126.148,0.488
1023.824,-50.996,-15.86
1014.552,2.684,-21.228
936.228,-54.168,-0.244
885.232,57.828,-59.292
865.712,176.9,-37.576
845.948,397.476,96.624
932.812,588.04,153.72
815.936,747.616,222.528
761.768,777.14,207.156
662.216,683.444,111.02
547.78,731.268,209.84
557.784,895.724,238.388
486.536,1019.92,280.112
462.868,1008.94,254.248
370.392,978.196,233.996
340.38,921.344,184.952
313.296,894.748,173.972
232.532,975.024,216.428
214.964,983.076,200.08
205.204,955.992,177.876
163.236,943.792,145.424
130.296,983.32,147.864
90.036,1029.436,154.94
111.264,1019.188,126.148
70.516,1021.628,145.668
23.18,1043.588,168.604
31.72,1059.448,163.968
77.836,1087.752,132.492
85.4,1155.34,110.288
91.744,1210.484,105.164
78.812,1291.248,114.924
119.804,1346.392,82.228
121.512,1311.256,45.628
106.14,1211.704,82.228
97.356,1301.008,69.784
74.176,1346.88,46.116
65.88,1331.996,92.964
105.408,1494.744,136.396
152.988,1440.82,161.528
150.06,1230.248,47.824
73.444,1122.4,7.32
80.764,1111.908,-15.372
147.62,1205.604,-12.688
170.068,1180.472,-12.688
162.748,1060.18,-9.272
155.428,1049.444,-34.892
68.564,1021.14,-18.056
53.436,1000.4,-16.348
70.272,1015.04,-32.94
62.952,961.848,-44.164
38.796,935.252,-81.496
49.776,921.832,-65.636
69.052,961.604,-59.78
24.156,921.1,-58.072
-31.476,941.352,-43.92
-70.028,930.616,-12.688
-29.28,858.148,-56.852
-54.168,855.708,-32.94
-7.32,873.032,-13.176
-16.348,840.336,-16.836
-73.932,781.044,-33.428
-135.664,760.548,-13.908
-62.22,770.064,9.76
-56.364,803.004,53.192
-77.836,787.388,33.184
-117.12,747.372,10.98
-112.484,720.288,-14.884
-27.084,673.196,-50.752
-27.816,726.632,-53.924
-103.212,772.992,-4.88
-99.796,811.788,18.544
-83.204,801.052,5.368
-77.104,803.248,-17.324
-82.472,822.036,-25.376
-92.72,841.312,-19.276
-67.344,859.124,-12.688
-98.576,874.252,-8.784
-121.024,874.74,-14.64
-115.168,892.796,-13.176
-130.784,922.808,18.788
-132.98,928.42,26.108
-127.124,946.72,26.596
-136.396,962.824,30.744
-115.656,955.748,5.856
-121.024,944.524,8.784
-142.252,992.836,46.848
-103.944,996.008,30.012
-104.432,949.648,13.908
-74.42,925.004,-25.132
-222.772,1014.064,42.212
-91.988,937.204,-53.68
-115.412,985.028,-19.52
-137.128,1029.192,22.448
-132.248,1011.624,9.516
-134.932,991.86,-16.348
-126.88,987.956,-3.416
-131.028,1005.768,11.956
-118.584,1008.452,12.2
-133.468,1011.624,8.784
-120.536,979.904,-32.208
-135.42,972.34,-25.376
-115.412,979.66,-14.396
-111.02,997.472,-1.708
-98.576,1009.672,7.076
-99.308,996.496,-0.976
-92.964,965.02,-25.132
-109.312,986.248,-8.784
-102.968,983.564,-6.1
-86.376,975.512,-28.792
-104.432,969.412,-17.324
-96.136,1009.428,15.616
-97.6,1011.624,25.62
-97.112,988.932,-3.416
-101.992,978.684,-15.128
-111.02,983.076,0.488
-104.676,990.64,4.392
-119.56,1018.456,17.08
-138.592,1003.328,15.372
-118.096,1009.184,10.98
-115.9,1001.62,12.444
-115.412,976.244,-26.596
-115.168,966.972,-36.6
-101.504,1000.644,-6.1
-111.264,1014.552,24.156
-102.968,998.204,18.544
-101.26,992.592,8.784
-104.92,971.12,-8.784
-99.796,960.384,-18.544
-105.896,966.728,-3.172
-102.968,980.392,6.588
-118.096,984.54,16.592
-125.172,989.664,24.888
-114.192,988.2,16.592
-114.436,977.952,5.368
-101.992,991.128,10.004
-108.824,993.08,20.252
-102.48,996.74,9.272
-103.212,996.496,0.976
-101.748,1012.6,15.372
-90.036,1014.552,19.52
-99.308,995.276,2.44
-111.752,991.86,-1.952
-107.604,993.568,0.976
-112.972,997.96,3.172
-136.64,998.204,-1.952
-134.932,996.984,-5.856
-109.556,1037.0,65.392
-78.568,1195.6,161.04
-63.928,1173.152,83.936
-63.928,1150.46,140.056
102.236,1034.316,134.2
332.816,828.868,-119.072
326.228,690.764,-130.052
502.64,630.252,-64.904
751.764,491.66,-48.556
1006.988,387.472,90.036
1050.664,376.248,121.756
919.392,336.232,58.56
977.464,209.352,-62.708
1087.752,202.032,-98.088
1099.708,166.652,3.66
1061.644,178.364,22.692
1013.088,210.572,23.668
1014.796,201.3,32.208
978.928,220.332,20.984
967.704,220.576,21.96
925.004,226.432,11.224
1006.256,163.724,-26.352
991.372,152.256,-22.448
956.724,170.312,29.524
961.36,169.58,16.836
975.024,152.5,-3.66
1001.864,127.368,-11.712
979.416,127.124,22.692
1000.644,101.992,-25.132
977.952,111.264,-33.916
963.556,120.292,-7.32
953.308,127.124,26.352
880.352,118.34,7.32
803.004,96.136,2.196
738.588,51.728,0.0
631.716,43.432,-37.088
512.4,106.14,-29.524
508.984,145.668,34.404
550.952,133.712,67.1
622.444,87.108,57.828
571.692,76.616,61.244
424.072,110.532,51.728
382.104,71.492,24.156
607.316,-0.732,-9.272
710.772,0.0,-13.908
675.88,-41.48,-13.42
662.216,-41.48,15.372
682.468,36.6,147.132
842.776,35.136,205.204
1082.14,-128.588,53.192
1137.284,-195.688,-90.768
1218.048,-229.116,-125.904
1231.956,-40.504,59.536
1244.156,93.696,296.704
1312.964,-20.496,222.284
1262.456,-157.624,-23.18
1253.184,-178.12,-122.488
1204.14,-111.996,-40.748
1192.184,-56.852,92.476
1283.196,-48.312,158.6
1265.872,22.204,221.796
1255.38,-65.88,83.692
1281.244,-124.196,-5.368
1286.368,-29.524,111.264
1301.008,-23.668,142.008
1424.228,-89.304,18.3
1536.224,-47.58,-43.92
1615.768,-25.132,-63.684
1653.588,-66.856,-117.364
1506.456,-24.644,-105.408
1351.272,4.392,-64.904
1267.092,21.472,-0.976
1233.664,56.12,68.564
1205.848,43.92,55.144
1175.836,36.844,17.812
1145.336,30.256,-11.224
1134.6,35.38,-22.204
1166.32,-21.228,-14.152
1208.288,-59.048,-26.596
1164.612,-20.496,-53.192
1113.128,-34.648,-79.3
1049.2,-59.78,-111.996
946.476,-80.032,-129.32
913.292,-57.828,-122.244
866.444,27.816,-134.932
857.66,99.064,-66.856
925.736,178.364,-78.08
830.82,394.304,39.284
824.964,687.592,115.168
817.4,990.64,214.72
681.98,1019.676,207.644
541.192,869.372,122.976
467.992,787.388,47.58
431.636,760.06,23.912
431.148,784.948,36.6
405.284,913.292,52.216
332.084,981.124,43.432
262.3,983.076,33.184
187.88,958.188,47.092
150.06,928.664,18.788
172.264,936.228,-2.44
200.812,998.936,0.732
145.912,1033.096,-26.108
80.032,1051.396,-9.028
98.576,1033.584,-9.028
69.296,1017.236,-8.052
33.672,986.492,-11.956
9.516,994.544,-16.592
-1.952,1002.596,-18.3
-4.636,1075.064,-15.86
-7.564,1095.56,-18.544
-14.64,1100.196,-14.884
-1.708,1119.228,-12.444
14.64,1118.74,-18.788
29.524,1122.4,-38.308
9.76,1126.304,-42.944
-1.952,1143.628,-50.02
9.028,1186.328,-44.896
20.008,1221.708,-29.768
25.376,1244.888,-31.232
53.68,1243.18,-37.088
84.424,1250.988,-54.168
10.736,1355.908,-56.12
-42.7,1398.608,-49.044
-66.612,1383.724,-37.088
-74.42,1265.628,-10.492
-6.832,1335.9,-32.208
87.84,1366.156,-84.668
56.608,1289.296,-94.916
10.248,1206.092,-74.664
21.96,1204.384,-28.304
49.288,1276.12,-20.496
102.724,1227.808,-19.52
35.136,1171.2,2.928
-6.344,1101.904,22.692
23.18,1083.604,51.484
130.784,1098.0,-44.896
160.796,984.052,-102.968
111.264,960.14,-57.096
96.868,952.576,-39.528
121.268,960.384,-41.48
107.604,887.428,-66.612
55.144,851.56,-40.26
22.448,825.208,-52.216
-42.212,816.668,-46.116
-61.732,816.668,34.892
-10.004,841.556,34.648
-42.7,814.228,36.356
-23.424,714.432,6.832
-19.032,653.92,-1.22
19.52,659.044,-31.964
73.2,620.492,-89.548
-37.332,653.676,-5.368
-104.188,658.312,44.896
-84.18,688.08,23.912
-95.16,699.304,30.988
-48.556,748.348,17.568
-55.632,783.972,-7.32
-62.952,754.448,-60.024
-81.984,760.06,-40.504
-66.368,803.98,-34.16
-95.892,837.408,-21.96
-128.1,826.428,-16.348
-120.048,852.292,-21.716
-139.08,883.768,5.612
-131.76,938.424,34.892
-128.588,960.384,47.092
-134.444,929.152,24.4
-160.796,916.464,20.008
-133.956,945.988,21.96
-108.336,990.64,39.284
-78.568,992.104,-4.392
-128.832,976.976,-2.196
-121.756,958.188,3.904
-122.488,965.752,20.008
-150.06,953.552,18.056
-158.6,968.192,7.076
-100.04,971.364,-0.976
-66.612,1033.34,17.812
-76.616,1020.408,20.252
-90.036,982.832,-5.124
-113.948,984.296,0.976
-95.16,984.54,19.276
-41.968,1009.672,25.376
-40.992,1020.408,28.548
-67.588,1000.888,7.076
-80.764,970.144,-35.38
-107.604,955.748,-42.7
-71.736,983.564,-14.152
-31.72,1022.36,10.492
-42.944,1036.756,8.296
-95.892,1011.868,-6.832
-123.464,997.228,-19.764
-98.576,984.052,-25.376
-89.304,1019.188,-7.564
-97.844,1025.532,-28.792
-111.02,1028.704,-12.444
-111.996,1048.468,32.208
-40.992,1117.764,62.708
23.668,1230.492,173.972
-12.444,1120.692,139.812
93.452,1051.64,113.46
217.16,1026.996,61.488
155.672,1047.98,132.248
111.264,988.932,79.3
320.86,655.872,1.952
582.916,364.536,-106.14
871.08,203.496,-216.916
1083.116,243.756,-233.508
1011.136,192.028,-189.588
1042.856,162.748,-238.388
1130.94,114.192,-164.456
1112.152,144.204,-112.24
1056.52,158.844,-77.836
1021.14,116.632,-120.78
1002.352,85.644,-166.408
977.22,90.036,-130.296
990.396,69.052,-105.896
1004.304,19.764,-133.224
1017.236,-1.952,-156.892
1006.5,-17.08,-155.428
978.684,5.368,-94.428
985.76,16.104,-92.964
987.956,20.984,-69.052
898.652,15.372,-52.216
855.708,18.788,-83.936
806.664,24.888,-40.016
745.664,22.936,-26.352
628.3,42.7,-21.472
545.096,61.488,-38.552
506.056,86.132,-35.38
491.904,107.116,25.864
484.584,86.376,54.412
489.22,45.872,40.748
421.632,55.632,51.972
307.44,83.936,76.86
436.028,46.848,16.348
613.172,23.18,79.3
706.136,-10.248,94.428
667.584,-53.68,13.176
618.052,-79.544,-14.884
646.844,-67.832,34.648
787.876,-44.652,183.488
942.328,-37.576,231.312
1064.328,-164.944,57.828
1051.884,-170.8,-25.376
1084.824,-162.504,6.832
1216.828,-132.248,29.28
1197.552,-62.952,56.12
1179.008,-60.024,75.884
1306.132,-107.116,20.008
1464.244,-114.192,100.284
1525.488,-93.452,224.724
1521.34,-162.26,173.484
1426.912,-183.732,14.152
1407.88,-96.624,7.564
1544.52,-89.792,46.848
1686.284,-167.14,10.492
1730.204,-163.968,-10.004
1729.472,-136.152,-20.74
1739.72,-144.692,-114.192
1697.752,-162.748,-200.568
1606.984,-188.368,-184.708
1465.22,-149.572,-119.56
1298.08,-77.592,-40.26
1187.792,-43.188,19.764
1127.524,-82.472,17.324
1082.384,-131.76,-4.88
993.568,-132.98,-26.108
958.676,-148.84,-41.48
979.66,-182.512,-54.9
1007.72,-187.88,-49.776
1024.556,-210.328,-60.756
1021.14,-191.54,-53.192
983.564,-159.088,-60.512
1013.332,-177.876,-105.164
1074.088,-114.68,-99.552
1068.476,-49.044,3.904
1034.804,-34.892,-16.592
1076.284,8.784,-80.032
1047.492,128.1,-73.2
990.152,107.604,-28.548
903.044,114.192,-2.44
927.688,250.588,-18.3
847.168,220.576,-74.42
805.932,269.864,-35.136
677.832,549.0,153.232
559.492,821.548,243.024
445.3,878.644,134.444
352.824,946.72,181.78
289.628,1204.872,225.7
257.42,1127.768,148.108
160.064,1058.716,142.496
125.904,1059.448,129.32
99.064,999.18,105.652
77.104,955.748,82.472
30.012,972.34,75.64
45.384,976.976,77.592
33.428,992.104,89.548
18.056,1006.256,107.116
4.636,1044.808,106.628
27.328,1048.468,89.06
60.756,1053.836,71.98
72.224,1092.388,84.424
67.832,1174.372,90.768
52.216,1196.576,93.94
75.396,1166.808,102.236
109.312,1144.116,62.464
105.652,1199.992,62.952
102.48,1241.228,84.912
108.824,1295.396,69.54
106.872,1341.756,40.016
133.712,1337.364,50.02
157.624,1337.12,55.388
167.628,1324.92,41.724
146.644,1345.66,10.248
130.296,1383.48,53.68
200.568,1443.992,55.388
238.632,1375.184,12.688
218.38,1275.632,28.06
255.468,1243.18,28.06
286.7,1286.612,15.128
293.288,1299.788,46.604
337.696,1205.604,48.556
379.42,1128.5,8.784
356.972,1071.16,-22.692
283.04,947.208,-49.776
232.288,905.484,-44.408
247.416,883.28,-20.984
340.38,902.8,-51.24
301.34,855.22,-40.748
193.248,885.476,8.296
113.216,827.16,-23.424
71.004,738.1,-13.908
111.508,679.54,5.124
152.5,645.624,-8.052
60.268,569.74,-0.976
13.42,524.6,-11.956
-22.692,454.328,-45.384
-22.448,450.424,-13.42
-29.524,522.892,17.568
-44.408,605.852,52.948
-34.404,595.36,-13.908
-98.088,553.148,-62.22
-53.436,633.668,-54.412
5.856,758.596,-14.884
26.84,840.336,27.816
47.58,869.372,-0.732
3.66,842.776,-24.4
8.54,827.892,-53.436
44.164,852.048,-82.716
55.876,910.364,-46.604
25.132,978.684,-14.152
-20.008,987.956,-8.54
-52.704,975.024,4.88
-50.996,984.784,22.936
-25.132,1000.888,9.76
-20.74,988.444,10.98
-34.404,995.276,-6.1
-76.372,1000.888,10.98
-68.076,1027.728,19.032
-58.804,1051.152,25.376
-43.188,1057.008,42.456
-9.028,1045.54,-6.1
-32.94,1033.34,-3.66
-76.372,1055.544,27.328
-38.308,1078.236,21.472
21.228,1072.38,1.22
-15.86,1061.888,31.72
80.52,1068.72,69.54
200.812,1096.78,102.236
177.388,1056.764,171.044
228.384,1023.824,161.772
312.076,873.032,67.832
472.14,809.836,60.268
593.408,662.704,60.756
571.936,423.584,-41.968
874.252,293.532,-227.896
955.016,347.7,-82.96
931.348,356.484,19.52
995.276,286.456,-11.224
1091.412,178.12,-76.616
1053.592,209.352,-40.504
1083.848,208.864,10.98
1023.824,204.472,34.892
1002.596,199.104,27.084
1017.724,143.472,-16.592
980.148,135.908,-42.944
971.608,114.192,-54.656
959.652,118.096,-43.432
963.556,113.216,-25.132
983.32,85.156,-4.148
942.572,115.9,20.74
929.152,136.884,56.852
906.216,148.596,73.932
855.464,129.32,55.388
784.216,135.176,39.04
739.32,123.952,35.868
655.14,114.436,-9.028
625.616,116.388,-7.076
617.564,104.432,-30.5
549.976,110.044,-27.572
618.052,56.852,6.1
645.38,38.796,46.36
622.932,68.808,101.016
523.624,112.24,86.132
480.924,86.132,51.728
677.832,-12.932,-31.476
779.336,-92.232,-27.084
719.8,-99.552,-38.308
623.908,14.884,24.156
689.056,69.784,155.184
866.2,16.836,136.152
980.636,-98.82,-25.376
1026.996,-109.556,-99.064
1029.68,0.0,11.712
1086.288,48.556,193.98
1349.564,-63.928,163.48
1428.62,-172.264,-2.196
1350.052,-144.936,-55.388
1271.484,-84.424,62.464
1262.7,-32.696,213.744
1278.316,0.976,283.04
1304.668,-36.844,229.604
1360.544,-129.564,132.248
1281.488,-97.112,55.144
1293.688,-130.296,38.796
1379.088,-127.612,53.192
1443.26,-24.644,156.648
1517.68,32.94,179.34
1540.616,5.856,169.336
1547.936,-1.708,102.968
1484.496,45.872,83.936
1392.264,91.012,119.316
1337.852,81.008,85.888
1201.212,52.948,48.8
1111.664,55.632,67.832
1136.064,68.32,121.268
1191.696,40.26,130.296
1187.304,11.712,91.744
1131.916,-25.132,11.956
1056.032,-62.464,-66.856
1021.384,-40.992,-39.528
1074.576,-51.24,34.892
1119.716,-45.14,70.028
1075.308,-16.348,128.832
1076.772,-31.232,110.044
1108.736,-48.312,16.592
1051.64,-69.784,-33.916
926.956,-70.516,-40.992
877.668,-84.912,-102.236
858.392,-95.404,-95.16
901.336,40.748,-47.336
915.488,103.456,58.56
1020.896,437.736,193.492
920.612,368.684,90.28
760.792,351.116,108.58
667.828,453.596,107.116
567.544,580.964,204.472
525.332,874.496,220.576
511.424,1036.268,255.224
422.364,1043.588,250.344
350.628,987.468,206.912
234.728,952.576,211.548
222.04,973.072,195.2
184.464,1047.736,186.416
125.416,1059.936,157.868
108.58,1021.628,129.564
87.84,1031.144,123.22
63.196,1047.248,111.752
50.752,1016.016,110.776
38.796,1042.856,98.82
44.896,1055.544,85.156
31.72,1035.78,87.84
21.228,1078.236,90.28
3.904,1159.976,85.156
-2.684,1177.788,77.592
34.16,1230.004,52.46
38.308,1244.644,31.476
36.844,1221.464,32.208
39.284,1248.06,25.62
32.452,1260.992,21.96
-3.66,1314.672,49.776
-33.672,1325.164,71.492
-3.172,1275.388,41.968
2.196,1302.228,31.476
-16.348,1272.704,15.372
5.124,1218.292,16.836
21.472,1246.84,19.764
66.856,1291.248,-5.612
26.108,1277.828,4.636
-40.26,1202.188,25.376
-47.58,1169.004,23.912
36.844,1204.628,14.64
123.708,1243.912,20.008
169.092,1178.764,-15.128
121.512,1041.88,-71.736
50.752,960.872,-70.76
51.728,937.204,-39.284
127.368,996.74,-44.164
156.16,991.86,-75.884
71.004,945.256,-50.752
5.368,937.936,-53.924
46.848,975.268,-46.848
112.484,1007.232,-32.208
88.084,944.524,-23.912
93.696,892.064,-37.82
54.412,862.784,-15.372
39.284,774.944,-5.124
70.028,770.796,-16.104
61.0,759.816,-7.564
-19.032,663.924,11.956
32.696,643.672,19.52
50.752,665.632,16.592
10.98,653.432,25.864
5.856,616.1,-21.96
-4.148,648.552,-17.324
4.392,700.28,-1.708
-6.344,782.264,23.424
-39.528,774.212,10.98
-2.196,757.376,-59.292
-23.424,766.648,-55.632
-9.028,790.316,-44.408
6.1,842.532,-31.232
-11.712,892.552,-6.588
-14.152,922.808,11.468
-30.256,923.784,13.664
-45.628,930.86,14.152
-25.864,946.232,6.344
-2.684,986.736,26.352
-22.692,1008.208,39.04
-70.028,1006.5,39.528
-76.86,982.1,34.404
-47.092,1001.864,42.7
-61.976,1006.988,46.848
-64.66,1009.428,39.772
-61.0,1021.14,46.848
-81.74,1020.652,42.7
-85.156,990.884,14.64
-78.568,975.756,13.176
-78.568,984.052,18.056
-110.532,1011.624,48.068
-96.38,1043.344,55.632
-65.88,1063.352,67.344
-40.748,1068.964,59.292
48.556,1083.36,28.06
105.164,1105.808,38.064
61.976,1135.82,91.5
102.236,1142.408,138.348
110.288,1133.868,201.544
240.828,1005.524,121.756
273.28,735.416,-32.696
485.56,640.744,-22.936
533.14,426.756,-82.96
696.376,193.98,-155.428
1098.488,153.72,-129.076
1138.016,201.3,13.908
1103.856,196.664,62.464
1077.748,139.324,6.1
1076.528,146.156,6.1
1095.316,112.484,-19.764
980.88,172.996,39.04
1064.572,153.964,57.828
991.128,174.216,83.204
973.56,123.464,-8.296
950.868,121.024,-36.112
949.404,114.192,-27.328
982.588,110.044,-1.464
966.728,123.22,21.472
919.88,128.344,57.584
893.284,126.392,64.904
859.368,108.092,50.02
817.156,105.652,64.66
752.984,111.996,91.5
676.856,110.044,37.332
569.252,131.028,-25.132
514.108,141.52,-16.592
494.832,141.52,-14.64
554.124,137.128,11.468
617.076,114.192,45.384
633.912,83.204,44.896
505.812,91.256,90.28
617.564,29.768,35.624
724.924,-7.076,36.356
813.74,27.816,41.968
763.72,20.008,87.84
694.668,4.636,60.756
888.648,-109.312,14.396
967.46,-78.324,54.168
942.816,-95.404,-14.152
899.872,-114.436,-136.396
956.236,-46.604,-65.88
1076.04,11.468,77.104
1283.196,-59.048,100.284
1278.316,-53.192,29.768
1232.932,-35.868,-2.928
1246.108,-87.84,30.256
1294.664,-52.948,38.308
1280.268,-64.66,80.276
1273.436,-70.76,85.888
1256.6,-32.94,114.436
1205.604,29.28,126.636
1336.876,-64.904,83.692
1431.304,-55.388,71.492
1389.336,90.768,97.6
1470.832,100.772,31.476
1577.46,72.468,49.776
1564.04,62.22,-33.184
1445.212,35.38,-119.072
1371.768,93.696,-52.46
1341.024,160.308,76.372
1289.052,211.548,161.284
1275.388,138.348,131.028
1231.468,82.96,67.832
1164.124,7.32,-13.176
1110.444,-23.18,-40.504
1088.728,1.952,9.76
1105.32,-13.908,29.524
1111.176,-18.788,31.476
1051.396,-27.572,30.744
1002.596,-56.852,10.492
962.824,-66.124,-46.116
1005.28,-55.388,-83.448
1017.968,-31.72,-93.452
1015.528,-5.612,-165.432
965.02,-47.092,-172.264
953.308,-38.064,-111.508
945.012,2.928,-95.648
966.24,253.516,82.228
942.084,456.524,147.376
905.484,714.432,255.956
848.144,686.616,115.656
715.164,553.148,70.516
619.76,579.5,98.088
538.752,656.604,140.788
511.424,979.416,170.312
485.316,1116.056,173.972
436.028,1030.656,153.232
326.472,968.192,129.076
214.232,905.972,128.588
157.624,949.16,115.412
141.276,1067.5,123.22
134.688,1099.464,116.632
134.932,1017.236,82.96
71.736,956.236,96.136
52.704,965.508,75.884
27.816,974.78,69.54
46.604,1012.356,54.656
27.572,1071.648,63.196
-8.784,1094.584,64.416
-26.108,1140.944,58.316
-16.104,1169.492,52.704
0.244,1189.256,57.584
27.084,1193.648,34.648
48.312,1230.736,-4.392
48.8,1260.992,-13.908
42.456,1269.532,21.96
61.732,1377.624,42.944
106.872,1427.644,39.528
103.7,1342.732,-16.836
65.392,1257.332,3.172
78.08,1199.992,-14.396
96.624,1280.268,26.352
113.704,1381.772,62.952
107.116,1384.7,3.416
98.088,1290.516,-19.52
133.468,1202.92,-40.504
145.668,1140.7,-31.232
176.412,1208.288,-16.592
181.292,1212.924,-34.16
138.592,1118.252,-37.332
115.656,1057.984,-3.416
170.8,1076.04,30.256
225.7,1061.644,-25.376
227.408,1009.428,1.464
142.008,969.412,-16.592
130.54,942.816,-42.7
212.524,939.4,-38.308
265.472,943.548,-87.352
197.396,883.768,-37.088
112.728,862.54,-40.748
42.456,849.364,-18.788
11.712,829.844,8.052
77.836,833.992,28.548
129.076,836.188,30.5
87.596,777.872,54.412
67.588,706.38,16.104
-10.004,619.76,-8.54
5.856,558.516,-28.792
50.996,592.432,-19.52
41.236,626.348,12.444
25.376,640.744,11.712
-10.736,647.576,-7.808
-48.556,612.44,-47.092
-31.476,632.692,-54.168
23.668,711.992,-35.38
53.436,778.604,-8.052
0.488,817.644,2.196
-35.136,806.664,-13.176
-41.236,830.332,2.196
16.836,901.336,33.428
-3.172,986.004,68.076
-44.164,973.804,65.148
-12.688,935.008,32.208
-14.396,962.824,48.312
-49.776,996.984,48.068
-67.1,969.656,46.116
-49.044,984.296,61.732
-46.848,1012.112,69.784
-89.548,993.812,58.804
-131.76,972.34,40.992
-125.904,961.36,22.448
-109.068,986.98,21.472
-91.744,1021.872,29.768
-88.084,1049.688,46.116
-108.58,1070.428,50.508
-40.748,1080.432,56.12
-7.564,1064.084,23.668
-30.988,1097.756,58.072
33.184,1091.656,19.032
48.312,1101.904,8.296
100.284,1090.68,66.368
184.464,1128.5,92.964
184.952,1102.392,109.556
151.036,1031.388,101.016
299.388,990.152,109.556
458.72,993.568,59.78
513.62,865.712,99.796
567.544,679.296,9.516
527.772,423.584,-74.908
793.976,210.816,-330.376
789.828,261.08,-221.064
935.496,220.332,-170.312
1069.208,154.208,-155.672
1075.796,156.404,-67.832
1043.588,183.732,10.004
1038.952,142.496,2.196
1024.312,120.536,-52.948
998.448,138.592,-48.068
1006.744,117.852,-6.832
993.324,81.984,-43.432
976.0,80.764,-26.84
976.244,91.988,-1.952
1006.256,68.808,-17.812
984.052,62.952,-39.772
978.44,81.74,-30.5
993.812,93.696,10.248
964.532,108.58,47.58
949.16,115.656,53.192
930.128,103.456,30.5
904.508,77.592,2.196
857.904,72.468,10.492
784.948,91.744,21.716
751.276,122.976,41.48
716.872,139.08,49.776
678.564,131.028,36.356
652.7,108.58,24.4
647.82,113.46,75.884
544.608,140.056,90.28
570.716,109.556,17.08
606.34,91.012,-13.908
643.672,49.532,1.708
780.312,0.244,47.092
570.96,82.96,169.092
580.476,77.348,54.412
569.008,-3.904,-98.82
702.964,-147.864,-152.988
856.196,-158.844,0.0
796.416,-21.228,232.532
683.932,61.732,194.468
740.052,-146.644,-127.856
823.5,-291.336,-307.928
1014.796,-290.116,-173.484
1231.468,-172.752,121.512
1339.316,-30.5,381.616
1282.22,-41.724,356.24
1249.524,-198.372,16.104
1207.068,-279.136,-195.444
1202.188,-211.304,-195.2
1255.38,-128.344,-84.18
1404.708,-43.188,111.508
1444.724,-9.76,168.116
1464.488,-24.156,116.144
1369.572,36.356,110.288
1354.932,-13.176,34.648
1493.28,-116.632,-112.728
1545.496,-100.04,-163.968
1474.492,-52.216,-132.492
1458.144,-82.96,-110.776
1486.204,-31.232,-36.6
1512.068,28.548,15.616
1453.508,29.036,61.976
1276.12,39.772,78.812
1144.36,33.184,60.268
1132.892,6.1,25.132
1183.156,-40.504,-28.06
1170.468,-73.932,-64.172
1104.344,-57.096,-62.708
1057.252,-47.092,-42.456
1048.224,-67.832,-44.408
1086.288,-62.952,-65.392
1051.152,-61.488,-79.788
954.284,-18.3,-73.2
931.348,-34.648,-76.128
978.928,-64.66,-170.312
1065.548,147.62,-43.432
1076.04,164.7,-35.624
1031.388,228.872,16.592
958.432,182.756,-74.176
913.292,208.864,-93.208
897.676,314.272,-55.876
814.716,450.912,19.52
746.64,574.376,71.004
704.184,684.664,138.104
671.488,857.66,141.52
671.0,881.328,83.204
620.736,818.376,31.72
467.26,886.208,75.884
399.428,958.676,106.872
304.756,958.92,112.24
287.432,1009.916,142.008
259.128,1089.704,136.884
197.64,1145.58,139.812
107.116,1077.26,117.608
-8.296,1037.488,128.588
-15.372,1004.304,116.876
-28.548,985.028,102.968
-27.572,1000.156,84.424
-23.668,1091.656,67.344
10.736,1117.276,57.34
-7.808,1069.208,51.972
-46.604,1062.864,47.58
-50.752,1116.544,14.152
-29.524,1163.88,10.492
-30.744,1193.404,9.272
-74.42,1239.52,15.616
-86.376,1299.544,12.688
-79.3,1286.612,6.832
-30.012,1309.06,-6.588
-20.984,1354.2,-6.1
-50.752,1360.3,0.976
-74.176,1305.156,6.588
-73.688,1263.676,7.076
-98.82,1234.396,25.864
-51.728,1260.016,37.088
-22.204,1300.764,24.888
-64.66,1257.576,34.892
-114.192,1201.944,30.744
-22.936,1194.136,57.34
71.248,1266.604,38.796
118.096,1232.688,28.06
102.724,1141.92,15.128
74.664,1001.864,-19.276
7.076,949.648,20.496
104.676,932.812,75.396
298.9,1088.972,-13.664
251.32,1017.236,57.096
155.672,886.696,33.428
92.964,844.972,-21.472
95.648,842.288,-61.976
120.048,854.0,-37.82
133.712,900.604,-7.076
94.184,884.988,29.28
38.796,852.048,41.968
66.124,846.924,12.2
46.604,854.0,28.304
30.988,855.22,80.032
4.636,811.544,95.648
18.544,803.98,96.136
52.216,727.608,36.844
-15.128,666.852,21.96
0.244,618.784,-10.004
10.004,636.352,-38.796
-60.512,680.272,23.424
-62.952,716.872,33.428
-50.02,746.396,52.704
29.036,771.528,4.88
22.692,814.228,10.248
26.108,802.516,-4.636
37.088,804.712,-11.956
37.332,799.1,-37.82
-10.736,836.92,-24.4
-34.892,881.328,13.908
-41.724,913.292,32.208
-23.18,928.908,20.984
32.208,908.168,-10.492
43.188,919.148,-18.056
13.908,934.032,-5.368
12.444,969.656,-2.44
-18.544,992.592,17.08
-0.488,985.516,2.44
-13.664,963.8,5.368
-24.156,966.484,13.664
-4.636,995.764,-4.88
-38.796,991.372,4.88
-33.184,993.568,-9.028
-55.632,979.172,-5.856
-74.176,976.732,-5.612
-57.34,1007.964,4.148
-33.428,1050.42,40.992
-31.964,1074.332,56.12
-30.5,1042.124,36.356
-51.728,1028.948,28.06
-72.468,1056.276,61.0
-73.444,1049.932,73.444
8.052,1076.528,84.18
63.684,1148.02,113.948
-52.46,1114.836,118.34
-52.216,1035.536,160.064
254.248,946.964,52.948
339.892,997.228,20.496
429.928,1022.604,137.372
411.628,826.428,146.156
506.056,744.444,62.952
498.492,693.936,79.056
555.832,475.8,133.224
949.648,260.836,-75.152
916.22,262.056,65.88
1065.06,323.056,55.876
1141.188,276.452,117.12
1013.332,277.672,189.1
1066.768,212.28,90.28
1015.04,179.34,167.14
1003.328,174.46,160.552
967.216,186.66,75.64
937.204,187.88,45.14
970.876,154.696,13.664
971.608,133.224,11.712
988.444,143.716,98.576
978.44,180.804,137.616
959.408,146.156,80.276
914.268,152.256,48.8
898.652,164.456,59.292
884.012,149.572,71.248
837.164,144.692,73.932
775.188,131.76,29.524
711.26,114.192,30.012
710.04,91.988,68.808
684.42,103.7,83.936
647.332,102.968,42.212
467.016,154.208,50.264
414.8,161.772,44.164
512.156,139.324,77.592
533.872,132.736,85.888
559.98,74.664,-17.324
482.632,47.824,-69.052
296.948,117.364,42.7
389.912,176.168,115.412
708.82,83.692,92.964
850.828,-40.748,54.168
854.732,-121.756,2.684
782.508,-160.796,-40.26
869.86,-161.04,-69.052
1054.324,-171.776,25.62
1311.012,-140.056,136.152
1347.612,-85.888,176.412
1308.816,-59.292,196.176
1460.828,-157.38,154.696
1678.232,-262.544,74.176
1719.468,-259.128,16.836
1655.052,-177.144,-63.44
1680.184,-165.188,-121.268
1743.136,-187.636,-98.82
1717.272,-151.768,-9.76
1608.936,-138.104,23.424
1484.496,-130.54,-34.892
1336.876,-106.14,-63.928
1263.92,-91.256,-49.776
1210.24,-88.084,-20.252
1203.164,-111.264,-14.152
1205.604,-138.592,-22.692
1173.152,-137.128,2.196
1135.088,-138.104,-13.42
1071.648,-144.448,-55.876
1067.256,-159.82,-77.348
1110.932,-175.436,-67.832
1109.468,-165.92,-28.06
1076.04,-166.896,-7.564
1033.34,-173.728,-30.256
972.34,-156.648,-43.676
966.972,-144.204,-93.208
979.416,-119.072,-89.548
1013.82,-65.148,-84.668
956.724,-23.18,-50.996
1013.332,48.556,-90.768
916.952,88.572,-29.768
802.516,208.864,45.14
805.688,328.668,68.32
754.936,471.408,82.96
697.84,683.688,164.944
731.512,881.816,187.392
604.144,941.84,217.892
550.952,878.156,149.328
466.772,765.916,13.908
353.068,812.032,67.1
298.168,997.96,123.22
240.096,1086.532,169.824
254.492,1031.388,103.7
196.908,984.784,49.288
270.108,1026.996,41.236
232.044,996.984,20.984
183.244,1008.94,11.712
181.78,1061.156,14.64
137.616,1055.544,42.456
123.464,1016.504,28.06
196.908,1044.564,2.196
265.228,1109.224,-14.64
310.856,1165.1,-30.5
232.288,1126.792,-20.496
267.668,1155.828,-36.112
251.32,1151.192,-55.632
188.368,1139.724,-56.12
199.104,1113.86,-61.976
271.328,1181.448,-70.272
304.024,1256.356,-93.208
213.5,1267.824,-80.276
140.3,1246.596,-75.884
158.356,1233.42,-93.94
139.812,1310.524,-55.632
111.996,1327.116,-45.872
110.288,1302.96,-50.996
102.724,1217.56,-48.556
163.724,1123.376,-127.612
178.12,1166.808,-101.26
143.228,1189.744,-67.832
108.336,1160.708,-30.5
84.18,1133.136,-7.564
126.392,1080.92,-39.528
199.592,1073.6,-99.064
239.12,1028.704,-128.1
179.828,1008.452,-96.136
161.528,977.22,-103.456
129.808,1055.056,-61.0
155.916,1057.984,-56.608
262.544,958.676,-137.616
271.328,944.28,-208.132
89.548,911.828,-142.74
13.42,880.352,-136.396
58.072,896.7,-123.708
53.436,918.416,-85.644
22.448,959.652,-9.272
36.6,935.74,-59.292
14.884,893.284,-28.304
-39.528,793.0,-60.024
-103.7,740.052,-45.384
-101.504,696.62,-19.52
-83.692,708.82,-0.244
-98.088,685.64,35.38
-126.636,626.592,-6.832
-141.52,570.716,-51.24
-135.664,556.076,-71.004
-138.104,638.548,-49.288
-130.296,731.512,-18.788
-110.288,771.772,-36.844
-95.648,742.492,-104.188
-66.612,740.052,-147.132
-59.78,805.2,-115.656
-57.584,882.548,-84.912
-92.476,935.008,-49.044
-81.252,931.104,-77.836
-71.248,937.448,-107.36
-66.368,973.56,-106.14
-90.036,1017.724,-62.464
-67.344,1051.152,-33.916
-59.292,1062.376,-34.892
-102.968,1011.868,-59.536
-101.748,992.592,-105.652
-94.916,1000.644,-87.352
-112.24,1055.544,-31.72
-129.564,1063.84,-17.324
-144.448,1030.9,-37.088
-131.76,983.564,-66.612
-88.328,978.928,-100.772
-78.568,991.372,-86.62
-107.848,1005.768,-64.66
-97.6,1017.724,-44.652
-94.428,1009.428,-61.244
-119.316,961.604,-79.056
-114.192,940.132,-95.648
-84.912,946.964,-103.7
-63.928,981.124,-82.716
-81.008,1001.864,-51.972
-83.204,999.912,-46.604
-68.564,998.204,-57.828
-78.812,988.688,-41.968
-44.164,998.936,-76.86
-64.66,985.516,-65.636
-40.016,1024.556,-30.256
21.716,1083.36,7.564
-3.66,1070.916,39.528
35.868,1089.704,53.436
232.288,1034.072,15.128
365.268,1030.168,-94.184
332.572,988.932,-48.312
237.168,946.72,-72.224
366.976,856.928,-164.7
464.576,723.948,-197.396
421.388,610.244,-142.984
690.276,265.716,-267.668
1140.456,171.776,-242.292
1128.744,264.252,-41.724
1124.108,202.52,-48.8
1135.576,171.776,-78.08
1129.964,179.096,-34.404
1112.152,134.688,-56.364
1003.084,148.352,-87.352
1003.572,119.56,-107.116
975.024,116.144,-82.472
941.108,106.872,-61.0
892.308,97.844,-70.028
902.556,83.448,-72.224
883.768,91.5,-50.752
864.492,81.008,-59.78
810.812,94.428,-14.884
762.988,77.592,7.564
724.192,78.08,40.26
629.032,100.772,56.608
490.684,118.584,-2.684
468.968,106.14,-103.212
439.932,146.4,-59.78
475.556,148.596,17.812
601.46,69.296,16.104
693.936,9.272,-24.4
587.064,60.512,-4.636
413.092,129.808,-34.892
619.272,17.08,-112.24
926.224,-80.52,-10.004
946.476,-75.64,51.484
833.26,-16.104,57.34
717.116,82.96,19.52
836.432,74.664,-30.012
998.692,62.22,10.736
1057.984,-10.004,70.272
1112.64,-15.86,54.412
1123.864,-32.452,93.452
1148.508,-81.496,92.476
1182.912,-143.472,-41.236
1150.216,-128.588,-181.292
1189.5,-142.008,-212.524
1334.68,-134.932,-91.744
1373.232,-76.616,98.576
1421.788,-45.384,138.592
1490.84,-104.92,57.828
1584.048,-178.608,-70.028
1628.7,-153.72,-102.968
1632.36,-80.52,-65.148
1636.752,-75.396,-91.256
1600.152,-102.724,-151.524
1537.444,-149.328,-165.188
1415.2,-151.036,-122.488
1314.672,-162.016,-109.556
1198.04,-75.152,-63.928
1152.656,-9.516,-6.832
1157.048,-5.856,14.64
1170.956,-40.26,11.468
1173.884,-85.644,-4.392
1159.488,-99.552,-25.62
1151.924,-118.096,-54.9
1115.324,-157.624,-60.024
1070.916,-184.952,-68.808
1035.78,-153.964,-78.324
1021.628,-134.444,-73.2
1018.944,-118.828,-50.752
1014.552,-134.688,-52.46
1028.948,-144.936,-76.128
1015.284,-101.016,-79.056
949.404,-88.084,-119.56
993.568,-90.036,-154.696
992.836,-17.568,-91.012
908.168,10.492,-67.832
957.212,54.656,-139.568
934.52,162.26,-101.016
977.464,296.948,-26.108
848.632,542.168,79.3
676.368,694.424,135.664
657.336,703.452,48.068
579.256,723.948,10.248
463.6,790.072,63.684
454.328,927.2,87.352
422.608,1043.1,100.04
369.172,1067.256,69.052
262.788,1042.612,72.224
258.152,961.116,42.7
259.616,1002.596,29.28
236.924,1041.88,30.5
216.428,1051.396,27.328
179.34,1055.544,35.38
180.56,1091.656,29.524
148.596,1130.94,31.476
123.952,1161.684,42.456
112.24,1216.584,55.144
149.328,1193.648,18.788
137.372,1154.852,-2.684
115.9,1172.176,-21.96
117.608,1186.816,-30.988
127.856,1167.296,-26.596
158.356,1233.664,0.976
184.464,1320.284,41.724
263.276,1387.872,-15.372
179.34,1340.78,-29.524
55.144,1258.552,-2.196
13.908,1181.448,-25.62
96.624,1130.696,-4.636
257.42,1299.544,-41.968
235.46,1374.94,3.172
121.268,1342.244,52.948
79.056,1253.916,45.872
90.28,1159.488,10.98
167.628,1057.74,-19.032
266.692,1022.36,-85.4
325.74,1081.164,-64.416
228.384,1061.4,0.0
139.324,1026.508,-18.3
157.136,949.404,-56.364
244.732,907.192,-83.936
226.188,958.92,-66.368
236.924,999.668,-38.796
176.168,989.176,3.172
98.576,953.064,-10.98
97.844,881.328,-39.528
196.42,798.368,-111.996
178.12,775.92,-110.532
147.62,818.864,-31.232
109.312,812.764,1.464
50.264,771.04,20.252
31.476,688.568,-14.396
32.208,661.728,-18.788
40.26,649.528,-14.64
-0.244,642.696,-9.76
-45.628,649.528,-14.152
-14.152,648.308,-31.232
-20.984,685.396,1.22
7.076,724.68,22.448
97.356,746.152,-12.688
88.816,759.816,-16.836
52.216,788.364,-17.568
33.672,836.676,-5.612
10.248,862.052,18.056
8.296,844.972,-9.028
25.62,864.98,-17.08
31.232,899.14,-3.172
-1.464,929.884,24.156
-31.964,970.632,39.04
-32.452,947.208,23.424
-40.26,925.248,0.976
-63.44,966.972,59.536
-18.544,1044.076,97.844
-38.552,1049.444,101.748
-67.588,1010.892,40.26
-50.264,951.356,-12.688
7.564,959.408,-28.304
24.644,1015.528,-29.28
-46.116,1009.184,13.908
-44.164,1025.288,27.816
-36.6,1009.184,17.08
-21.96,987.956,-2.44
9.76,979.416,-20.008
13.664,1001.864,-21.228
-6.832,1022.36,-7.076
-10.736,1044.076,14.884
12.444,1081.164,39.772
37.332,1126.548,114.924
70.516,1113.616,107.604
168.848,1031.388,41.48
244.732,1012.112,12.2
295.24,1009.428,20.252
363.072,985.028,38.552
437.492,880.596,-44.896
490.684,794.708,-90.768
552.66,725.412,-112.728
681.004,538.996,-195.932
752.984,383.568,-206.424
877.18,413.092,-133.468
928.664,304.512,-162.748
1120.936,243.512,-127.612
1122.156,286.456,5.856
1077.26,248.148,-31.964
1027.484,186.66,-134.688
978.684,220.088,-79.788
984.052,220.82,-50.508
943.06,229.848,-45.628
938.668,164.7,-96.38
911.828,130.296,-131.272
928.42,130.052,-130.052
977.464,133.224,-37.332
974.048,123.708,-11.224
934.52,111.508,-53.436
872.544,125.904,-41.968
854.0,146.888,5.124
809.348,161.284,17.08
761.28,163.968,33.672
656.848,139.812,18.788
544.12,115.412,5.124
447.984,98.82,-47.58
396.744,81.252,-49.532
330.132,125.172,-26.352
377.468,99.308,-12.444
420.9,109.068,51.484
454.084,44.408,35.136
439.688,31.476,45.628
532.652,-89.06,-2.196
667.584,-199.592,-119.316
656.604,-198.128,-118.584
794.464,-248.148,-44.652
882.792,-246.928,64.904
1020.164,-283.772,77.592
1082.384,-370.392,-18.056
1290.516,-438.224,-36.6
1490.352,-418.948,30.5
1649.684,-412.604,61.488
1814.14,-341.112,181.048
1907.348,-256.932,333.06
1918.572,-326.96,199.836
1817.068,-406.992,-14.396
1747.284,-416.508,-110.532
1614.06,-283.772,40.26
1510.116,-209.84,128.1
1479.616,-248.392,94.428
1370.304,-252.296,68.32
1285.148,-250.1,39.04
1163.148,-222.284,53.68
1106.296,-209.84,47.336
1070.428,-224.724,52.216
1041.148,-246.928,55.144
1016.016,-270.108,24.644
986.98,-288.408,-26.84
952.088,-266.448,-26.352
914.512,-236.192,2.928
934.764,-244.488,-0.244
960.872,-249.124,-5.124
1034.072,-258.64,-6.832
1018.456,-247.66,-15.86
986.736,-210.816,-33.428
950.868,-135.908,-38.064
928.42,-48.8,-40.992
988.2,-37.82,-36.112
973.56,72.224,52.216
955.26,226.432,170.8
994.544,296.948,187.148
952.576,388.692,92.72
841.068,372.1,14.396
738.344,327.448,-57.828
632.936,508.252,41.968
615.612,835.212,236.924
596.824,962.824,212.768
503.616,929.884,152.5
393.328,837.896,45.384
209.596,908.168,108.336
130.784,1079.212,163.236
238.388,1221.22,162.016
243.756,1084.092,65.88
176.656,995.764,27.816
128.588,1006.988,24.156
104.92,1000.4,22.692
88.816,1038.952,32.94
104.92,1084.092,34.648
85.4,1102.88,44.408
54.656,1087.02,36.356
44.652,1046.028,16.104
67.1,1033.584,-13.908
83.204,1079.456,-15.128
85.644,1107.272,-20.252
97.112,1153.388,-30.012
85.4,1165.344,-26.108
71.736,1155.096,-16.348
68.808,1168.76,-29.28
71.98,1168.272,-29.768
129.32,1198.04,-20.74
148.108,1270.752,-0.732
157.868,1255.868,-30.744
134.932,1250.012,-26.84
126.636,1185.352,-23.912
99.308,1144.604,-35.136
118.096,1136.552,-13.664
219.6,1215.852,-28.792
197.884,1203.164,-25.376
131.76,1152.656,3.416
112.728,1103.856,-9.76
91.5,1085.556,-11.956
164.944,1069.696,-33.672
231.312,1088.484,-34.16
227.896,1086.776,-19.032
183.976,1034.804,-34.648
169.092,979.172,-59.292
159.82,948.916,-85.644
131.028,943.792,-70.028
110.532,959.408,-22.448
187.392,952.332,-17.324
140.788,928.42,-3.172
68.808,858.148,-10.98
50.752,794.464,-19.276
28.548,777.628,-10.98
-14.152,765.672,17.568
-15.86,747.372,26.352
7.076,715.164,13.176
80.032,671.244,-49.044
48.556,655.384,-50.996
18.056,711.016,-17.568
7.32,738.832,-21.96
47.092,776.652,-28.304
78.08,805.932,-55.632
51.728,840.092,-45.872
42.7,836.676,-51.972
54.656,842.776,-85.4
37.82,864.492,-79.544
31.476,919.392,-56.12
15.616,956.724,-19.764
16.592,945.012,-31.72
53.192,934.52,-73.932
39.528,973.804,-59.536
-16.348,992.836,-17.812
-33.428,1030.9,8.296
-10.98,1017.968,14.396
25.62,1002.352,-4.148
54.412,1011.624,-25.132
69.052,1044.808,-51.24
30.256,1017.48,-48.8
4.392,991.616,-22.448
32.94,976.732,-33.916
36.356,991.86,-21.716
29.036,996.496,-45.384
11.468,963.312,-64.904
18.3,965.996,-62.708
14.396,1004.792,-43.432
3.172,1013.576,-36.844
3.66,997.716,-52.216
6.832,1006.012,-58.56
13.176,1002.108,-69.54
10.492,1001.864,-59.292
6.344,1010.648,-59.048
-10.492,1013.82,-63.44
-12.932,1010.404,-57.584
-4.88,1006.012,-62.952
-16.592,1004.06,-52.704
-10.492,1011.38,-54.656
-14.884,1006.5,-54.168
-11.224,1017.48,-44.164
28.06,1036.756,-36.844
83.448,1029.192,-76.372
37.088,1013.332,-54.656
59.78,1043.344,-32.94
120.292,1066.28,-34.648
161.528,1062.864,-39.772
192.76,1107.516,10.492
248.392,1115.08,56.364
175.192,1118.74,124.44
134.2,1015.772,96.624
330.132,828.868,10.248
594.14,693.692,-46.604
584.136,569.984,10.248
737.612,332.084,-103.944
891.332,149.328,-200.08
1122.644,38.308,-216.916
1223.416,74.176,-61.732
1136.308,101.992,-14.396
1077.26,115.656,29.28
1050.42,117.364,54.412
1014.552,62.22,-3.172
920.124,51.484,-54.9
908.656,24.888,-75.884
908.9,-24.4,-122.244
899.14,-23.668,-124.928
943.304,-20.74,-99.552
925.98,13.176,2.44
861.32,1.952,-42.944
789.828,25.132,-84.668
758.596,65.636,-18.788
692.472,100.284,49.776
628.056,78.08,50.264
577.304,66.856,46.604
497.028,53.924,-9.028
430.904,69.296,-54.656
495.076,24.644,-74.908
582.916,-1.708,-0.488
707.356,-24.156,57.584
613.66,-33.672,79.3
632.936,-76.86,-7.076
847.656,-179.096,-74.908
1006.5,-199.104,-55.632
1062.376,-200.324,4.392
862.296,-122.976,168.604
1117.52,-204.96,49.532
1358.104,-290.848,45.872
1424.96,-289.384,62.952
1410.076,-277.672,-3.66
1271.24,-205.936,-19.764
1244.888,-190.808,16.104
1432.524,-220.82,25.62
1454.972,-196.176,109.068
1458.388,-194.224,121.024
1368.352,-184.22,90.28
1235.128,-156.16,104.432
1325.652,-215.696,42.944
1376.892,-242.292,8.296
1305.888,-191.784,56.608
1246.84,-138.592,133.956
1242.936,-151.28,161.528
1275.144,-162.26,102.968
1227.32,-221.552,9.028
1166.076,-215.208,-20.984
1092.632,-183.244,-1.952
1074.576,-186.66,14.396
1071.404,-179.584,25.62
1087.508,-183.732,39.04
1078.968,-174.704,62.708
1065.06,-171.776,68.808
997.96,-145.912,69.052
990.64,-162.748,24.888
990.64,-166.408,18.056
1046.272,-174.216,46.116
1045.296,-164.7,76.86
1030.656,-175.436,55.144
1023.58,-186.904,15.372
985.516,-160.552,1.464
995.52,-159.088,7.808
1011.38,-154.452,34.892
1023.58,-149.816,75.884
1050.908,-167.872,49.532
1010.648,-148.84,33.428
964.044,-115.656,18.544
947.94,-115.9,5.612
991.86,-129.808,11.224
1026.02,-114.436,-8.784
1028.948,-72.224,-21.716
988.932,-47.092,-29.768
914.756,43.188,-42.212
888.404,62.708,-39.528
917.928,196.176,-33.184
883.28,263.764,74.664
806.664,442.128,153.72
665.388,659.776,183.732
524.844,864.98,250.832
505.812,988.688,221.064
469.944,1035.048,177.876
447.008,1007.232,142.008
338.184,989.42,105.896
296.704,1092.632,128.588
311.1,1013.576,58.316
286.7,1022.36,43.432
228.872,999.668,33.672
177.876,1001.62,41.48
142.008,1009.184,45.384
139.568,1057.984,48.556
153.232,1118.252,42.456
137.616,1095.56,34.892
119.804,1071.648,40.504
121.268,1099.464,31.232
129.076,1104.344,28.06
141.764,1064.816,28.304
173.972,1070.184,13.908
183.244,1138.992,29.28
144.204,1139.236,49.288
172.02,1149.24,44.408
148.84,1184.132,46.848
72.224,1220.976,78.568
38.552,1215.12,86.62
61.732,1200.968,70.76
117.12,1168.76,13.176
172.508,1187.304,-3.172
184.22,1204.384,-3.66
159.088,1152.412,22.204
144.204,1074.576,25.62
109.068,1058.228,42.944
131.76,1070.916,22.936
174.948,1058.96,27.084
196.42,1033.584,30.012
184.464,993.324,27.816
138.104,937.204,21.96
103.212,855.708,0.488
133.468,806.42,-32.208
212.524,876.204,-12.688
158.112,920.124,11.712
93.452,850.828,7.32
24.888,803.492,-6.1
-7.076,833.016,-1.464
47.336,904.264,-3.904
56.12,930.86,24.888
21.228,935.008,48.312
-12.688,933.544,47.58
-19.032,933.544,42.944
31.964,921.344,8.296
37.82,862.052,-21.472
40.016,851.56,-11.224
45.384,905.24,9.028
2.684,948.916,30.5
4.636,893.772,22.692
46.604,864.98,-0.244
73.2,855.952,-13.176
100.528,879.132,-28.792
107.36,893.772,-36.112
77.348,910.852,3.172
81.74,934.52,7.32
56.364,925.004,13.908
34.648,924.516,18.056
9.516,927.688,27.328
10.004,926.956,22.204
26.352,947.94,21.716
