acc_x[mg],acc_y[mg],acc_z[mg]
383.812,916.464,-0.244
395.036,930.616,-5.368
414.312,945.744,-6.1
407.724,942.572,-7.076
402.844,945.988,-8.54
397.232,961.116,-17.08
400.404,971.364,-27.084
388.692,982.344,-31.964
363.804,951.356,-25.864
344.04,928.908,-16.348
335.5,925.248,-6.1
341.844,927.932,3.66
356.24,923.052,10.736
367.708,928.664,23.424
354.776,928.176,37.576
339.648,934.764,45.628
328.18,941.352,67.588
310.124,943.304,85.4
313.54,932.568,96.136
335.256,912.56,93.452
367.22,890.6,97.844
404.064,876.204,114.68
442.372,875.228,121.024
454.816,889.38,110.532
434.076,875.228,92.476
387.472,845.46,80.032
356.24,861.076,66.856
329.888,879.376,51.728
300.852,879.132,40.016
283.772,919.636,22.936
315.98,1055.056,2.196
252.052,1084.092,-18.544
189.344,1124.596,-23.668
207.4,1249.036,-16.104
222.528,1305.644,-16.592
222.284,1367.376,37.088
203.496,1301.984,57.34
202.52,1187.06,159.332
229.604,1161.928,239.608
263.032,1106.784,270.108
297.436,987.468,352.58
299.388,845.46,431.636
277.916,728.584,435.784
270.108,640.256,425.292
293.776,714.92,349.652
342.576,822.28,213.988
374.296,837.652,210.572
365.512,856.196,213.256
304.512,833.992,224.236
156.404,771.04,167.628
13.42,748.104,162.016
-83.936,739.564,173.484
-78.324,800.076,209.352
-159.088,811.544,165.92
-251.808,791.78,153.72
-274.988,752.496,187.88
-233.752,875.716,105.164
-177.632,925.004,63.44
-245.708,967.216,126.88
-282.552,998.204,62.952
-247.66,1070.184,26.108
-98.088,1239.764,-69.296
-52.46,1237.08,-59.048
-67.1,1131.428,30.5
-64.66,1092.876,97.844
-37.82,1051.396,189.588
62.952,1055.3,227.896
123.464,1054.324,223.992
122.732,1064.084,150.548
141.276,1068.964,115.9
145.18,1029.68,80.032
99.064,1004.548,6.344
116.632,990.64,-69.784
14.64,965.02,-96.136
-13.176,947.94,-99.552
-27.572,914.268,-95.892
30.744,901.336,-57.828
20.74,861.32,-19.276
67.588,834.48,7.564
39.04,791.292,69.296
2.684,799.588,99.552
29.524,874.984,88.084
80.764,940.864,51.728
114.68,1008.94,38.796
96.868,1031.388,40.26
84.668,1043.344,35.136
89.792,1057.008,39.04
73.932,1065.548,33.184
93.696,1056.032,65.636
112.728,1039.196,98.332
79.3,1027.484,104.92
66.612,1012.844,95.404
76.128,1007.476,93.452
60.512,997.228,74.42
48.312,1013.82,60.512
37.332,995.52,52.948
67.1,1001.62,33.184
60.512,995.52,27.084
61.488,983.564,33.184
73.444,977.464,31.964
94.428,983.076,26.108
93.94,982.344,29.036
92.476,984.54,32.452
70.76,970.632,45.872
45.628,966.972,40.992
72.956,972.584,22.204
71.248,974.048,27.572
65.636,984.296,19.032
76.372,989.664,16.836
93.208,1002.596,10.492
94.428,1003.572,11.468
89.548,1019.676,18.3
83.448,1022.848,24.4
77.348,1010.16,37.088
85.888,1003.572,32.208
93.208,1005.768,25.864
81.496,995.032,29.036
66.124,982.1,55.632
45.872,987.712,56.852
61.0,990.884,51.484
63.196,996.74,52.948
66.124,1000.644,54.656
77.836,1001.864,56.12
88.328,998.204,55.632
94.184,996.984,54.412
101.748,1005.036,50.02
99.796,1005.768,50.752
90.524,999.424,61.0
103.212,995.52,64.904
103.212,998.204,65.88
102.48,1000.888,71.248
106.384,1001.62,73.688
106.872,1009.916,74.908
85.156,1010.892,67.1
77.592,1008.94,62.708
67.1,989.176,59.536
55.144,980.148,53.436
57.34,958.92,62.22
34.892,944.768,70.76
43.432,949.404,57.828
65.148,964.288,42.456
62.952,974.048,24.644
65.88,980.636,21.472
74.176,985.272,18.3
60.512,972.096,25.62
46.116,968.192,33.428
46.848,966.728,30.988
61.0,966.972,33.428
75.64,967.948,33.428
77.836,972.828,36.844
87.84,978.928,34.404
82.716,982.1,32.696
69.052,985.028,36.844
74.176,994.056,34.892
77.348,999.668,28.548
59.536,1007.476,42.212
54.9,1011.868,52.948
66.612,991.86,37.088
80.276,1015.284,34.648
98.82,1011.624,39.528
105.652,1016.748,41.968
101.26,1025.776,31.72
107.116,1021.384,35.868
125.416,1011.38,33.672
123.708,1003.816,37.82
102.48,995.032,41.724
104.92,994.3,37.82
100.284,985.76,32.208
86.62,981.124,41.968
79.788,978.196,28.548
77.592,977.464,22.692
72.468,984.784,22.204
65.392,992.348,13.664
51.972,985.76,26.108
49.532,983.32,28.304
51.728,981.612,24.156
61.732,981.856,29.768
71.248,985.516,44.164
68.076,978.44,49.776
83.692,973.56,41.968
83.448,966.484,54.168
77.104,971.12,61.0
86.376,973.072,48.8
98.088,991.128,32.452
92.964,997.716,33.916
111.508,1012.6,22.936
100.528,1006.5,24.644
78.324,992.836,37.332
89.792,988.2,38.064
84.18,982.344,47.336
92.964,988.932,40.748
97.6,986.98,40.26
94.428,986.492,40.504
95.404,985.76,37.088
98.576,992.592,35.624
98.088,988.932,35.38
111.996,994.3,28.06
100.528,988.932,34.648
106.872,987.956,40.992
109.312,985.516,42.7
103.944,985.516,46.848
100.772,986.004,48.8
112.972,1003.572,28.06
104.676,1000.888,27.084
114.68,1013.576,21.96
118.828,1008.208,19.764
110.044,1005.524,25.132
111.02,1007.476,19.52
129.076,1006.988,6.832
143.472,1001.62,16.104
122.244,996.252,32.696
126.636,993.324,47.824
117.608,982.344,55.144
80.764,984.296,44.652
86.864,981.856,37.82
115.168,1022.848,14.884
30.5,1045.54,-29.768
-182.024,1056.52,-4.636
-192.272,1087.02,29.524
19.52,889.868,-18.788
168.604,714.92,-68.564
482.388,489.952,-116.632
828.136,284.26,27.816
1198.284,15.86,244.976
1180.228,-219.844,470.92
1086.044,-297.192,691.74
1071.892,-362.096,564.372
1535.736,-355.02,274.988
1395.192,-387.228,266.692
1169.004,-384.056,422.852
1004.548,-327.936,424.072
829.6,-178.12,323.3
696.62,-55.388,252.052
605.12,-11.956,220.088
513.62,2.196,233.996
474.336,41.968,203.496
477.752,115.9,105.408
474.092,139.568,43.432
439.2,187.88,-14.152
417.484,167.384,8.54
397.964,143.96,39.284
433.832,49.288,67.344
528.016,-42.944,81.252
589.26,-135.664,120.536
597.312,-188.124,153.72
658.556,-226.432,174.46
697.108,-246.928,110.044
838.384,-289.14,81.496
882.548,-373.32,92.964
918.904,-469.7,100.284
1000.4,-548.512,104.92
1057.984,-623.664,80.276
1077.016,-676.124,26.84
1059.204,-712.968,-30.256
1098.732,-709.552,-91.5
1199.016,-668.56,-193.004
1335.168,-664.412,-315.736
1504.504,-666.12,-395.768
1606.74,-692.716,-406.016
1497.184,-730.536,-378.444
1432.036,-706.868,-366.0
1401.048,-692.96,-326.716
1419.348,-725.9,-292.556
1497.428,-787.144,-266.936
1430.816,-848.876,-212.28
1321.26,-936.96,-61.244
1174.128,-1018.456,133.224
1213.412,-1081.408,253.028
1223.172,-1168.272,388.448
1264.652,-1192.184,516.304
1294.664,-1186.084,546.316
1361.764,-1193.648,574.62
1385.188,-1139.48,529.48
1360.056,-1043.832,469.944
1250.012,-992.104,435.784
1229.272,-955.748,435.052
1168.516,-930.128,437.004
1099.22,-900.116,479.46
1032.364,-853.512,456.524
974.048,-782.02,406.992
885.232,-710.528,377.712
767.38,-630.008,339.892
624.152,-579.744,315.248
451.4,-476.044,254.492
308.172,-325.984,143.472
122.732,-222.772,118.828
-13.908,-149.084,146.4
-72.712,-116.632,148.352
6.344,-76.372,182.268
432.612,-109.068,319.64
431.148,-131.516,324.276
337.696,-13.42,232.532
553.636,406.992,273.524
1099.22,445.3,-260.592
457.012,-875.96,-240.584
-247.172,715.896,-421.144
-43.432,1677.256,-812.276
-855.22,559.492,-132.736
-591.456,655.384,223.992
-191.296,1038.708,250.1
-300.852,1024.312,178.852
-264.496,864.98,299.144
-162.26,975.268,332.816
-114.192,1084.092,338.916
-218.624,973.072,289.384
-324.032,893.284,227.164
-285.968,991.128,183.244
-278.648,1063.84,139.08
-252.296,1092.632,106.14
-239.12,1043.344,112.972
-270.108,992.836,114.192
-252.296,989.42,118.34
-209.108,1004.304,133.468
-153.476,958.432,160.064
-138.592,965.02,173.24
-120.292,1009.672,163.236
-122.488,1029.436,166.408
-151.524,1000.156,157.136
-142.984,948.428,182.268
-119.316,935.252,200.568
-103.212,959.652,196.908
-109.312,935.252,213.256
-104.432,918.66,230.824
-115.9,918.904,234.484
-112.972,945.988,234.24
-92.72,960.14,249.612
-53.192,981.124,284.26
-67.588,946.476,345.992
-76.616,921.588,377.956
-64.416,897.188,398.94
-74.42,896.456,411.14
-91.5,922.564,386.252
-106.14,961.604,357.216
-109.8,991.616,320.128
-99.552,987.956,310.612
-79.056,967.46,315.736
-59.048,967.948,307.44
-40.992,976.488,309.88
-20.008,968.192,322.324
-38.064,949.892,331.596
-49.288,930.128,328.18
-46.36,938.912,306.952
-46.36,945.988,294.02
-38.796,969.656,282.552
-41.724,971.608,271.816
-23.668,966.24,264.252
-57.34,943.304,259.86
-60.024,928.176,250.832
-39.772,920.612,247.416
-49.288,930.128,232.288
-39.772,962.336,219.844
-29.768,946.232,219.844
-28.548,938.668,220.576
-42.7,939.888,189.344
-60.024,933.544,172.264
-79.544,935.984,158.844
-79.056,938.668,162.748
-62.22,964.044,155.428
-50.02,953.796,161.04
-45.872,920.124,179.34
-45.628,913.536,189.832
-51.484,928.176,183.488
-58.072,930.616,174.948
-64.416,910.12,180.804
-78.324,921.832,171.044
-79.544,953.552,162.016
-61.732,980.392,155.672
-51.728,1010.404,143.96
-34.16,999.18,152.744
-16.104,994.056,162.992
-31.476,991.372,154.208
-39.528,985.76,141.276
-45.628,973.072,145.912
-48.556,982.588,144.692
-40.016,1000.888,133.712
-22.448,1022.116,122.488
-13.176,1031.632,112.484
-35.624,1023.58,105.408
-33.428,998.692,113.704
-27.328,972.34,138.836
-10.736,979.904,161.04
-1.464,1018.7,157.136
4.148,1046.516,152.012
-8.052,1010.404,161.528
-34.892,938.668,174.46
-54.9,905.972,191.54
-60.756,920.368,208.132
-28.548,981.856,203.252
-10.248,1024.556,189.344
-18.056,1029.68,179.584
-10.004,1036.268,172.996
-22.204,1014.064,176.656
-21.716,989.908,186.172
7.32,976.0,200.812
1.952,968.924,191.296
1.952,985.516,182.512
11.712,995.276,175.924
5.368,999.912,169.092
5.124,1023.092,145.668
-5.368,1022.848,128.588
-16.836,1005.28,130.784
-10.736,974.292,142.252
-5.368,961.604,144.204
23.18,945.012,160.064
16.104,923.54,175.68
-14.64,929.64,167.14
-18.788,963.8,155.916
-24.644,997.228,141.52
-32.452,1003.816,140.056
-9.516,1023.58,144.448
5.368,1022.604,154.94
9.516,989.664,169.092
22.692,969.9,181.536
9.76,960.872,176.9
-12.2,974.292,155.428
-1.952,1006.744,137.128
-17.324,982.1,137.128
-22.692,955.992,149.328
-48.312,951.356,134.688
-44.408,985.028,110.532
-34.892,1005.036,95.892
-12.932,1033.096,102.724
15.128,1010.892,124.44
41.236,1045.296,129.076
202.276,1181.448,158.112
225.212,1042.124,71.98
231.556,961.848,129.076
301.584,905.484,86.376
371.124,787.876,-46.36
299.388,738.588,34.404
262.3,670.024,383.08
477.996,489.22,287.676
840.58,85.888,315.004
1034.072,-353.556,581.696
1028.216,-528.504,536.068
1220.244,-508.74,367.22
1423.984,-335.744,43.188
1318.088,-227.164,30.744
1123.132,-147.376,70.272
635.864,-47.58,76.372
240.34,46.604,155.672
94.916,69.54,224.968
246.196,97.112,140.788
283.04,149.328,-56.852
556.076,200.568,-80.276
603.656,97.356,-48.068
510.936,45.872,-101.016
362.828,-27.572,-114.436
324.032,-102.236,-52.216
398.94,-203.74,16.104
489.952,-295.972,-64.416
706.868,-378.932,-135.176
925.004,-458.232,-212.28
1064.816,-542.168,-202.276
1176.568,-620.004,-207.644
1321.748,-696.62,-237.9
1356.396,-705.892,-338.184
1362.252,-729.804,-384.788
1391.776,-763.476,-450.18
1496.696,-735.904,-558.76
1556.72,-604.876,-656.848
1542.324,-580.72,-677.344
1578.68,-640.012,-634.888
1606.252,-701.744,-545.584
1547.448,-779.824,-466.772
1520.852,-864.004,-369.172
1423.252,-920.368,-278.892
1325.652,-960.872,-167.872
1247.084,-990.64,-53.924
1185.596,-1013.82,4.148
1219.512,-1030.168,83.448
1193.16,-1091.9,223.992
1173.64,-1139.968,406.26
1165.1,-1168.028,479.216
1285.636,-1133.868,449.936
1388.848,-1078.48,366.244
1379.576,-1030.168,330.376
1249.768,-949.892,250.1
1159.732,-848.876,213.988
1081.164,-803.248,178.852
1038.464,-761.768,175.436
954.04,-731.512,173.972
903.044,-694.18,158.844
864.736,-590.236,132.248
711.504,-502.884,103.7
585.112,-415.776,86.132
472.628,-359.656,91.012
305.976,-302.804,110.288
157.38,-244.976,174.46
142.984,-179.34,202.764
332.572,-142.496,205.204
213.256,-114.68,71.004
228.384,-115.412,125.416
402.6,-52.948,212.036
625.616,164.212,216.428
744.688,557.052,89.548
642.94,74.908,-113.704
-289.628,-259.128,128.1
173.484,1345.66,-126.148
224.48,1286.368,-758.596
-264.74,1108.98,-267.18
-336.476,771.284,-76.128
-444.812,706.624,11.224
-482.144,915.732,-14.396
-485.56,879.62,27.816
-412.36,894.26,84.424
-354.776,846.436,119.316
-374.296,744.2,137.128
-472.628,822.036,62.464
-487.268,905.484,18.056
-424.56,941.352,13.908
-373.32,928.176,31.964
-364.536,979.904,15.128
-378.444,1008.208,-10.492
-338.672,986.736,3.416
-347.456,969.412,5.856
-333.792,970.388,8.784
-316.712,978.928,12.932
-294.508,970.632,29.28
-264.496,948.916,42.212
-266.204,940.132,53.192
-256.2,957.456,55.876
-246.684,971.12,55.632
-260.104,962.092,55.144
-287.676,947.696,49.532
-282.308,948.184,46.116
-284.504,943.792,41.48
-284.748,945.012,43.432
-263.032,951.112,57.34
-265.716,971.364,48.556
-272.304,988.444,43.92
-272.792,962.58,65.148
-246.196,939.644,93.452
-235.46,940.376,128.588
-201.3,947.696,172.02
-164.212,941.84,221.552
-176.168,938.668,238.388
-172.02,968.924,248.636
-167.872,982.588,252.784
-181.292,968.68,247.904
-194.956,964.288,232.044
-197.884,956.236,232.532
-203.984,930.128,235.704
-210.328,929.64,223.016
-211.304,960.14,198.372
-202.032,966.24,183.244
-197.64,957.212,177.632
-183.732,956.236,172.508
-167.872,967.948,154.208
-152.5,995.276,122.0
-161.04,981.612,96.868
-153.476,948.428,96.136
-163.48,904.02,93.208
-154.208,911.828,73.688
-152.256,948.916,46.604
-142.984,973.316,23.668
-146.4,1008.94,-8.784
-153.232,992.104,-30.5
-163.236,997.228,-33.184
-143.228,1030.168,-43.188
-108.092,1020.652,-35.624
-120.292,1015.284,-46.36
-144.204,1008.452,-60.268
-136.152,1025.044,-72.224
-111.02,1018.212,-74.42
-106.872,990.152,-61.0
-110.532,995.764,-67.588
-98.576,986.248,-53.924
-90.768,951.112,-42.456
-102.236,936.96,-30.5
-116.144,938.912,-42.7
-118.828,939.644,-49.044
-133.956,957.456,-57.34
-145.668,975.268,-78.812
-144.692,1012.6,-102.48
-149.816,1011.624,-117.852
-160.308,1009.916,-127.856
-153.476,1006.5,-130.784
-129.076,983.32,-115.9
-141.032,953.552,-115.412
-160.796,960.628,-132.004
-161.528,972.34,-143.228
-162.992,972.828,-136.64
-176.412,964.776,-129.32
-168.848,952.088,-96.136
-140.544,972.828,-81.252
-144.448,979.416,-67.344
-133.468,993.324,-50.752
-102.724,997.228,-11.712
-104.432,975.512,16.592
-116.876,960.384,25.62
-112.728,976.732,12.2
-134.932,991.128,-6.832
-153.476,992.348,-15.372
-151.28,973.316,-15.372
-152.5,1004.304,-25.864
-148.108,1015.284,-30.5
-149.084,1009.428,-34.16
-145.424,1024.068,-39.284
-150.792,1012.6,-28.792
-140.544,965.508,-5.124
-121.268,988.688,-12.932
-111.752,1011.38,-16.348
-107.604,999.424,0.0
-95.16,988.444,12.932
-86.376,986.004,14.396
-80.52,962.58,17.568
150.792,1276.852,225.212
72.956,1173.152,-34.648
65.148,1252.94,-20.74
82.96,936.472,-110.776
305.488,719.8,-123.708
514.84,827.16,-51.484
612.44,822.524,289.384
873.276,468.724,171.532
1220.976,31.964,240.34
953.308,-224.236,327.692
757.376,-327.936,391.62
1028.704,-398.94,316.224
1012.112,-239.608,194.468
738.588,-56.608,153.964
414.312,49.532,151.28
284.504,74.42,131.76
408.944,132.248,4.636
409.432,150.548,-31.232
383.568,107.116,-33.916
295.484,43.676,16.836
260.104,-24.644,6.588
314.028,-56.364,-11.712
373.076,-97.6,-109.8
447.984,-130.052,-202.032
504.348,-270.108,-202.032
477.264,-369.66,-248.392
446.032,-420.656,-324.764
533.628,-508.008,-394.06
687.836,-579.256,-494.344
686.616,-673.44,-514.108
796.172,-891.088,-518.744
1416.42,-1014.796,-671.244
1663.104,-940.864,-808.372
1669.692,-843.752,-816.668
1459.12,-842.288,-719.8
1408.612,-872.788,-605.12
1514.264,-926.224,-596.336
1592.344,-803.98,-663.436
1635.776,-703.452,-676.124
1560.624,-758.596,-580.72
1576.972,-824.964,-450.424
1617.964,-925.736,-408.456
1703.852,-976.732,-408.7
1802.916,-1011.868,-427.976
1758.996,-1108.492,-373.808
1615.036,-1187.06,-306.464
1473.76,-1245.864,-295.728
1312.476,-1209.264,-271.572
1229.516,-1165.588,-243.268
1145.092,-1176.812,-174.46
1125.328,-1157.048,-102.724
1031.876,-1134.844,-71.98
919.392,-1041.392,-63.44
991.616,-955.016,-52.46
947.94,-932.812,-38.796
893.528,-855.464,-5.124
817.888,-812.032,28.792
701.988,-734.928,19.032
627.568,-602.68,-9.272
530.212,-470.676,-8.784
413.824,-316.468,-18.056
157.136,-211.548,-3.416
110.776,-83.448,12.2
219.112,-45.384,57.828
366.732,-38.552,32.452
25.132,6.1,-31.72
65.88,164.212,-9.028
431.148,228.628,113.704
600.484,212.768,267.18
501.176,334.524,191.784
229.116,137.86,120.292
109.312,-56.608,-24.888
-139.324,946.232,13.42
7.564,1581.608,-247.416
-418.46,1250.256,-116.876
-714.92,721.508,0.488
-566.568,798.612,41.48
-541.192,889.136,87.108
-531.188,904.508,87.352
-479.46,846.436,115.9
-420.412,817.644,218.38
-360.144,875.96,184.22
-478.728,898.896,128.588
-486.536,847.412,71.248
-444.324,899.384,77.592
-419.68,974.048,64.172
-431.392,939.156,52.704
-410.408,936.96,60.268
-372.588,899.628,78.812
-335.988,875.472,101.26
-330.132,907.924,97.844
-350.14,944.036,72.224
-341.112,932.568,81.008
-316.468,893.04,88.084
-302.56,912.316,76.86
-323.056,973.072,46.604
-345.016,1020.408,34.404
-366.0,970.632,38.308
-353.556,946.964,56.608
-333.304,925.492,83.448
-312.808,920.612,98.088
-323.3,915.732,93.208
-304.512,922.32,100.772
-242.78,977.464,115.9
-276.696,964.044,121.268
-290.848,944.524,114.436
-298.168,952.088,104.92
-283.772,929.64,113.216
-279.38,933.3,123.952
-249.856,947.452,124.196
-284.26,943.304,111.996
-298.9,929.884,114.924
-279.868,925.248,120.292
-263.764,920.124,122.0
-271.084,900.604,123.464
-256.688,934.032,129.564
-262.056,955.016,127.368
-243.268,958.432,149.572
-208.132,948.916,197.884
-198.616,933.3,247.904
-199.592,902.068,302.804
-193.248,878.644,341.844
-222.528,883.768,334.28
-239.608,933.3,305.732
-244.976,971.608,274.256
-247.904,1027.972,247.904
-268.644,1009.428,227.896
-247.66,984.052,220.82
-206.912,978.684,232.288
-198.372,970.876,227.652
-214.232,977.464,200.812
-238.632,967.704,168.36
-256.688,970.144,142.496
-241.316,970.144,125.172
-226.676,977.464,105.652
-260.592,950.38,78.812
-264.74,955.26,64.66
-255.712,965.02,49.532
-245.708,953.552,44.652
-210.572,935.496,50.996
-217.648,908.9,46.116
-212.768,944.768,31.232
-206.668,952.576,28.792
-216.672,949.404,16.348
-225.7,979.66,-1.708
-224.48,987.712,-4.148
-230.092,974.78,1.22
-226.432,958.432,8.784
-218.624,956.968,21.472
-226.676,967.216,18.544
-233.508,945.012,8.54
-241.56,926.956,2.196
-225.456,922.808,4.636
-231.312,921.1,-15.616
-251.32,940.376,-54.412
-267.18,968.436,-99.552
-291.58,970.144,-113.948
-305.732,939.888,-122.244
-336.232,931.348,-130.052
-346.968,938.912,-127.856
-332.084,941.108,-104.188
-313.54,953.308,-72.224
-297.192,954.772,-53.924
-299.632,938.668,-37.576
-294.996,923.296,-12.932
-272.06,956.48,12.444
-258.152,937.692,48.068
-236.68,926.956,71.248
-231.312,954.528,74.42
-257.908,950.136,65.88
-256.688,945.5,64.416
-241.316,952.332,64.416
-225.212,955.016,69.784
-233.996,916.708,76.128
-242.78,938.424,63.684
-216.672,1011.136,56.12
-230.58,990.884,61.244
-239.364,955.504,75.64
-248.88,948.428,71.98
-239.608,954.528,71.004
-227.408,957.7,76.372
-232.288,960.14,69.54
-225.7,984.54,64.904
-196.908,1027.24,50.996
-109.8,1015.284,40.748
-91.744,1030.9,104.676
-71.736,1370.304,261.812
69.54,1067.5,-85.156
76.128,642.696,-92.72
338.428,808.86,-169.336
683.2,725.9,59.536
901.824,537.044,172.508
963.068,311.588,146.4
981.368,160.796,228.872
1044.808,68.32,215.208
827.648,-30.744,191.784
1096.536,-59.048,223.016
872.788,-28.304,189.588
711.016,10.736,145.424
455.548,29.28,125.416
274.5,102.48,110.776
269.376,69.784,91.988
298.656,53.436,71.98
333.792,24.156,61.244
256.688,-46.604,87.352
165.676,-91.012,72.712
365.268,-51.24,-44.896
520.94,-39.284,-139.568
535.58,-70.76,-151.768
553.636,-167.384,-119.072
691.008,-233.264,-162.26
859.612,-396.256,-157.38
1003.328,-600.728,-134.2
1069.452,-775.676,-172.264
1071.648,-793.976,-264.008
1227.564,-781.532,-400.892
1369.084,-699.792,-590.968
1355.42,-669.048,-649.772
1365.18,-782.02,-620.248
1501.088,-880.352,-607.316
1667.496,-887.184,-602.192
1610.888,-792.756,-582.916
1385.676,-698.084,-543.876
1636.508,-651.48,-580.476
1817.556,-742.004,-593.164
1803.892,-791.536,-541.436
1632.604,-823.012,-496.052
1441.796,-863.028,-422.364
1195.112,-940.132,-292.556
1065.792,-947.696,-165.676
1164.612,-997.228,-143.716
1245.132,-1056.276,-139.568
1197.552,-1058.716,-123.952
1140.212,-1009.672,-106.384
1062.62,-965.508,-75.152
1031.632,-958.188,-47.824
1069.452,-925.736,-52.216
1075.308,-917.44,-53.192
1006.988,-923.54,2.684
930.616,-867.908,40.748
938.912,-768.844,15.128
917.44,-731.512,14.64
888.16,-740.296,58.316
938.912,-687.104,44.652
827.648,-650.748,26.352
783.24,-564.86,37.332
747.616,-519.72,40.26
622.932,-479.216,53.924
557.296,-365.024,37.088
555.588,-184.22,-24.644
431.148,-119.56,-44.652
242.292,-104.188,2.196
108.58,-93.94,54.656
97.112,-0.244,80.276
171.532,124.196,-10.248
286.212,288.652,-65.392
360.632,448.472,-79.788
657.58,491.904,-40.26
1127.28,595.848,36.6
961.36,848.388,-37.82
880.84,911.828,-274.256
448.716,809.592,-33.672
509.472,663.436,-37.82
392.108,805.932,43.432
3.66,952.576,238.876
-138.592,928.176,269.62
-250.1,740.052,300.364
-401.624,471.408,236.924
-448.472,733.952,247.904
-363.804,858.148,236.192
-399.916,840.58,204.96
-417.24,913.78,195.932
-456.28,1012.356,190.32
-441.396,993.08,111.264
-402.844,961.36,93.452
-361.852,1012.844,110.776
-361.364,956.968,81.74
-386.984,905.484,80.52
-399.184,910.12,74.664
-357.216,897.92,102.968
-305.488,929.64,113.216
-316.224,930.86,99.308
-319.64,1001.132,84.912
-298.168,994.3,94.184
-297.436,909.388,111.752
-299.876,917.928,119.56
-308.904,939.644,104.676
-313.052,962.824,104.188
-294.02,928.908,113.46
-267.912,899.628,130.784
-253.028,957.456,132.98
-282.064,943.304,100.284
-277.428,951.112,105.896
-258.884,949.892,109.8
-266.204,911.828,109.8
-294.508,918.66,95.404
-299.388,959.408,108.58
-264.252,962.824,109.8
-248.88,914.756,120.292
-249.368,924.76,118.096
-253.272,916.22,115.412
-223.992,984.54,135.664
-215.94,965.264,137.372
-251.32,887.184,149.816
-238.144,902.8,166.896
-206.912,949.16,195.2
-221.064,997.96,211.304
-230.336,975.512,237.168
-210.572,971.364,266.204
-186.904,979.904,284.26
-225.944,980.148,276.452
-228.872,992.592,262.056
-229.36,976.244,246.44
-234.24,1005.28,208.132
-231.068,1009.916,186.904
-221.308,976.976,173.24
-232.532,939.156,167.628
-243.024,916.952,149.572
-250.832,933.3,136.64
-258.396,942.328,134.688
-229.848,921.588,136.396
-238.876,899.628,130.54
-231.556,938.424,121.512
-238.632,943.792,117.12
-208.864,961.36,124.684
-179.584,965.996,147.132
-186.172,991.372,138.836
-200.08,1015.284,128.832
-194.468,949.892,144.936
-184.708,944.768,140.3
-173.972,964.044,123.952
-196.664,967.46,109.8
-185.928,951.356,108.336
-169.092,963.8,88.084
-196.176,927.444,55.144
-194.224,943.06,31.476
-167.384,954.04,9.028
-157.136,932.324,-15.372
-171.288,901.58,-40.504
-187.636,948.916,-76.128
-198.128,952.82,-109.8
-236.436,914.512,-134.444
-269.132,899.628,-131.272
-254.98,916.708,-103.456
-285.48,919.636,-84.424
-307.196,926.712,-75.152
-307.44,965.02,-69.052
-329.4,983.564,-71.248
-350.872,1012.356,-78.568
-360.632,997.472,-82.716
-336.964,965.264,-54.412
-323.788,948.184,-23.424
-315.98,935.984,7.564
-287.92,934.276,24.156
-262.056,972.096,25.132
-236.192,991.86,38.308
-210.328,973.072,58.56
-207.4,957.944,69.052
-224.968,965.02,78.08
-204.96,977.22,85.644
-193.248,960.14,94.916
-198.616,941.84,97.844
-193.004,937.204,108.336
-199.836,917.928,111.752
-225.212,941.84,85.888
-232.532,981.368,74.176
-234.972,991.616,62.22
-246.44,990.152,49.776
-235.46,980.392,48.068
-216.672,982.344,51.728
-189.832,976.244,59.292
-174.704,973.804,65.392
-178.12,975.024,64.66
-163.968,972.34,68.808
-144.936,988.932,92.72
-82.228,1055.788,69.784
-166.408,973.072,-44.896
-7.564,1040.416,-37.332
201.788,1135.088,-90.28
290.36,1209.264,-179.584
152.988,1150.46,-116.388
9.028,996.74,-50.508
94.916,920.612,62.952
348.676,744.688,134.444
685.64,552.172,280.356
808.372,298.168,180.072
740.54,-25.62,264.496
824.72,-159.332,430.66
836.432,-242.048,348.676
883.036,-176.412,240.34
843.264,-106.384,151.28
515.572,-124.928,211.06
366.244,-107.604,254.736
405.04,-67.832,236.924
451.4,12.2,115.9
383.812,46.848,-30.256
378.444,18.544,-9.516
269.376,-23.668,29.036
237.412,-32.452,-16.348
332.328,-68.076,-119.316
419.192,-169.336,-201.3
546.804,-318.908,-270.84
703.452,-402.112,-263.764
830.82,-546.56,-263.764
959.164,-649.284,-298.168
1153.144,-746.396,-338.672
1275.144,-768.112,-442.372
1347.612,-718.336,-581.452
1508.896,-664.168,-696.864
1470.344,-727.12,-769.088
1370.792,-701.5,-750.788
1446.188,-675.392,-748.104
1451.068,-728.584,-711.26
1566.48,-622.688,-711.504
1636.508,-590.968,-697.84
1626.748,-638.304,-612.684
1623.576,-728.096,-547.292
1627.968,-800.564,-444.324
1611.132,-903.776,-338.672
1574.044,-1049.688,-224.968
1526.952,-1134.356,-112.972
1510.116,-1159.488,-31.964
1495.72,-1178.032,-1.22
1489.864,-1109.956,0.488
1451.068,-1041.148,-25.62
1352.004,-977.464,-74.176
1215.364,-924.76,-76.616
1073.6,-867.908,-50.996
1053.836,-803.98,-17.324
1052.128,-751.52,-20.496
988.688,-730.536,8.296
1009.184,-641.232,2.196
941.352,-569.984,17.08
797.88,-518.012,75.64
678.808,-495.32,100.772
591.212,-429.928,93.94
520.94,-347.7,106.14
371.368,-258.884,104.188
265.96,-160.064,117.608
147.132,-61.488,113.948
116.632,55.144,69.052
143.228,164.212,60.268
335.5,269.132,81.008
548.024,303.292,221.796
484.096,213.256,222.528
452.62,183.0,98.088
452.376,341.356,51.972
539.484,482.632,95.16
381.616,449.204,90.524
21.716,606.828,-244.488
-386.984,986.492,-124.928
-466.528,1277.34,55.388
-504.348,989.176,101.504
-401.868,870.592,228.14
-368.928,795.44,265.716
-449.936,715.652,220.82
-461.16,818.864,192.76
-454.572,949.648,212.768
-435.54,958.188,166.164
-442.616,987.956,154.696
-490.44,958.676,92.476
-507.032,930.86,63.928
-459.696,904.996,89.06
-398.94,873.032,110.532
-388.448,865.956,118.584
-406.016,861.564,106.628
-380.884,891.088,94.916
-352.58,937.204,113.948
-311.588,956.48,136.396
-328.18,912.804,130.052
-348.676,923.54,119.316
-330.864,948.184,142.008
-301.34,928.42,165.676
-307.196,918.416,163.236
-325.496,912.804,160.552
-305.732,931.836,159.576
-291.58,933.056,162.016
-320.128,935.252,132.98
-353.068,987.224,110.288
-350.628,972.34,110.776
-326.96,955.504,107.36
-301.096,956.968,110.776
-292.312,952.576,119.072
-305.244,949.892,114.436
-278.404,943.304,124.684
-256.932,942.084,147.132
-271.328,926.224,142.252
-279.136,884.744,141.52
-265.472,893.772,154.452
-252.784,914.756,168.604
-236.436,913.536,182.756
-243.512,888.16,192.272
-242.536,867.908,215.208
-247.904,879.376,229.36
-246.928,899.384,244.244
-244.488,894.016,249.368
-259.128,920.856,245.952
-263.032,916.464,244.732
-270.84,874.008,246.196
-278.404,864.004,241.56
-274.256,911.096,232.776
-264.74,980.636,223.26
-234.728,993.568,221.552
-203.252,1007.476,231.556
-189.832,1009.184,240.828
-204.716,994.056,233.02
-195.932,955.016,232.532
-188.124,963.556,226.92
-165.92,1004.06,225.456
-145.424,1009.428,230.58
-160.552,1023.336,204.96
-162.016,1031.144,177.632
-163.236,1042.124,161.284
-182.756,1067.012,128.1
-174.948,1097.024,103.944
-112.24,1083.848,123.708
-99.064,1036.512,122.244
-149.572,998.448,95.16
-177.632,977.464,62.708
-173.728,949.892,48.8
-165.432,960.384,29.768
-172.508,987.956,17.324
-171.776,997.472,1.708
-177.144,1011.38,-10.004
-173.728,988.444,-7.564
-172.508,957.7,-2.196
-179.34,932.08,9.028
-204.472,930.128,4.636
-236.68,917.44,-4.88
-265.716,935.008,-18.544
-294.508,997.472,-27.572
-293.776,1032.852,-31.232
-281.576,1028.46,-44.896
-276.452,1017.724,-49.288
-275.476,995.032,-62.464
-235.216,968.192,-75.64
-193.98,906.704,-79.544
-215.208,820.572,-56.12
-265.228,741.272,-37.332
-330.376,705.404,-60.268
-346.236,802.272,-99.064
-316.712,917.684,-107.36
-314.76,981.612,-105.408
-302.072,980.636,-81.74
-285.724,957.456,-59.048
-293.288,956.968,-41.968
-329.4,912.072,-38.552
-315.98,864.248,-19.032
-293.532,910.364,3.172
-283.284,959.896,13.664
-254.736,976.732,22.448
-236.924,1006.012,30.256
-251.564,983.564,29.036
-248.148,947.696,30.5
-244.488,987.468,34.404
-237.9,979.416,29.768
-228.14,982.832,41.236
-188.856,1012.356,56.364
-170.8,1041.392,68.808
-134.2,1087.996,67.1
-72.468,1092.876,80.52
-34.16,1060.18,98.332
30.256,1154.364,76.86
91.988,1129.232,54.412
65.636,1022.604,12.2
275.72,1057.252,-8.54
367.22,830.82,-75.152
304.268,526.552,60.024
366.0,423.828,304.268
597.8,311.588,182.024
970.388,72.224,171.532
1000.156,-107.848,199.104
968.924,-92.72,235.46
834.724,-88.572,210.328
616.1,-170.556,247.416
300.12,-161.772,292.312
189.1,-109.8,241.804
337.696,-18.544,152.256
476.532,29.036,61.976
420.412,102.236,-34.648
463.844,161.772,-32.696
446.52,92.232,3.172
450.424,23.912,10.248
388.692,-42.456,-35.38
442.86,-21.716,-126.88
565.348,-30.5,-202.276
666.608,-160.064,-184.952
674.172,-392.352,-185.196
808.372,-562.176,-252.54
1084.092,-607.56,-405.04
1241.716,-627.812,-555.344
1187.06,-709.552,-642.208
1222.196,-814.472,-673.684
1319.064,-900.604,-714.676
1214.876,-925.736,-786.9
1151.924,-803.736,-812.032
1458.632,-856.684,-744.932
1829.756,-1126.304,-727.12
1980.548,-1084.824,-750.544
1836.344,-886.452,-778.36
1510.116,-829.844,-737.124
1313.208,-801.784,-652.944
1420.812,-700.768,-680.76
1736.06,-676.856,-707.6
1690.676,-753.228,-623.664
1490.596,-941.352,-405.04
1470.832,-1195.112,-186.172
1434.964,-1414.468,-46.604
1376.16,-1434.232,3.904
1373.72,-1364.936,7.808
1241.228,-1270.02,12.2
1210.972,-1166.564,-13.908
1142.896,-1109.956,-16.104
1073.6,-1073.844,7.808
979.416,-990.884,25.132
898.164,-894.992,25.376
847.168,-852.292,10.492
866.2,-773.968,23.668
733.708,-706.38,54.9
507.276,-634.644,80.764
216.916,-494.588,78.324
208.132,-349.652,139.324
309.392,-327.936,183.0
341.112,-404.552,236.436
84.18,-341.356,206.668
-112.24,-122.976,145.668
-80.032,90.28,85.644
36.844,-83.692,119.316
-109.068,108.092,35.624
-122.0,269.376,-77.348
-347.944,498.492,-119.804
-647.576,801.296,-261.324
-725.9,971.608,-129.076
-559.736,1031.144,90.28
-534.604,1141.188,151.768
-551.928,985.76,153.476
-512.644,744.932,210.572
-414.068,657.824,269.62
-353.312,794.464,295.728
-395.036,1011.38,176.656
-510.692,970.632,56.12
-512.644,845.46,23.668
-404.552,956.724,76.616
-366.732,996.252,84.668
-416.264,1010.404,47.824
-432.856,895.48,62.22
-355.752,863.76,126.148
-291.092,899.628,170.312
-282.064,916.952,172.264
-302.072,859.124,177.876
-299.388,890.844,185.44
-245.22,940.132,209.352
-224.968,972.096,232.288
-253.76,939.888,216.428
-272.792,950.38,203.74
-278.892,943.06,208.62
-274.256,937.936,224.724
-282.796,937.692,212.768
-276.696,959.408,207.156
-263.52,917.684,220.332
-268.644,920.612,213.988
-265.228,963.556,201.544
-276.452,939.4,195.444
-266.692,894.992,216.184
-268.888,906.704,222.528
-282.064,909.632,222.284
-264.252,890.6,247.172
-241.072,876.692,285.48
-243.512,891.576,290.36
-264.496,909.144,295.484
-254.492,874.008,320.128
-222.528,871.324,344.284
-190.32,865.712,371.368
-183.732,840.824,386.74
-183.976,856.196,382.348
-208.864,877.912,343.308
-220.576,862.052,322.08
-212.524,874.984,297.192
-186.66,915.488,274.988
-179.584,947.208,255.712
-185.684,970.388,226.92
-172.996,1026.264,209.352
-172.752,976.488,203.008
-172.996,934.276,210.816
-154.452,987.224,178.364
-162.26,1059.936,124.44
-176.656,1106.784,79.788
-172.02,1083.116,76.128
-130.54,1145.092,81.496
-123.22,1137.772,78.324
-152.988,1111.664,58.56
-184.464,1049.932,49.288
-180.56,1043.344,44.408
-183.244,1063.84,38.552
-176.168,1050.42,36.356
-158.112,1033.584,46.604
-162.016,998.448,51.728
-163.48,990.884,49.044
-167.384,994.056,49.044
-170.068,1016.26,39.772
-183.488,975.512,37.088
-153.72,942.084,61.0
-122.488,955.26,75.884
-150.792,957.212,60.024
-180.56,986.98,36.112
-189.588,1002.108,27.816
-178.852,1017.48,39.528
-198.128,1004.06,38.064
-197.396,992.348,22.936
-215.208,988.444,-11.224
-222.284,996.984,-33.428
-209.352,981.612,-52.216
-219.6,935.252,-87.352
-261.812,887.916,-125.904
-292.8,840.824,-146.888
-344.04,802.76,-169.092
-407.236,766.16,-193.248
-397.964,755.912,-195.444
-347.7,804.956,-162.016
-332.084,853.756,-126.636
-340.868,887.184,-96.136
-339.16,883.524,-44.896
-340.38,876.692,-13.908
-355.752,894.26,0.488
-368.928,917.928,-3.904
-361.12,928.664,-3.172
-350.14,928.664,15.372
-338.916,944.768,27.328
-347.944,936.228,21.716
-356.972,943.06,11.224
-324.032,976.244,24.156
-312.076,961.36,34.648
-327.448,922.32,35.38
-316.956,936.716,44.896
-306.464,939.644,46.116
-311.344,945.256,38.064
-299.144,951.844,39.284
-302.072,928.42,43.188
-307.196,903.776,49.288
-315.736,908.168,45.14
-308.416,908.9,55.388
-293.776,923.052,62.952
-284.992,939.888,55.632
-265.228,992.592,42.944
-250.588,995.52,42.944
-235.46,995.52,34.16
-228.384,983.564,41.724
-220.088,979.172,51.24
-164.944,1012.356,78.08
-124.928,1044.076,90.768
-112.972,1039.196,74.664
-114.924,988.688,49.776
-16.592,939.4,32.208
90.036,925.004,-8.54
156.16,888.892,11.224
159.576,754.692,86.62
304.024,647.332,77.836
636.352,587.064,91.744
589.504,487.024,59.536
653.676,117.364,204.228
783.972,-278.892,496.54
677.588,-439.2,534.604
722.728,-324.276,375.028
673.928,-116.632,136.64
284.016,-28.06,127.856
-281.82,-92.72,275.232
-396.988,-90.524,336.232
75.884,-66.612,119.316
485.072,42.212,-156.404
518.012,32.94,-271.816
528.016,-88.084,-277.184
442.128,-160.796,-269.132
492.392,-294.508,-308.416
631.472,-440.42,-441.396
816.668,-533.14,-615.856
953.064,-627.568,-775.676
917.44,-824.72,-795.44
849.364,-941.352,-784.216
1191.208,-1003.572,-867.42
1529.148,-1088.484,-916.708
1323.212,-918.66,-950.136
971.608,-874.984,-938.668
1141.432,-967.704,-991.616
1645.292,-1158.268,-1096.048
1605.276,-1237.08,-1055.544
1385.432,-1362.008,-861.808
1398.12,-1500.6,-681.492
1586.488,-1619.428,-514.352
1566.724,-1729.96,-308.172
1593.564,-1855.376,-90.768
1607.472,-1914.18,16.348
1514.264,-1940.776,18.788
1519.388,-1810.48,-60.268
1446.188,-1695.8,-185.196
1189.256,-1598.2,-233.752
944.524,-1516.216,-233.264
770.552,-1423.74,-195.444
686.616,-1405.196,-139.08
589.26,-1315.892,-71.004
514.84,-1138.992,-18.788
481.168,-1134.844,59.78
554.368,-1153.876,106.628
728.584,-1037.976,60.512
558.028,-973.316,76.128
435.784,-754.936,71.98
379.176,-477.508,106.872
188.612,-455.792,84.424
-30.5,-406.26,28.304
80.276,-387.716,215.208
353.068,-190.564,295.24
397.476,-64.416,257.908
142.74,-100.772,61.488
-321.348,-192.272,-84.668
-184.464,185.44,-115.168
187.148,437.736,162.992
114.924,602.192,253.516
30.744,284.992,269.132
-176.656,164.212,149.084
-530.212,290.36,18.056
-778.116,566.568,-122.0
-856.684,747.616,-74.664
-686.128,890.844,17.324
-578.036,976.0,59.048
-650.992,938.668,51.728
-670.024,956.724,60.512
-649.528,1026.996,65.148
-493.856,1088.484,88.328
-392.596,990.64,150.06
-372.1,889.38,195.2
-396.012,854.0,207.888
-404.308,899.384,193.248
-382.104,921.1,182.512
-387.228,951.356,172.508
-347.944,948.428,182.756
-330.864,898.896,222.284
-302.316,876.448,229.848
-327.448,914.512,204.228
-350.384,953.796,182.268
-326.472,947.452,191.54
-331.596,932.568,207.888
-316.956,885.232,229.604
-291.824,912.804,231.068
-308.172,930.128,217.648
-337.452,887.184,221.796
-288.164,884.256,239.852
-245.464,936.472,259.86
-235.46,955.992,249.612
-276.208,923.54,236.192
-311.1,903.532,227.408
-286.7,881.816,239.608
-307.928,880.596,237.412
-281.332,891.088,225.7
-267.912,950.624,216.916
-277.672,935.74,219.112
-292.8,892.552,221.064
-301.096,872.3,219.844
-295.972,903.288,219.844
-296.948,925.492,219.112
-290.36,890.356,231.556
-249.368,923.052,236.436
-248.392,928.908,236.924
-262.056,898.896,238.144
-268.156,903.288,263.52
-272.06,895.724,296.704
-267.424,887.916,329.888
-253.76,898.164,362.096
-239.608,895.48,388.692
-208.62,900.116,412.36
-169.336,866.932,451.4
-156.404,853.512,483.12
-148.84,842.532,492.636
-168.604,871.08,475.556
-167.384,918.416,460.428
-157.38,935.74,437.736
-158.844,953.796,421.876
-180.804,943.548,403.332
-178.364,942.084,381.86
-189.1,933.544,359.656
-194.956,942.328,339.892
-187.636,1008.94,318.664
-219.356,1009.184,293.044
-234.728,1001.864,274.988
-216.428,993.812,266.448
-183.732,1000.156,261.324
-196.908,1026.02,234.24
-203.984,1012.112,208.132
-211.06,974.048,185.684
-210.816,979.416,176.9
-236.924,986.736,154.208
-213.256,974.292,135.42
-187.148,946.964,110.532
-178.12,911.34,89.304
-170.8,857.66,75.396
-148.596,864.248,68.808
-149.084,851.316,60.268
-174.46,809.348,48.8
-190.808,824.476,27.816
-193.736,853.024,9.028
-165.432,895.236,-1.22
-155.916,943.06,-21.472
-207.4,974.292,-65.392
-239.12,958.432,-77.348
-261.08,904.02,-59.536
-279.868,836.92,-47.092
-320.86,844.484,-54.656
-372.344,899.872,-79.056
-369.172,941.596,-89.06
-379.176,1019.92,-98.82
-373.564,1057.008,-99.552
-340.868,1076.04,-83.448
-326.228,1060.18,-51.484
-326.472,1033.096,-24.4
-316.712,996.008,-2.928
-300.608,1005.28,2.684
-301.584,1017.48,-5.368
-265.228,1025.776,5.124
-230.092,1014.308,31.964
-261.08,971.12,52.704
-276.94,918.66,62.22
-256.444,913.292,83.936
-250.588,931.836,99.552
-248.148,920.124,102.724
-254.736,928.664,110.288
-265.228,921.832,108.336
-264.74,910.12,111.264
-230.336,929.64,116.388
-213.988,948.916,113.948
-223.016,947.452,108.58
-243.268,925.736,107.848
-240.828,949.404,99.064
-197.884,950.136,104.432
-174.216,948.184,124.44
-209.84,879.62,130.784
-264.74,858.148,121.268
-302.072,869.128,105.896
-340.868,923.296,93.696
-326.716,968.436,90.768
-310.368,1021.628,101.26
-282.308,1076.04,108.336
-160.064,1082.628,136.152
5.124,1193.648,176.412
26.108,1313.208,141.032
-70.272,1487.668,35.136
-97.844,1492.792,-189.832
-22.448,1182.424,-175.436
185.684,1007.964,-76.372
617.076,911.584,173.972
650.748,446.032,262.3
440.176,-21.228,400.648
373.076,-360.144,640.012
377.224,-505.324,649.528
569.74,-379.42,427.488
627.812,-133.956,167.628
271.328,-20.496,124.44
-50.508,-41.724,197.884
-183.488,-47.824,202.276
-153.964,59.048,109.068
155.428,184.464,-32.208
331.352,175.192,-142.496
394.304,69.296,-177.388
294.264,-7.076,-175.924
362.584,-44.652,-197.64
569.984,-123.464,-284.26
549.244,-261.08,-322.324
661.972,-450.424,-347.212
1020.164,-579.5,-463.112
1142.408,-644.404,-538.508
1267.824,-670.756,-571.936
1196.82,-738.1,-624.396
1038.464,-827.16,-651.236
1211.216,-984.052,-655.384
1589.66,-1159.0,-717.604
1677.012,-1123.864,-737.856
1604.788,-933.056,-742.98
1729.472,-873.276,-781.532
1635.532,-883.036,-805.2
1540.616,-868.396,-764.696
1444.968,-897.432,-731.024
1468.392,-981.612,-733.22
1635.532,-1015.772,-723.46
1522.804,-1082.872,-664.168
1362.496,-1139.236,-554.856
1230.492,-1138.748,-481.656
1170.224,-1157.048,-367.464
1191.94,-1307.352,-211.548
1148.02,-1493.036,-44.652
1081.896,-1603.568,114.924
1096.048,-1658.468,138.836
1201.7,-1594.54,100.772
1116.3,-1512.556,103.944
1017.968,-1408.368,107.36
968.436,-1336.632,89.792
890.6,-1273.68,67.588
918.416,-1143.872,26.108
856.928,-1032.12,8.54
679.784,-835.7,5.368
494.588,-650.504,1.708
423.34,-510.936,29.28
352.58,-366.0,27.084
237.412,-215.696,5.612
158.6,-105.408,32.94
64.172,-61.976,101.748
3.66,-28.304,213.744
22.936,117.364,293.044
60.268,170.312,156.16
-283.772,136.152,71.248
-222.284,216.672,69.784
-296.948,855.952,152.988
-34.648,960.384,-153.232
23.18,937.204,-342.088
293.532,1948.584,51.24
-153.72,1499.624,-102.236
-702.232,374.54,-120.536
-684.42,-15.128,39.528
-421.388,477.996,232.776
-432.124,789.828,249.124
-487.268,671.488,264.496
-439.2,855.22,265.228
-415.044,958.188,246.196
-461.404,878.888,240.584
-480.924,813.008,228.384
-498.248,897.92,193.004
-476.288,982.344,158.6
-478.728,856.196,155.916
-436.028,745.42,177.388
-405.528,899.384,198.616
-412.116,946.476,181.292
-354.044,940.376,201.544
-358.192,864.492,202.764
-343.308,819.84,219.6
-332.084,866.2,219.6
-330.864,887.184,211.304
-333.548,905.24,193.248
-301.828,983.32,193.736
-286.7,922.808,218.868
-317.688,951.356,203.984
-348.92,907.68,178.364
-346.968,893.772,179.828
-297.68,910.12,186.66
-284.26,948.184,191.54
-286.212,946.232,186.904
-316.956,918.904,171.532
-302.072,967.948,173.484
-295.972,949.404,169.824
-291.58,950.38,180.56
-285.236,929.64,184.22
-295.728,871.568,191.54
-293.776,872.544,205.204
-275.476,892.796,212.524
-265.472,905.728,221.064
-246.44,939.644,232.532
-226.188,950.868,250.344
-242.78,921.344,275.72
-236.68,918.172,308.904
-183.732,931.104,357.46
-133.224,946.72,394.792
-128.832,903.044,421.388
-118.34,900.848,449.448
-99.064,945.744,459.696
-111.508,946.964,430.66
-132.248,981.856,412.848
-118.096,949.404,420.9
-71.492,980.88,426.268
-105.652,1062.376,499.468
-23.668,883.768,332.572
-8.784,790.804,406.992
-11.468,850.096,398.452
-8.296,821.548,315.98
-51.484,847.412,270.596
-95.16,1078.236,310.368
-41.968,1107.76,245.708
-40.748,1140.7,223.748
-50.752,1026.508,174.948
-73.932,926.712,172.996
-77.104,889.136,151.768
-40.016,887.672,127.124
-60.268,953.796,105.652
-54.656,1008.696,43.676
-95.892,982.832,-0.976
-149.816,969.9,-35.38
-130.784,1027.484,-20.496
-207.888,930.128,-119.316
-218.868,957.456,-64.416
-193.248,960.14,-62.708
-193.004,991.616,-30.5
-152.5,928.664,-42.944
-188.612,887.672,-45.384
-128.1,938.668,-19.52
-50.264,971.852,9.272
-151.524,933.056,-49.776
-185.44,986.736,-90.524
-107.36,1044.076,-92.232
-85.4,1080.92,-81.984
-155.428,1080.676,-84.18
-203.496,1033.34,-105.896
-267.424,1037.976,-121.512
-290.36,1004.792,-117.364
-315.248,952.576,-103.944
-284.26,983.32,-68.32
-212.524,1015.04,-46.36
-191.296,1015.772,-29.036
-187.636,1016.26,-2.928
-184.22,967.216,13.176
-184.708,951.112,37.332
-203.008,939.644,47.336
-190.564,956.724,48.312
-175.924,972.096,55.632
-169.092,982.588,55.388
-147.864,969.9,73.932
-136.396,953.064,97.6
-133.468,936.228,100.284
-138.104,949.404,91.012
-141.032,985.272,84.18
-154.452,962.092,94.428
-131.516,954.04,109.8
-136.64,949.892,113.948
-184.22,939.644,101.504
-187.148,927.444,97.844
-160.064,936.716,105.408
-149.328,979.416,97.112
-151.768,1013.332,87.352
-155.916,994.056,92.232
-155.916,982.588,93.452
-144.692,990.884,90.768
-138.348,982.832,89.792
-137.372,976.976,91.744
-89.792,1010.404,101.016
-45.628,1072.38,95.404
-106.14,1196.332,-5.612
-144.692,1365.18,-144.936
-25.376,1368.84,-221.308
349.408,1177.056,-202.032
448.472,812.276,38.308
232.776,150.304,307.928
533.628,-180.56,681.004
696.376,-345.992,658.556
855.464,-305.732,494.832
1060.668,-182.756,330.376
1187.304,-164.212,272.548
930.372,-143.472,312.564
769.576,-33.184,313.052
585.844,93.452,198.86
487.024,204.716,132.492
206.424,214.964,105.896
164.7,203.252,96.624
248.148,85.888,97.6
353.312,31.72,98.332
452.62,65.88,40.26
490.44,110.532,-11.956
553.392,99.796,-28.792
670.512,51.728,-48.556
626.592,19.276,-47.824
522.404,-46.604,-23.912
491.172,-202.764,16.104
687.104,-380.884,-1.22
906.704,-499.224,-38.796
1043.832,-568.52,-75.64
953.064,-661.972,-156.648
991.616,-690.032,-292.556
1253.672,-660.264,-464.088
1461.56,-609.756,-654.896
1542.568,-660.752,-749.568
1610.644,-697.108,-788.608
1458.876,-729.316,-770.064
1347.368,-703.696,-689.3
1402.024,-701.012,-657.58
1560.868,-697.108,-731.024
1780.468,-591.7,-859.124
1837.564,-457.5,-914.024
1679.452,-375.516,-904.752
1479.86,-474.336,-845.704
1251.72,-674.66,-738.832
1047.004,-808.372,-577.792
1020.408,-887.916,-453.84
1250.5,-948.916,-419.924
1415.688,-949.648,-409.92
1382.992,-934.764,-343.308
1243.424,-993.568,-236.68
1151.436,-1122.644,-111.02
1262.212,-1215.364,-49.288
1392.02,-1202.188,-4.148
1433.5,-1095.316,-13.664
1428.864,-1009.672,-15.128
1392.02,-963.556,-25.376
1326.14,-906.704,-23.912
1207.556,-862.784,-23.18
1021.628,-797.88,-6.344
952.82,-665.876,6.344
964.532,-567.544,15.86
835.456,-488.488,42.212
595.848,-427.488,58.316
400.892,-337.94,117.12
200.568,-309.392,141.032
44.896,-259.372,220.088
-68.564,-164.944,237.412
-80.52,-60.756,240.34
-2.196,65.148,241.804
107.116,170.312,235.704
296.46,332.084,230.824
489.464,466.772,171.532
525.576,348.676,120.048
648.796,444.568,244.488
759.572,669.292,278.404
860.344,951.356,279.38
855.464,565.104,107.116
426.024,372.344,108.092
206.912,781.532,53.924
-265.716,1002.108,72.224
-607.072,1004.06,133.468
-648.064,588.772,166.896
-580.72,402.356,249.124
-547.048,576.328,287.92
-573.888,633.912,260.348
-596.092,615.856,212.28
-628.544,631.96,173.972
-635.376,742.492,122.488
-593.408,895.48,128.344
-527.772,921.832,162.26
-506.056,866.2,199.104
-493.124,819.84,208.376
-512.644,885.476,202.276
-478.484,870.348,202.52
-447.984,859.368,216.916
-455.304,816.424,223.504
-455.06,862.54,209.84
-500.2,907.924,181.78
-466.772,900.36,191.784
-471.652,866.2,197.884
-470.676,880.352,194.712
-495.564,899.872,171.288
-488.244,834.48,170.312
-442.372,793.732,198.616
-416.508,776.896,223.748
-428.708,798.856,224.968
-412.116,868.152,214.72
-425.536,878.888,203.496
-441.884,867.664,205.448
-425.536,870.836,208.62
-437.004,841.556,205.692
-459.696,830.332,198.128
-456.524,849.608,196.176
-433.588,868.396,215.452
-406.504,851.56,226.676
-389.18,837.408,237.168
-382.592,866.688,252.54
-401.624,847.168,257.908
-411.628,833.016,279.624
-385.032,822.768,307.684
-366.976,860.588,332.084
-327.936,851.316,364.536
-316.468,828.868,379.908
-329.156,806.42,376.004
-367.952,836.676,343.552
-365.756,867.908,321.592
-345.504,869.86,319.64
-353.8,900.604,313.54
-376.248,960.14,287.188
-363.56,946.476,286.7
-334.28,903.044,299.876
-332.328,911.096,290.36
-333.304,963.556,278.892
-307.928,952.576,282.308
-290.116,919.148,294.264
-317.2,899.872,281.576
-322.812,956.48,236.192
-321.836,1050.42,198.616
-303.536,1067.988,193.736
-276.208,1085.556,198.372
-251.32,1057.008,211.06
-257.664,949.16,203.252
-268.644,907.192,192.76
-273.768,888.16,167.384
-295.728,904.508,144.204
-302.56,890.356,116.144
-286.212,883.524,105.896
-251.808,931.836,94.428
-248.392,960.384,82.228
-256.444,910.364,77.104
-234.484,861.564,76.128
-219.6,879.376,70.028
-229.116,937.448,54.656
-225.944,946.964,40.504
-249.124,916.708,42.456
-302.072,916.708,40.016
-321.592,904.264,37.576
-339.892,888.892,27.084
-375.76,920.612,28.548
-351.36,955.992,31.964
-310.368,973.072,26.352
-307.928,962.336,-5.856
-345.016,943.06,-40.504
-368.684,919.148,-41.724
-346.48,852.048,-31.72
-361.608,855.22,-54.9
-376.98,890.844,-85.888
-382.348,896.7,-94.916
-381.128,897.188,-81.252
-380.152,873.032,-69.784
-401.624,882.792,-61.488
-386.008,885.476,-44.652
-348.188,904.508,-14.152
-340.136,918.904,2.44
-336.72,930.86,16.104
-335.744,938.18,24.156
-341.6,939.156,38.552
-334.524,944.28,56.12
-330.864,936.96,65.392
-325.008,908.168,88.572
-317.444,932.324,93.94
-326.716,961.604,92.72
-347.7,935.008,87.108
-347.7,939.4,94.184
-315.98,961.604,106.628
-321.592,948.184,103.7
-319.64,951.356,103.212
-309.392,961.848,101.992
-301.584,922.564,111.752
-307.44,900.848,115.168
-304.024,903.776,110.044
-312.32,895.724,97.844
-320.616,906.216,85.888
-326.228,905.972,77.836
-318.664,903.776,81.008
-329.888,888.16,81.74
-332.816,919.148,68.076
-343.552,928.42,54.9
-340.868,927.444,49.044
-341.844,941.108,52.704
-361.364,937.448,47.092
-346.236,931.836,43.92
-350.872,956.48,36.356
-343.552,950.136,39.04
-337.208,943.06,44.896
-324.52,915.488,53.436
-320.128,909.876,51.972
-274.744,911.828,65.392
-184.22,1039.44,100.528
-311.1,1228.052,188.368
-502.396,1160.708,-18.544
-386.984,979.416,-144.936
-75.884,660.996,-95.404
519.232,573.644,185.196
536.556,304.268,293.776
667.584,-210.816,560.224
741.76,-452.864,784.948
695.156,-348.92,528.016
1289.784,-60.024,316.712
1276.852,-90.524,282.064
755.912,-109.8,332.816
411.14,63.44,272.06
244.488,274.012,107.116
214.964,218.38,61.488
366.0,-16.836,95.404
531.188,-46.36,76.372
541.192,52.46,26.596
353.068,104.188,-23.912
309.636,111.752,-32.696
419.924,5.124,18.788
464.088,-155.672,38.308
589.992,-218.624,44.164
702.964,-309.148,12.932
856.928,-357.948,-43.188
913.292,-393.084,-118.828
951.844,-437.98,-188.124
1044.564,-532.896,-244.976
1048.956,-691.496,-301.096
1169.248,-819.108,-353.8
1185.596,-868.152,-440.664
1214.632,-876.936,-491.416
1305.888,-844.484,-540.948
1367.62,-887.672,-547.292
1542.324,-974.048,-600.728
1711.172,-910.608,-727.364
1647.976,-749.812,-778.36
1405.196,-637.328,-733.952
1090.924,-651.968,-657.58
967.704,-819.84,-539.728
1134.844,-1001.864,-507.52
1533.296,-1116.056,-508.984
1664.812,-980.88,-479.704
1521.34,-948.672,-356.484
1330.532,-1099.464,-199.592
1391.044,-1335.9,-62.464
1542.568,-1555.744,23.424
1592.344,-1708.976,59.048
1527.684,-1619.184,50.264
1347.612,-1401.048,-9.76
1216.828,-1259.04,-49.776
1114.104,-1145.58,-47.336
1079.944,-1017.724,-51.728
1063.108,-1001.62,-15.372
1027.24,-970.144,1.952
936.472,-871.812,27.816
753.472,-767.624,46.116
568.52,-639.768,68.076
405.04,-490.196,94.184
323.3,-409.432,161.284
333.304,-347.944,210.816
-32.452,-255.712,53.924
103.7,-61.732,114.924
303.292,177.388,204.228
380.884,271.328,331.84
135.908,165.676,114.192
50.996,397.476,-78.324
157.136,508.252,-33.184
10.98,-404.308,-158.6
-316.468,474.824,-356.24
-325.008,1509.14,208.864
-361.852,1144.36,241.072
-603.9,436.76,89.06
-707.356,352.824,34.892
-706.38,459.452,111.508
-645.624,489.464,196.42
-584.136,549.488,226.432
-555.1,710.528,202.032
-551.684,852.292,184.464
-539.728,910.852,183.976
-487.024,990.152,196.176
-438.956,996.74,204.716
-454.328,923.54,198.86
-496.54,841.8,169.092
-458.476,804.712,182.268
-365.756,819.596,231.556
-325.74,842.532,249.856
-340.868,892.796,232.532
-391.132,860.1,201.788
-411.872,846.192,193.98
-376.492,896.212,217.648
-380.152,906.948,219.844
-394.548,939.888,202.764
-381.372,931.836,205.692
-390.644,934.764,206.668
-370.148,923.54,214.232
-353.068,915.244,230.092
-345.748,888.16,235.948
-344.284,895.236,240.096
-372.588,879.864,218.624
-361.608,857.416,237.656
-347.456,868.884,253.272
-357.216,905.728,247.66
-373.564,886.452,233.508
