acc_x[mg],acc_y[mg],acc_z[mg]
103.456,981.368,37.088
96.868,983.076,37.82
93.208,982.588,33.184
103.456,988.688,25.132
113.46,993.08,23.424
111.996,992.592,20.984
110.288,991.128,18.056
98.088,991.128,19.764
98.088,993.568,8.296
94.184,996.496,11.956
99.064,997.228,14.64
93.452,993.812,17.324
90.036,988.932,21.96
89.304,983.076,27.572
92.476,981.368,24.4
100.284,984.296,20.008
100.528,986.736,20.496
103.212,990.396,15.128
102.968,989.908,20.008
104.676,988.932,20.496
100.04,989.176,21.716
96.136,991.128,25.376
100.04,992.104,20.496
101.016,993.324,17.568
102.48,997.716,18.3
105.164,994.056,23.424
91.256,985.028,25.62
86.376,983.32,28.304
89.548,984.54,32.696
97.112,985.028,29.036
92.964,987.468,28.792
87.84,986.736,30.5
91.744,985.028,34.404
100.772,982.1,33.184
99.796,985.028,33.672
105.164,986.98,36.844
106.628,985.76,41.48
104.188,983.564,43.92
103.456,985.516,40.016
104.188,988.444,39.772
97.844,994.788,44.164
94.916,990.64,42.212
93.696,986.248,39.772
88.572,984.54,37.332
94.672,989.42,33.916
99.552,988.932,30.5
103.212,993.324,27.816
104.92,994.544,25.376
96.868,990.152,29.524
96.38,986.492,28.304
96.624,983.076,33.672
99.552,978.928,36.6
92.964,975.268,42.944
92.476,968.68,49.776
90.036,968.192,52.216
90.524,971.12,47.336
98.332,975.512,46.36
109.312,984.296,35.868
111.508,996.984,24.888
115.168,1004.548,17.324
114.192,1009.428,15.86
105.408,1009.916,17.324
95.648,1009.916,19.032
88.572,1004.792,20.74
92.476,1001.62,27.572
88.084,1000.156,35.868
91.988,1000.644,52.704
109.8,995.276,74.664
122.0,997.96,78.324
122.0,998.204,76.128
120.292,995.52,74.42
134.688,995.764,59.78
139.08,997.228,54.9
142.496,995.52,63.684
150.06,989.176,74.176
150.304,982.588,64.416
145.912,973.072,52.948
134.688,969.9,51.728
127.124,976.976,23.668
123.708,985.028,5.368
118.584,992.104,-3.904
106.872,988.932,-9.028
88.328,982.588,-9.516
78.812,975.268,-6.344
65.392,968.924,-0.488
64.172,963.8,-2.196
80.764,969.412,0.976
93.94,976.488,11.224
100.284,982.344,11.712
106.872,979.904,3.904
109.068,983.32,4.636
110.288,988.2,3.904
113.46,992.836,2.928
114.436,993.08,5.856
111.508,993.324,9.516
104.676,993.568,10.492
101.748,993.08,7.564
103.944,997.228,4.88
109.312,998.936,10.248
108.092,997.472,14.884
106.628,992.592,12.2
103.212,988.932,21.472
103.7,986.248,22.692
105.164,985.272,26.108
106.872,983.564,22.936
111.02,983.564,26.84
114.436,981.124,32.94
111.02,979.66,34.648
111.996,981.612,38.552
117.608,983.32,33.428
128.832,991.128,27.572
129.32,994.544,30.744
121.268,995.276,27.328
122.976,992.836,26.108
115.168,994.788,22.448
109.8,1000.4,20.252
103.212,1000.4,22.936
108.336,997.228,15.616
100.04,990.152,18.788
102.236,985.028,19.276
102.724,983.32,26.84
112.484,985.272,20.252
116.632,992.836,13.42
117.12,996.74,13.664
123.464,999.18,2.684
117.852,1001.864,0.976
111.264,997.228,2.928
107.604,987.224,3.66
99.552,977.708,12.688
94.916,970.388,15.128
95.404,968.924,16.836
103.7,976.976,12.444
109.556,990.64,10.004
120.78,1001.132,13.664
124.196,1000.156,13.42
118.584,994.544,17.812
116.632,990.64,21.716
116.876,993.324,16.836
116.632,997.228,18.788
113.948,999.424,23.424
116.144,1000.888,9.272
107.604,996.496,11.468
107.36,993.812,6.588
106.384,989.176,10.736
101.992,981.368,7.808
95.404,976.488,14.884
87.352,973.804,15.616
86.62,972.584,20.252
86.62,968.924,27.816
84.912,975.268,32.696
96.868,978.44,44.164
93.696,985.028,52.216
66.856,992.592,67.344
135.664,1000.4,35.624
130.296,1029.436,47.336
126.392,1037.244,71.248
81.984,1012.112,91.744
1.952,1155.096,103.944
36.844,1221.464,39.528
173.484,1202.92,96.136
217.892,1173.396,72.468
843.02,1130.696,63.44
1045.54,978.44,147.62
674.172,570.228,191.54
619.272,184.708,310.612
829.112,97.844,237.656
1131.428,136.152,157.624
1307.108,151.28,101.504
1033.34,-3.66,188.856
853.268,-90.036,219.356
887.184,-28.792,198.86
827.404,24.4,256.688
636.352,38.308,233.264
579.256,3.172,135.664
378.688,-7.564,104.432
156.404,13.908,79.544
10.492,-7.564,87.352
14.152,-77.348,83.204
227.896,-40.992,-37.576
317.444,47.58,-86.376
143.228,161.284,-92.476
176.168,249.124,0.732
263.52,221.552,16.104
450.668,113.216,-42.944
518.5,-29.28,-41.724
625.372,-132.004,-15.128
737.368,-212.28,-36.6
1034.56,-301.34,-70.76
1098.732,-481.412,-81.252
998.204,-584.136,-123.952
1166.32,-554.856,-279.136
1377.624,-548.512,-399.428
1502.308,-516.792,-569.984
1450.824,-561.688,-685.884
1698.728,-580.964,-748.348
1641.388,-674.904,-704.672
1545.984,-700.28,-683.444
1577.216,-574.62,-698.084
1595.272,-440.42,-700.768
1681.648,-392.596,-716.14
1779.492,-398.208,-694.912
1902.468,-541.68,-564.86
2017.88,-683.688,-332.816
2170.868,-806.908,-117.608
2235.772,-843.752,41.236
2450.492,-828.136,212.036
2625.196,-864.98,343.796
2573.712,-877.668,416.996
2290.672,-940.62,524.112
2011.292,-993.812,573.888
1738.256,-1058.228,557.54
1535.492,-1075.308,521.184
1375.428,-1055.3,475.8
1237.08,-957.7,369.904
1175.104,-850.584,291.824
1068.72,-833.504,292.068
1015.284,-836.676,265.96
896.7,-785.924,243.024
732.488,-749.324,247.904
517.28,-744.2,237.9
319.396,-619.516,111.02
70.272,-487.268,46.848
-360.876,-425.048,144.448
-497.516,-296.704,92.232
-396.988,-37.82,-184.464
-248.392,91.744,-221.552
-162.748,119.316,-161.284
121.756,152.988,-117.12
292.556,201.3,-74.176
495.076,241.804,-93.452
457.256,402.844,163.724
483.364,402.844,-122.0
398.696,633.424,-103.212
417.484,876.936,-45.384
695.888,1014.796,9.516
567.056,1047.736,117.12
474.092,1035.536,80.764
250.832,1004.06,177.144
-49.776,964.288,400.404
-183.976,883.768,380.396
-194.956,855.708,305.0
-394.06,875.472,362.34
-381.372,935.984,337.696
-333.304,950.136,249.856
-310.856,975.268,165.92
-259.86,996.496,173.24
-277.428,990.64,174.216
-334.524,968.68,140.544
-319.64,963.068,85.888
-243.512,994.056,41.236
-213.5,1029.436,103.944
-230.824,1001.62,115.656
-202.032,972.34,77.104
-216.428,956.236,103.7
-172.752,957.456,111.996
-162.992,963.068,125.66
-148.596,962.092,143.472
-184.22,948.672,170.068
-160.064,948.916,146.156
-179.828,946.72,136.884
-185.928,951.844,135.664
-147.864,948.428,151.768
-148.84,958.92,192.516
-178.608,938.668,249.612
-169.336,919.148,267.668
-177.632,905.728,319.396
-123.464,913.78,316.712
-150.304,938.912,337.94
-122.732,959.164,326.472
-115.9,973.316,321.592
-155.428,991.616,318.664
-160.796,1000.888,317.932
-110.044,986.98,314.516
-76.372,975.268,297.436
-115.9,965.752,292.8
-122.0,981.124,290.848
-176.9,979.904,298.9
-117.12,983.564,233.752
-8.052,1018.212,163.724
-13.176,1067.5,181.78
-53.436,1066.036,191.052
-98.82,1043.1,145.668
-46.848,1020.652,106.872
26.108,1012.844,113.704
17.568,1006.012,153.476
4.148,989.42,174.704
47.58,967.46,159.332
101.26,972.096,131.76
38.796,1021.14,130.052
-2.44,1024.556,192.028
102.48,1023.824,153.72
116.876,1032.12,122.976
59.78,1050.664,168.848
72.712,1045.052,166.896
158.844,1037.0,119.316
183.0,1030.168,97.844
93.208,1028.948,134.444
71.248,1004.548,127.368
63.928,992.592,95.648
51.484,994.3,94.672
31.232,1000.888,97.844
56.12,1003.328,84.424
59.536,996.496,71.492
38.308,983.076,63.44
50.752,957.456,59.048
70.76,934.032,57.828
46.604,923.296,70.272
53.924,910.852,70.028
30.988,898.652,71.98
29.28,897.432,33.184
15.128,910.608,35.624
13.176,919.392,40.26
17.812,924.516,39.284
-14.64,926.956,59.048
-42.944,933.788,66.856
-59.78,947.696,67.344
-86.864,968.192,68.076
-69.784,988.2,63.684
-42.212,999.424,74.908
-41.968,999.18,111.02
-22.448,985.028,113.948
-33.428,974.292,126.392
-33.916,976.488,138.348
-30.256,973.56,143.228
-23.668,978.44,141.032
-20.008,979.172,144.204
-16.592,977.464,149.328
-25.376,970.388,152.5
-12.932,971.12,134.932
-26.352,977.952,143.716
-11.712,984.052,132.736
-11.468,991.372,142.496
-16.836,996.496,150.548
-16.592,990.884,159.82
-20.984,982.344,175.436
-22.692,977.464,179.584
-10.492,981.856,179.096
-16.104,990.884,188.856
-19.276,991.372,197.64
-10.492,993.08,194.956
-2.44,995.52,191.296
-11.712,990.396,187.88
-2.928,983.564,180.072
7.32,986.248,170.068
5.124,994.544,173.728
-4.636,994.544,171.044
-11.956,983.076,178.12
-19.764,977.464,177.388
-7.32,981.124,168.848
-12.2,985.272,188.124
-9.76,978.928,200.324
-16.348,964.288,192.516
-19.032,957.456,182.268
-12.2,962.336,181.292
-7.808,969.656,183.976
-16.104,969.9,194.956
-47.092,966.24,201.788
-43.92,966.728,165.432
-3.904,992.592,137.372
-15.86,1013.82,153.964
2.928,1009.672,135.908
-19.52,994.544,136.152
-27.816,982.1,123.708
-24.4,972.34,126.148
-33.428,964.044,144.448
-40.504,951.6,153.964
-53.192,940.132,164.212
-58.56,939.156,171.288
-42.212,951.356,174.948
-31.72,959.896,209.84
-29.28,969.412,210.572
-44.408,997.716,211.304
-65.148,1028.216,248.392
-116.632,1013.82,364.78
-571.204,861.32,591.944
-772.748,667.584,269.864
-382.592,465.064,-90.28
811.056,507.276,-406.748
1033.584,665.144,-68.564
356.728,142.984,507.032
264.984,-574.132,381.372
977.952,-776.164,74.176
824.964,-279.868,169.092
670.268,-27.816,207.888
352.092,-37.332,73.932
138.592,-143.96,21.472
-103.944,-280.6,60.756
80.276,-326.472,73.2
285.236,-297.436,17.812
283.772,-264.984,-129.564
249.124,-273.524,-122.488
297.192,-307.44,-19.032
434.32,-371.124,23.912
523.38,-493.856,-39.284
843.264,-563.152,-25.864
1019.92,-674.172,-164.456
1380.064,-817.156,-227.896
1547.936,-924.76,-174.704
1414.712,-1017.48,-341.6
1455.948,-1161.684,-498.98
1851.228,-1123.62,-532.408
2130.608,-1023.092,-572.424
2076.684,-900.848,-610.976
2181.848,-771.528,-674.416
2297.26,-664.412,-645.136
2433.168,-684.664,-627.324
2609.092,-808.372,-549.244
2559.56,-1021.872,-280.112
2429.752,-1151.68,25.864
2296.04,-1157.292,229.848
2278.96,-1095.072,300.852
2102.792,-1127.768,501.176
2026.42,-1218.292,648.308
1991.04,-1268.8,651.724
1785.104,-1369.572,718.824
1585.756,-1450.092,728.828
1457.168,-1397.632,663.436
1185.108,-1380.552,692.228
1084.58,-1424.716,638.304
1048.712,-1362.252,537.044
576.084,-1276.608,402.112
-65.148,-1070.184,173.728
-525.332,-861.808,30.744
-910.12,-650.504,-31.72
-793.488,-542.168,-128.1
-826.672,-478.728,-74.176
-398.696,-191.54,-69.784
223.748,80.52,-9.516
489.708,255.468,-30.988
365.512,337.696,164.944
594.14,569.74,-14.64
567.056,788.852,-71.98
647.82,943.792,-14.64
819.84,1004.548,-12.2
514.596,1010.16,61.488
269.376,1038.708,129.564
83.692,983.808,84.424
54.168,946.476,55.144
-16.104,905.972,21.716
-54.656,858.636,110.776
-66.368,814.228,169.092
-297.68,794.952,189.588
-304.512,794.952,124.928
-256.688,775.188,174.46
-184.464,753.472,203.496
-137.372,749.08,187.148
-208.864,787.632,254.248
-162.016,817.156,250.832
-171.288,857.172,211.548
-182.756,894.26,186.416
-123.22,929.396,142.74
-125.172,972.584,151.036
-200.08,982.1,207.4
-195.2,940.864,183.976
-250.588,899.628,161.528
-236.68,891.088,152.256
-256.688,903.288,156.648
-190.808,932.324,118.584
-194.956,944.28,155.916
-189.344,933.788,141.764
-159.576,919.88,101.26
-184.464,929.64,88.816
-206.668,954.772,95.404
-206.424,976.976,101.504
-212.768,984.784,113.46
-223.504,994.3,121.268
-226.432,1001.62,133.956
-215.452,1001.132,129.076
-209.84,991.616,140.544
-213.744,982.832,155.428
-229.604,984.54,176.9
-186.66,979.172,186.904
-121.268,979.904,158.844
-124.684,982.588,172.02
-160.796,982.344,202.032
-176.9,970.144,211.792
-197.396,964.776,219.112
-210.328,959.408,237.412
-210.816,955.016,263.764
-225.7,948.916,255.468
-225.7,936.228,233.264
-201.3,949.892,216.184
-213.5,965.508,220.576
-212.524,957.944,213.256
-123.952,958.432,167.14
-174.216,967.46,205.936
-188.368,962.336,198.372
-173.972,957.456,199.104
-156.648,952.088,203.252
-169.824,952.576,235.216
-139.08,932.568,246.928
-159.088,916.464,270.108
-212.524,901.336,283.528
-163.724,900.604,291.092
-169.824,908.9,321.592
-165.432,916.708,331.596
-161.772,918.172,348.188
-203.984,932.324,356.728
-211.792,954.528,333.548
-165.676,980.88,315.736
-112.24,996.008,315.004
-62.708,989.908,323.3
-55.876,978.196,331.108
-75.152,958.432,323.056
-44.164,945.5,290.36
-0.488,954.04,240.828
-37.088,970.388,234.24
-94.184,975.268,209.108
-139.324,981.368,156.404
-136.884,1003.084,113.46
-138.836,1018.456,120.536
-162.504,1007.476,148.596
-138.104,982.1,124.684
-153.964,946.232,130.052
-162.016,927.2,114.924
-140.056,937.204,122.0
-157.136,943.548,140.056
-185.928,946.72,121.268
-177.876,957.456,113.948
-194.224,955.016,142.252
-180.804,945.256,119.072
-148.84,956.236,111.508
-124.44,963.8,95.404
-98.576,966.972,72.224
-87.84,965.264,56.12
-101.992,971.364,51.24
-90.28,972.096,30.5
-88.084,978.196,-0.732
-94.184,986.736,-34.404
-94.672,986.736,-40.992
-92.72,984.784,-24.4
-119.804,962.092,5.368
-147.132,934.032,19.276
-140.788,924.76,20.74
-102.48,952.088,-5.856
-94.184,993.812,-10.004
-63.684,1025.044,5.856
-94.428,1018.212,51.972
-130.54,993.08,55.876
-109.8,990.64,48.556
-132.004,1002.596,56.852
-81.496,1016.016,36.844
-64.172,1024.068,50.996
-70.516,1019.92,68.808
-75.884,1006.256,81.008
-76.372,995.52,83.448
-69.784,990.64,95.16
-62.464,991.372,95.404
-76.128,992.592,108.092
-94.672,988.2,103.944
-96.136,985.028,99.308
-86.864,984.54,82.96
-73.2,989.908,86.62
-68.076,990.396,97.844
-76.128,977.952,110.532
-86.376,965.264,111.02
-98.576,962.092,108.092
-70.76,969.656,96.136
-71.98,975.756,112.728
-81.496,968.68,101.26
-89.548,965.752,78.324
-102.968,962.092,86.864
-107.36,965.508,92.476
-135.664,970.632,92.72
-136.152,996.74,85.156
-239.852,1084.336,51.484
-427.0,1163.148,41.48
-253.028,1141.188,167.14
162.016,1045.296,303.536
105.896,922.32,242.78
67.832,805.688,186.172
397.232,669.048,50.02
624.884,575.108,267.424
619.272,277.428,423.584
759.816,53.192,363.56
994.3,-25.376,227.164
843.752,131.516,268.644
626.104,229.848,209.84
344.772,137.86,262.544
-86.864,-169.092,306.22
-595.36,-469.944,233.02
-909.876,-689.056,127.124
-936.228,-601.216,-267.424
-824.476,-362.828,-440.664
-359.9,-21.228,-154.696
-112.484,-76.372,56.852
-406.992,-624.152,7.076
653.432,-788.852,-315.736
1791.936,-824.232,-367.22
1967.372,-858.148,-377.956
1866.6,-891.332,-644.404
2294.332,-868.396,-660.996
2383.392,-833.748,-679.54
2246.264,-813.984,-572.424
2511.248,-479.948,-833.748
2508.076,-211.792,-883.768
2392.42,-82.228,-876.692
2374.852,-84.668,-820.084
2537.112,-142.496,-742.004
2445.124,-210.084,-664.656
2183.312,-289.872,-483.608
2152.324,-367.708,-384.056
2189.168,-495.076,-249.124
2162.816,-684.664,-102.724
2019.588,-878.156,98.332
1999.092,-965.02,229.848
2158.668,-1015.04,340.624
2135.732,-1114.592,418.948
1981.28,-1236.348,478.484
1842.688,-1311.012,448.96
1671.4,-1303.936,463.6
1574.044,-1237.324,383.568
1395.68,-1186.084,311.832
1055.3,-1142.164,221.308
862.54,-998.936,149.328
802.028,-832.04,8.052
780.556,-690.276,-107.116
355.264,-593.164,-79.788
-44.164,-467.748,-8.052
-260.592,-341.112,-39.528
-294.996,-277.672,-52.46
-325.984,-253.028,40.748
-383.812,-261.812,45.628
-316.468,-165.432,17.812
-44.164,-13.176,2.44
317.2,202.52,2.928
203.74,317.2,-67.588
-266.448,439.2,-122.732
-68.564,634.4,-79.544
363.316,742.98,-56.364
525.332,770.308,-46.604
428.22,770.796,-12.688
273.768,879.62,7.808
354.776,1030.168,107.116
398.94,1099.464,131.028
261.812,1106.052,121.756
-3.416,1098.976,189.1
-135.176,1083.848,170.8
124.684,1087.508,72.224
57.828,1071.404,195.932
28.304,1061.156,224.48
-127.124,1001.62,216.428
-254.492,927.688,192.76
-9.272,968.192,69.052
-130.052,1040.416,182.024
-145.18,1093.12,153.232
-253.76,1066.28,186.416
-222.284,1009.428,171.044
-205.936,953.552,192.76
-180.804,902.312,237.168
-185.196,882.792,286.944
-156.892,900.848,307.44
-30.744,934.52,219.844
-6.1,990.64,298.9
-0.244,995.276,264.984
7.564,992.592,203.984
-59.292,1000.644,204.716
-49.044,1013.088,166.896
-46.36,1008.208,146.888
-140.544,991.128,177.144
-163.48,961.36,153.964
-176.9,936.96,155.672
-109.068,938.424,123.708
-67.832,965.264,123.708
-54.412,980.88,131.516
-93.696,991.616,153.476
-90.524,973.072,162.26
-110.288,967.704,171.288
-112.24,973.316,175.192
-94.428,977.22,176.412
-60.268,991.616,162.992
-37.82,1002.84,155.916
-54.412,997.472,169.58
-25.132,995.032,134.688
-83.204,985.76,182.024
-96.136,965.996,176.9
-81.496,949.16,159.332
-58.804,954.528,132.98
-87.352,973.072,155.916
-76.372,979.416,135.176
-78.812,983.32,137.616
-120.048,982.832,163.236
-140.3,960.872,162.016
-109.312,952.332,122.488
-91.256,965.996,127.856
-53.924,976.732,128.588
-75.64,979.416,145.912
-65.636,979.66,143.472
-85.4,976.488,168.36
-59.536,973.56,162.992
-52.216,981.856,179.584
-55.144,987.224,205.692
-48.8,978.196,226.188
-64.66,973.316,246.928
-50.752,963.312,249.368
-28.304,965.752,236.192
-5.124,978.684,231.556
-8.784,980.88,265.472
-23.18,971.364,290.604
-31.476,956.968,300.364
-3.66,948.916,314.516
-18.788,949.648,350.14
11.224,951.6,348.676
26.108,950.624,345.26
18.3,960.14,348.188
17.568,962.58,340.136
27.572,964.288,335.744
51.24,966.484,332.816
98.82,963.312,319.64
135.176,965.508,295.728
94.428,986.248,275.964
43.676,995.52,272.548
20.252,1016.748,231.556
57.34,1010.404,168.36
36.112,999.424,138.348
-89.304,988.932,134.688
-120.536,969.412,92.232
-150.548,942.572,102.968
-30.988,940.132,28.792
-25.62,961.604,45.872
-115.656,973.804,74.42
-97.112,965.752,73.688
-37.332,968.924,61.488
-18.544,1005.28,29.768
-25.62,1038.22,4.148
-14.64,1052.86,4.392
-52.704,1030.412,38.308
-84.912,1021.384,9.516
-124.44,1034.56,-36.356
-97.356,1041.148,-55.632
-66.612,1026.02,-51.24
-98.088,985.76,-43.676
-96.38,951.6,-41.236
-109.8,925.98,-19.764
-92.476,920.612,10.248
-80.764,915.244,22.448
-86.864,924.028,40.992
-78.08,936.228,54.9
-100.284,950.38,79.788
-118.34,964.288,94.184
-131.028,970.388,105.896
-100.04,985.76,92.72
-83.448,1009.672,95.648
-81.496,1012.112,110.532
-70.516,1008.452,117.852
-41.48,1002.352,121.512
-38.308,993.324,133.224
-58.56,988.2,148.108
-38.796,986.98,150.792
-46.116,987.956,167.14
-37.332,990.152,149.816
-29.524,1000.888,136.884
-33.428,1009.428,137.616
-6.832,1015.284,131.76
-11.224,1017.48,138.348
-20.984,1008.208,129.564
-34.404,994.544,142.496
-13.176,985.516,146.156
-27.084,979.172,150.304
-42.7,977.22,152.988
-27.572,970.632,152.256
-23.18,976.0,148.352
-30.988,981.612,152.5
-7.808,983.564,143.472
-29.28,984.052,152.988
-34.892,988.932,151.524
-18.056,989.42,161.284
-33.916,990.884,177.632
-37.82,985.516,173.728
-27.816,980.636,168.604
-45.14,987.956,167.384
-51.484,993.08,175.924
-12.932,988.444,169.336
-39.284,972.096,197.152
-51.728,947.452,189.832
-80.764,937.936,201.788
-114.436,940.62,225.456
-163.48,940.62,239.608
-183.976,938.18,211.304
-396.256,938.668,154.696
-619.516,899.872,73.688
-202.032,754.448,55.632
866.444,921.344,-29.28
984.784,1020.896,25.62
710.284,625.372,282.064
582.916,-64.66,547.78
631.96,-382.836,420.168
531.676,-201.788,143.228
453.596,-149.816,92.232
-41.968,-346.236,533.872
-291.092,-535.824,533.628
-327.204,-619.272,113.704
-165.432,-460.184,14.884
122.244,-156.16,-108.824
115.168,-33.916,-221.064
173.972,-135.908,-213.5
353.556,-339.16,-178.12
757.62,-560.468,-173.24
1249.524,-744.932,-275.476
1546.716,-863.272,-328.424
1757.532,-938.18,-264.984
2082.296,-941.352,-183.488
2579.568,-864.248,-366.732
2748.66,-783.728,-508.496
2548.58,-751.52,-309.148
2654.232,-808.372,-108.336
2818.688,-909.388,134.932
2948.74,-977.708,208.376
2696.688,-919.392,212.28
2139.148,-822.524,350.384
1792.912,-859.612,535.092
1756.8,-997.472,591.944
1720.444,-1049.688,589.26
1596.004,-1024.8,652.456
1356.64,-1001.864,706.38
1258.796,-949.648,686.128
1369.816,-924.028,627.812
1087.02,-1021.14,672.464
824.72,-1009.428,629.764
313.784,-876.936,513.864
123.952,-577.548,336.232
91.744,-425.78,392.596
-385.52,-450.912,145.18
-617.564,-198.86,59.78
-152.256,-25.132,107.116
74.908,26.108,202.276
-103.7,81.74,115.656
-265.472,246.196,58.56
123.464,446.276,31.72
402.112,547.292,33.184
633.668,541.68,25.132
727.852,498.004,95.16
930.86,479.216,150.304
1067.5,479.948,137.86
1198.04,573.4,108.58
1438.136,663.924,65.148
1518.168,680.028,68.564
1331.02,654.896,65.636
965.752,596.824,140.3
474.336,637.328,165.676
620.004,743.224,74.176
763.72,730.292,-23.668
538.02,768.356,25.864
313.784,903.288,118.096
308.904,907.68,42.212
249.856,964.044,-72.224
-33.916,998.448,57.584
-85.4,977.708,86.376
-62.464,931.104,28.792
-160.064,882.548,47.336
-256.932,866.932,100.284
-233.508,882.548,118.096
-244.732,867.908,136.884
-207.644,864.736,56.852
-269.376,899.628,89.304
-295.972,931.348,143.472
-225.944,935.74,129.564
-247.172,926.224,140.3
-273.036,930.372,168.36
-267.912,937.692,214.964
-257.42,925.736,238.632
-209.352,901.336,187.392
-151.28,907.436,119.804
-104.676,958.676,96.136
-46.36,1007.72,100.04
-38.308,1026.02,134.932
-41.968,1008.94,143.228
-63.44,987.224,164.7
6.344,975.756,155.672
-6.832,980.88,174.216
-30.744,986.98,205.448
-78.812,973.804,224.48
-89.06,954.528,207.4
-81.984,952.82,215.452
-50.752,971.12,184.22
-17.324,1002.84,156.892
-15.128,1013.088,179.34
-27.328,1014.552,192.76
-8.296,998.936,174.704
-9.76,991.372,177.632
-33.916,982.1,202.764
-15.86,969.168,189.1
-41.724,964.776,180.56
4.88,964.288,171.776
0.488,972.828,210.084
-13.42,974.048,230.336
-17.568,963.312,208.62
5.612,969.9,191.54
-61.0,986.492,227.652
-34.648,1006.012,229.604
-33.672,1015.284,254.248
-10.98,1020.164,266.936
-27.084,1017.236,295.24
-57.828,1000.156,305.488
-40.016,974.292,286.212
85.644,968.436,233.752
161.772,986.248,235.216
162.992,991.86,265.228
100.528,971.12,310.124
93.452,935.252,303.292
158.844,909.388,267.424
182.756,916.708,272.06
155.184,939.4,293.288
136.64,943.06,265.472
101.992,932.812,251.32
145.912,929.64,187.636
174.948,952.576,186.416
144.448,971.364,201.056
135.42,976.0,180.56
89.548,966.972,155.916
88.084,962.336,118.828
97.6,957.212,102.968
74.664,961.604,82.96
52.216,961.116,67.588
15.616,962.824,50.264
42.944,976.732,-4.636
48.556,994.788,-33.428
11.956,1015.04,-34.892
16.836,1028.704,-98.088
-0.488,1031.144,-124.928
-37.82,1023.092,-136.396
-61.0,1011.136,-115.656
-42.456,990.884,-134.444
-43.188,995.764,-160.064
-43.432,994.788,-162.504
-24.4,989.908,-143.228
-32.452,971.852,-120.536
-49.776,961.36,-82.96
-44.164,948.916,-39.772
-15.372,948.184,-19.52
12.932,972.34,-15.128
50.02,1001.62,1.952
88.572,1021.628,28.304
84.424,1023.824,43.432
72.712,1020.896,51.728
64.172,1016.26,83.936
53.924,1010.648,102.968
81.984,1007.72,82.716
70.516,1013.576,77.592
78.324,1018.944,57.584
71.736,1019.92,71.004
57.096,1010.404,87.352
41.968,992.348,83.692
72.468,984.052,60.268
68.32,990.396,71.248
31.232,984.296,73.2
13.42,978.196,61.244
17.08,969.412,54.168
41.236,989.176,52.948
50.752,1008.696,63.684
50.996,1013.332,58.56
42.7,1001.864,51.728
52.704,992.348,61.732
36.356,986.98,70.76
49.288,990.396,74.176
30.988,986.736,76.616
21.716,984.296,68.076
0.0,986.492,62.22
14.64,993.812,46.36
23.18,991.86,42.456
32.452,990.64,27.084
25.376,985.76,26.352
20.74,979.416,36.844
10.736,968.68,37.82
-9.028,960.384,44.896
-14.64,963.068,47.092
-21.228,971.852,43.432
-19.764,978.196,29.28
-5.856,989.42,10.004
14.396,1006.012,19.032
28.792,1011.38,23.424
37.576,1012.112,30.744
33.184,1006.256,44.896
31.476,1006.256,49.044
33.184,1006.5,53.924
34.16,995.52,51.972
24.644,990.64,55.876
11.712,989.176,49.776
28.06,994.3,41.724
23.668,996.252,45.872
13.42,994.3,42.7
13.42,988.932,39.04
11.468,988.2,39.04
25.62,988.688,36.6
9.76,991.128,49.288
17.812,987.468,42.456
13.908,984.296,48.8
-4.88,982.588,52.46
-15.372,979.66,44.896
-8.296,979.66,32.94
-11.712,985.272,35.38
-44.896,991.616,37.332
-85.156,996.252,47.58
-201.544,1001.376,54.412
-260.104,986.98,59.78
-76.86,1009.916,57.34
38.308,1058.96,-9.76
-46.604,1119.716,-75.884
31.476,1109.956,-119.316
339.404,1004.304,-61.244
724.924,912.316,243.756
553.148,615.368,371.612
477.264,-12.688,336.964
554.368,-118.34,375.516
524.844,-336.232,530.944
670.756,-654.408,332.816
951.356,-689.788,362.34
670.512,-629.764,541.924
382.592,-518.988,415.776
65.392,-364.292,153.964
-179.096,-280.844,113.216
-266.692,-68.32,10.248
-281.576,95.892,-109.8
-55.388,111.02,-213.256
150.06,8.784,-212.768
207.644,-98.576,-158.844
264.252,-275.232,-99.796
475.556,-539.24,-128.588
898.408,-688.08,-326.96
1197.796,-885.232,-425.78
1241.228,-1084.824,-361.608
1367.62,-1213.168,-449.204
1861.72,-1172.176,-525.576
2212.348,-1039.928,-686.86
2159.4,-937.692,-715.652
2094.008,-967.948,-615.856
2188.68,-1009.916,-616.588
2308.972,-1074.576,-379.42
2367.288,-1169.98,-30.988
2431.948,-1295.884,266.448
2444.636,-1395.436,476.288
2368.02,-1366.4,593.164
2135.488,-1295.152,726.632
1907.836,-1359.568,932.08
1903.688,-1470.1,939.4
1802.672,-1428.132,767.38
1587.22,-1266.604,600.24
1315.892,-1203.652,595.116
1175.592,-1166.076,571.692
1186.084,-1066.524,350.628
955.748,-1019.432,324.52
462.38,-1038.952,451.4
130.052,-912.804,285.968
-204.96,-678.32,-13.908
-579.988,-496.54,49.288
-812.52,-428.464,62.22
-765.184,-253.516,33.428
-321.104,-73.444,81.984
142.008,19.52,128.832
142.008,164.7,-52.216
97.844,306.22,-128.344
150.548,500.444,-160.308
729.316,797.88,-14.152
1133.868,740.54,-22.936
1118.496,747.86,-28.304
1026.996,793.0,-114.68
869.372,849.364,-126.636
475.8,1118.008,2.44
375.76,1029.68,87.84
170.556,943.06,214.232
-37.576,835.7,353.8
-310.856,698.816,391.376
-403.82,635.864,343.796
-409.432,652.212,259.128
-446.032,690.764,318.664
-335.988,738.832,251.808
-213.988,822.524,130.052
-157.38,929.396,55.876
-149.084,998.204,61.732
-163.236,1006.012,102.236
-192.76,1002.352,129.564
-228.384,988.444,113.948
-224.48,974.536,129.808
-251.32,959.896,145.18
-315.004,956.48,151.524
-239.364,946.964,137.86
-147.864,959.896,122.0
-157.38,978.196,132.492
-171.288,970.876,155.184
-121.756,956.724,144.692
-93.452,965.752,150.06
-130.052,971.608,183.732
-166.652,956.968,181.536
-151.524,954.772,141.764
-182.756,973.316,144.936
-122.488,995.52,106.872
-155.916,988.2,126.148
-137.128,976.976,97.844
-136.64,973.072,103.212
-155.672,963.8,117.852
-157.624,952.332,137.372
-124.928,955.748,133.956
-146.156,964.776,139.812
-134.932,968.68,118.828
-163.968,973.804,114.68
-144.448,986.736,98.088
-136.884,977.464,126.148
-119.072,971.852,108.336
-115.168,978.684,100.528
-116.388,997.96,102.968
-102.724,1016.992,109.312
-120.536,1008.208,131.028
-131.516,984.784,132.736
-142.008,970.388,121.756
-141.52,962.092,140.056
-108.092,957.456,149.816
-64.66,961.116,127.124
-98.088,966.972,130.052
-79.788,974.048,109.068
-99.308,975.268,107.848
-118.096,971.364,128.832
-126.88,963.8,117.608
-122.0,962.336,109.556
-115.9,968.192,98.82
-122.0,974.292,104.432
-125.416,977.952,106.14
-97.112,976.976,118.828
-100.04,973.072,145.18
-119.804,963.068,149.328
-119.316,953.308,151.036
-87.352,950.38,160.064
-79.3,963.556,182.756
-49.044,967.216,196.42
-58.072,960.384,216.428
-76.616,956.724,228.14
-95.16,960.872,265.472
-75.64,962.092,271.572
-58.56,961.36,264.74
-53.436,966.484,264.252
-30.744,988.932,262.788
-28.06,1021.14,274.988
-21.228,1029.436,282.552
-27.816,1038.952,286.7
-35.624,1043.1,290.36
-33.672,1053.104,283.772
-15.616,1057.008,266.448
23.668,1062.376,239.12
-22.448,1070.184,248.392
-61.0,1073.844,269.132
1.464,1074.088,257.176
58.804,1070.916,273.28
47.58,1053.104,316.468
38.796,1006.744,329.156
61.976,968.192,311.1
69.052,943.06,294.508
71.492,940.132,268.156
16.592,931.836,235.46
-25.864,918.416,192.516
-96.868,886.452,173.24
-30.012,872.788,62.464
-0.488,897.92,-1.708
-107.848,940.376,19.032
-107.848,941.84,8.052
-127.856,914.024,21.96
-103.944,905.728,-12.444
-127.124,901.824,-2.44
-107.36,905.728,7.808
-122.976,900.36,12.688
-122.244,904.02,-2.44
-121.268,924.272,-9.516
-122.976,950.38,-11.956
-132.98,973.804,-7.564
-110.532,978.196,-22.936
-100.04,977.952,-5.124
-111.996,960.872,12.444
-136.884,956.968,28.304
-134.444,971.364,21.228
-122.0,986.736,37.82
-131.028,999.424,48.8
-107.604,1001.132,54.412
-72.956,1000.156,59.292
-68.076,1004.304,82.228
-41.968,1008.94,72.224
-32.696,1008.94,94.184
-46.604,998.448,108.336
-62.464,988.932,109.312
-66.368,993.568,97.356
-74.664,1009.184,81.496
-55.144,1028.216,81.008
-49.776,1026.752,89.548
-67.1,1011.624,99.796
-73.688,991.372,110.776
-70.028,986.492,113.216
-63.928,983.808,114.68
-65.148,984.54,110.044
-57.584,982.1,104.188
-70.028,982.832,109.8
-73.444,986.248,110.776
-63.44,986.736,116.876
-57.828,986.98,110.044
-67.1,978.928,109.8
-75.396,970.632,119.316
-63.196,965.996,118.34
-69.052,967.948,120.536
-71.004,967.216,123.952
-59.292,967.216,120.048
-68.808,968.436,113.948
-79.544,969.168,119.316
-71.736,974.292,110.044
-67.344,971.852,106.384
-81.008,969.412,118.34
-75.884,962.824,121.024
-66.368,965.752,115.656
-51.728,977.708,90.768
-37.332,997.472,88.084
-28.792,1006.5,91.744
-32.696,1012.6,92.964
-47.092,1000.4,107.848
-62.22,991.616,113.948
-80.032,987.224,127.368
-118.584,986.004,158.6
-103.456,996.496,142.008
-111.264,1011.136,106.872
-121.024,981.368,115.412
3.416,952.332,36.844
261.324,963.068,-15.86
220.088,914.512,-82.472
466.284,814.96,58.804
564.86,625.86,352.092
455.548,273.28,427.0
437.248,-285.48,304.512
555.1,-420.168,250.344
457.988,-257.664,239.12
302.804,-240.584,311.1
54.168,-339.404,416.752
-56.608,-457.256,308.416
-315.736,-536.312,117.364
-231.312,-425.292,108.58
-104.188,-214.232,18.3
66.856,-99.064,-169.58
376.98,-177.632,-264.496
597.312,-334.768,-260.592
939.4,-477.02,-223.016
1142.408,-693.936,-233.996
1443.504,-849.608,-402.6
1808.772,-1038.952,-487.512
1875.628,-1125.572,-454.328
2197.952,-1106.052,-488.732
2475.868,-1092.388,-516.06
2608.116,-1026.02,-563.396
2387.052,-933.3,-430.904
2062.776,-918.66,-319.64
1994.456,-1033.096,-203.496
1997.384,-1154.12,-29.036
1933.7,-1223.904,142.984
1873.432,-1241.472,325.008
1999.58,-1359.08,622.688
2414.868,-1551.108,848.144
2238.7,-1874.408,1015.528
1671.4,-2036.424,1189.5
1243.912,-1939.556,1187.792
862.296,-1741.184,992.592
592.432,-1380.308,717.848
427.244,-1005.036,456.036
199.348,-772.504,316.956
143.716,-617.076,37.576
-44.408,-383.324,-244.976
-217.404,-244.244,-185.684
-299.144,-176.656,-96.136
-139.568,-119.804,-67.344
-23.912,-121.756,-11.224
-157.136,-13.664,-23.912
330.864,241.072,-20.496
626.104,382.104,3.904
808.616,425.292,132.736
586.088,326.472,167.628
320.616,323.3,210.572
667.096,519.72,242.536
1099.22,618.784,228.384
1336.144,639.28,198.372
1099.464,565.104,249.124
791.048,595.36,311.832
586.332,640.256,320.128
527.772,643.672,210.328
560.224,727.852,79.3
545.34,781.044,80.52
449.448,821.792,152.988
233.752,803.248,238.144
-159.088,769.576,291.58
-371.368,754.936,287.676
-478.728,714.92,371.856
-473.116,681.492,337.94
-478.972,725.168,257.908
-430.416,816.18,177.144
-452.864,882.792,181.292
-361.852,921.832,132.248
-308.172,958.188,84.18
-228.872,997.96,39.284
-234.484,1034.804,81.984
-257.664,1038.22,155.428
-256.2,984.296,163.724
-241.316,958.432,133.224
-293.776,947.94,183.976
-278.404,933.3,220.576
-239.364,909.632,188.124
-225.944,913.292,150.548
-248.88,932.568,178.12
-203.984,937.692,175.68
-194.956,935.008,160.552
-217.16,936.716,151.036
-245.22,956.968,165.92
-216.184,971.12,129.32
-213.5,997.96,125.66
-221.308,990.396,154.208
-226.676,977.464,149.816
-204.228,969.412,150.548
-206.18,963.556,172.752
-201.788,961.36,168.604
-218.624,958.676,175.436
-214.476,945.256,170.068
-155.916,956.236,132.736
-165.188,976.732,157.38
-166.896,972.34,157.624
-190.564,953.796,164.944
-206.18,940.376,172.996
-218.624,938.668,163.48
-211.548,942.328,163.236
-221.796,940.864,163.48
-200.568,951.6,146.644
-216.428,955.992,170.068
-237.168,949.892,185.44
-239.12,938.424,168.36
-220.576,941.108,163.968
-209.596,942.084,180.072
-178.364,948.428,178.12
-200.08,945.012,204.96
-207.644,925.248,206.424
-209.596,918.172,184.708
-200.324,929.64,183.244
-193.98,941.596,175.192
-177.876,950.136,171.532
-186.172,952.576,171.044
-196.42,943.06,164.7
-210.084,939.156,169.824
-196.908,942.328,169.824
-187.88,948.184,181.048
-190.808,945.988,187.88
-170.8,949.892,181.78
-187.392,959.164,181.78
-185.196,967.704,166.164
-191.54,965.508,166.652
-180.804,957.944,158.356
-191.296,949.404,159.088
-205.936,941.352,170.068
-211.304,927.2,162.504
-211.06,929.396,165.432
-185.196,937.448,168.604
-201.056,947.208,185.684
-183.0,948.184,177.876
-161.284,965.02,171.288
-143.96,981.124,193.492
-135.664,973.316,216.916
-102.724,958.432,216.916
-117.608,958.92,242.78
-121.024,958.432,270.596
-126.636,959.408,289.628
-108.824,948.428,297.436
-83.936,948.428,311.344
-87.108,945.012,341.356
-98.576,925.248,351.604
-100.04,894.016,334.28
-25.864,887.672,292.068
44.164,909.632,266.448
9.76,927.932,270.108
-9.272,925.98,255.224
15.128,925.004,251.076
44.896,931.592,211.304
29.036,939.888,191.784
33.672,947.696,181.292
27.816,933.788,168.36
40.26,924.516,155.672
72.712,937.692,126.636
32.452,979.66,119.56
22.692,1011.136,81.74
27.328,1034.56,40.016
-37.088,1038.22,35.868
-46.116,1048.712,13.42
-63.44,1051.64,4.636
-81.496,1058.96,-30.988
-88.328,1077.748,-103.944
-131.272,1088.484,-120.78
-174.216,1076.528,-132.004
-186.66,1058.716,-138.104
-182.268,1046.516,-154.452
-202.52,1039.928,-131.272
-188.856,1028.216,-117.364
-166.408,1018.7,-113.704
-163.48,1015.528,-111.996
-128.344,1017.48,-127.368
-102.968,1017.724,-110.044
-105.408,1005.524,-74.176
-141.276,980.88,-50.996
-110.776,966.728,-49.288
-108.824,955.748,-8.052
-127.612,947.94,7.32
-116.876,939.644,8.052
-96.38,941.596,46.116
-92.476,942.572,72.224
-100.528,942.328,91.256
-90.036,939.888,88.328
-76.372,949.892,89.304
-79.544,968.68,89.792
-70.028,989.664,86.864
-56.364,1004.06,73.688
-59.536,1013.576,72.956
-56.364,1017.724,69.296
-56.364,1020.652,68.808
-75.152,1012.356,69.784
-81.74,995.032,71.98
-101.26,989.908,63.684
-98.576,992.836,54.9
-100.284,1004.792,67.344
-104.432,1009.916,70.272
-109.068,1007.964,70.272
-113.704,1001.62,86.864
-113.948,991.372,91.744
-94.916,986.98,99.308
-88.084,984.052,105.408
-102.724,979.416,94.428
-76.86,978.44,91.012
-70.76,975.268,98.332
-77.836,966.24,101.504
-82.716,957.944,113.704
-101.748,948.428,130.54
-97.356,949.892,137.372
-118.584,954.772,151.524
-167.872,970.388,161.284
-276.94,975.268,179.828
-286.212,976.732,167.384
-22.448,1021.628,96.624
-173.728,1027.24,134.688
-276.696,976.732,180.56
-11.956,895.236,120.78
219.6,843.508,39.772
602.924,871.568,5.124
724.436,858.148,88.328
795.44,742.492,214.964
862.784,534.604,226.188
795.44,85.156,260.836
841.556,-246.44,275.232
942.572,-257.176,250.1
1025.044,-114.68,172.02
623.42,-26.108,259.372
-41.48,-128.832,361.364
-292.8,-210.328,305.244
-107.848,-230.336,77.348
87.108,-232.044,73.688
282.552,-176.412,63.44
352.336,-145.912,-9.76
228.628,-149.572,-42.944
78.568,-208.132,11.468
27.084,-328.668,40.016
156.892,-531.432,-2.928
373.808,-746.152,-124.684
440.908,-881.328,-275.476
706.624,-893.528,-414.068
989.908,-946.72,-437.98
1215.852,-1020.652,-485.316
1515.484,-1137.528,-554.612
1873.432,-1250.256,-577.304
2190.388,-1276.12,-589.26
2273.836,-1290.516,-512.156
2253.34,-1256.844,-419.192
2180.872,-1219.024,-285.48
2131.34,-1237.568,-183.488
2113.04,-1262.7,-80.032
2091.324,-1254.892,17.812
1993.724,-1252.696,143.472
1818.288,-1303.204,259.128
1812.676,-1282.22,349.408
1674.328,-1320.772,481.412
1508.164,-1386.652,565.836
1509.872,-1413.492,586.576
1501.088,-1431.304,566.812
1537.2,-1376.648,518.5
1532.808,-1283.44,502.64
1477.42,-1253.428,516.06
1173.152,-1291.248,435.54
962.824,-1221.464,408.944
886.452,-1096.292,374.296
628.544,-952.82,273.28
320.86,-719.312,143.472
-96.624,-479.216,118.828
-433.344,-248.88,151.524
-545.34,-155.916,188.612
-536.8,-109.8,99.796
-277.428,-23.912,-30.256
-128.832,20.252,-53.436
-82.472,86.376,-51.24
247.416,203.252,-84.912
648.796,318.908,-31.476
711.992,297.68,146.644
609.756,395.768,34.892
602.68,571.692,-61.488
675.148,625.86,-158.356
515.816,721.752,-175.68
420.9,991.372,-45.384
358.436,844.484,99.552
121.024,911.584,117.364
-33.916,948.672,159.82
-111.752,957.456,210.816
-265.472,946.964,249.612
-302.316,954.04,213.012
-311.1,943.548,165.188
-275.476,944.768,120.78
-328.912,930.128,125.172
-334.036,916.952,114.68
-322.568,929.884,104.92
-368.44,937.936,121.756
-380.64,965.508,100.284
-316.468,984.784,110.776
-314.028,976.244,158.6
-322.568,941.352,135.908
-273.768,925.736,68.32
-299.144,928.42,120.78
-282.308,935.74,148.84
-289.14,928.176,155.916
-209.352,916.464,112.728
-252.54,920.612,162.016
-262.056,928.664,148.352
-191.784,957.944,125.904
-216.916,968.924,138.348
-143.716,987.468,103.944
-189.1,986.004,131.272
-176.412,986.736,122.244
-193.004,977.22,137.128
-181.048,969.412,129.808
-193.736,965.752,147.62
-202.52,953.552,150.304
-220.576,960.628,150.792
-211.792,962.092,155.428
-159.088,961.36,147.864
-156.892,958.92,156.16
-177.144,950.38,178.12
-170.556,945.012,172.508
-202.764,952.088,156.648
-169.824,970.388,151.524
-176.9,971.12,149.816
-161.04,977.708,134.688
-171.288,975.024,132.492
-168.116,979.416,123.708
-148.596,980.88,102.968
-160.308,987.956,118.584
-167.14,979.416,127.124
-179.828,968.68,132.004
-194.956,957.212,135.908
-191.784,953.308,149.328
-192.516,948.428,156.892
-171.532,955.26,153.964
-172.508,953.064,167.872
-167.872,947.696,178.852
-167.872,936.96,200.324
-160.064,927.932,216.672
-142.008,930.372,207.4
-131.272,945.744,219.356
-147.864,959.408,234.972
-121.024,969.656,221.308
-117.364,975.268,232.532
-88.572,967.46,230.58
-80.276,964.532,242.536
-104.92,956.48,255.224
-110.288,944.768,233.996
-87.108,948.184,208.62
-50.264,979.172,190.564
-50.752,1003.572,198.86
-74.664,1010.404,193.736
-103.212,1008.208,171.776
-50.996,1018.944,146.644
-30.988,1028.948,157.868
-44.408,1023.092,164.456
-39.284,1010.892,151.28
-52.704,997.472,144.204
-66.124,984.784,148.108
-33.184,986.248,128.1
-24.644,990.396,107.36
-22.936,1002.108,101.26
-65.148,1005.768,103.7
-68.076,1003.084,76.372
-53.68,1005.28,66.124
-55.876,995.52,58.804
-47.092,993.812,23.912
-23.668,996.008,-8.296
-43.92,998.936,-2.44
-67.832,987.712,2.684
-49.288,967.948,-10.98
-67.832,952.82,-10.98
-61.488,939.4,0.732
-71.004,930.616,-7.808
-91.256,931.104,-23.424
-113.948,932.568,-5.368
-104.188,935.984,-13.42
-91.744,950.38,-14.64
-77.592,965.02,0.732
-98.088,969.412,5.612
-101.748,981.124,-12.688
-92.72,999.912,-11.712
-112.484,1014.552,5.612
-99.064,1020.896,26.596
-119.072,1016.016,42.944
-116.632,1012.844,56.12
-101.748,1006.012,79.544
-107.116,996.74,71.248
-98.332,993.324,71.492
-90.036,998.448,91.012
-99.064,997.716,89.304
-75.64,997.228,87.596
-73.932,983.808,102.236
-84.912,976.0,108.336
-112.24,969.656,88.328
-88.572,975.756,79.544
-95.648,978.684,93.208
-97.356,973.56,95.16
-104.432,964.288,99.552
-124.684,960.14,102.236
-126.88,963.556,97.6
-102.724,981.612,85.644
-107.36,990.396,97.356
-92.476,986.248,105.896
-82.716,979.904,111.264
-98.088,983.564,111.02
-88.572,986.736,113.46
-90.036,986.492,112.972
-91.256,986.736,108.092
-92.964,991.128,111.996
-98.088,992.104,121.756
-83.448,992.836,101.504
-80.032,997.472,102.236
-83.204,1000.4,111.508
-82.472,995.032,106.872
-99.796,983.076,111.264
-91.744,975.512,108.336
-87.596,973.804,110.288
-100.772,971.364,106.384
-93.452,975.024,103.456
-89.548,974.536,107.604
-111.508,965.996,122.244
-107.116,960.628,112.484
-112.972,957.212,114.436
-117.852,965.264,116.876
-129.076,974.048,124.928
-143.472,997.228,129.564
-189.588,998.204,161.284
-179.828,990.152,161.772
-186.172,969.656,178.608
-318.176,944.524,223.992
-445.544,880.352,166.652
-295.728,836.92,33.916
-85.156,818.864,-57.096
370.636,877.424,-110.532
833.26,1011.868,15.616
652.7,924.516,191.784
290.604,427.0,438.468
367.22,-548.512,272.304
974.292,-572.912,191.296
1100.196,-401.624,313.052
715.652,-396.988,693.204
516.548,-376.98,477.996
203.252,-472.14,335.5
77.592,-485.804,216.916
142.496,-348.676,109.312
139.568,-236.436,112.24
33.184,-195.688,72.468
-69.296,-178.364,-47.092
-159.332,-264.252,-37.088
-172.264,-352.58,2.684
96.624,-407.724,-52.46
407.724,-505.812,-93.452
564.372,-708.088,-161.528
700.28,-892.552,-193.98
891.576,-1036.756,-189.344
1118.252,-1109.224,-250.1
1337.852,-1150.216,-365.512
1357.372,-1217.316,-428.22
1700.192,-1207.068,-495.076
1958.588,-1186.084,-525.332
2043.256,-1172.42,-528.748
2157.692,-1126.06,-546.072
2218.448,-1120.204,-508.252
2235.284,-1153.876,-457.5
2170.624,-1173.884,-319.64
2097.668,-1185.596,-181.048
2012.268,-1169.98,-71.248
2050.088,-1207.8,75.884
1950.78,-1325.164,253.516
1829.268,-1499.136,425.048
1639.192,-1596.248,526.308
1557.696,-1579.9,620.98
1500.844,-1556.232,702.964
1463.268,-1544.52,765.184
1311.256,-1573.312,767.38
1167.784,-1562.82,736.636
1032.12,-1486.204,641.964
749.08,-1372.988,535.336
410.164,-1165.832,377.468
218.136,-918.416,228.872
112.972,-691.008,164.944
151.036,-529.48,79.788
342.576,-408.944,0.0
401.38,-352.824,-50.752
340.868,-349.408,-25.864
135.664,-345.504,-64.172
14.884,-212.036,-120.78
367.464,30.5,61.488
645.38,123.708,111.02
775.92,254.98,76.128
616.344,125.172,62.22
442.128,132.004,43.92
195.688,256.688,50.996
156.404,353.068,41.48
149.328,459.696,-69.784
75.64,604.388,-53.192
61.976,598.776,88.328
-153.232,623.664,333.792
-709.796,699.548,464.576
-624.884,596.336,305.732
-768.356,539.484,202.032
-841.556,663.436,124.196
-793.732,712.968,57.584
-643.916,786.168,-68.808
-503.372,841.8,-177.632
-468.48,890.6,-146.156
-383.324,936.228,-102.48
-402.6,925.248,-10.248
-388.448,895.48,35.624
-418.46,854.732,53.436
-472.384,850.828,81.008
-439.2,871.08,110.532
-397.964,890.112,126.148
-376.736,911.584,128.344
-363.316,941.352,122.976
-303.048,991.128,112.484
-277.916,1016.016,143.96
-249.612,1007.964,142.252
-276.452,969.168,150.304
-317.688,948.672,163.724
-325.496,939.644,167.628
-233.02,934.764,141.764
-227.652,940.62,167.14
-243.024,941.596,183.244
-202.52,945.744,162.504
-211.548,944.524,185.684
-240.828,936.472,196.664
-206.912,912.56,175.192
-213.256,925.736,151.524
-258.396,942.084,173.24
-251.076,953.064,143.716
-237.168,959.408,138.592
-243.268,985.028,135.42
-257.908,980.392,145.18
-250.344,966.972,139.08
-229.116,954.284,129.32
-236.436,952.576,141.764
-241.316,951.112,143.228
-242.536,940.62,152.988
-243.756,921.344,159.088
-229.604,907.68,138.104
-239.12,917.684,130.052
-233.264,943.06,119.316
-204.472,973.804,102.724
-202.52,993.08,117.852
-226.188,983.564,148.84
-234.728,960.628,157.38
-239.608,938.668,162.016
-228.14,929.152,162.748
-231.312,934.276,173.972
-201.3,937.448,158.6
-204.96,940.864,159.576
-203.984,952.576,155.916
-209.596,959.164,136.884
-224.48,960.628,134.2
-205.204,963.068,123.464
-200.812,965.264,128.832
-207.888,962.336,138.836
-214.964,946.232,157.136
-213.012,932.08,170.312
-202.52,930.86,159.576
-196.908,938.424,155.916
-192.516,963.8,139.812
-195.932,978.196,141.764
-203.252,983.076,130.784
-222.284,975.268,136.396
-214.964,966.24,142.984
-229.36,954.04,164.944
-232.044,944.524,180.072
-229.604,933.788,201.788
-206.18,929.152,213.744
-198.128,932.812,234.728
-191.54,931.348,256.2
-190.076,922.808,270.84
-199.348,912.072,284.016
-192.76,906.948,279.624
-188.368,911.584,282.064
-203.984,915.732,278.404
-185.196,922.32,265.716
-210.572,929.396,266.204
-223.504,929.884,251.808
-176.412,931.104,228.14
-195.444,941.352,235.704
-201.544,942.816,238.876
-153.476,955.748,221.308
-121.756,974.536,228.384
-96.38,989.42,230.824
-77.592,986.248,222.772
-19.764,986.248,197.152
-28.06,1002.596,206.424
-20.984,1015.528,207.156
-8.296,1010.404,205.204
-38.796,1014.796,182.756
-46.848,1016.504,171.532
-66.612,1009.916,168.116
-94.184,1002.596,147.62
-131.516,994.544,146.888
-109.068,990.884,107.116
-124.44,1017.968,96.868
-158.356,1033.34,81.008
-130.052,1035.292,70.516
-114.68,1002.84,82.96
-74.42,982.832,42.456
-30.988,990.396,47.336
-65.148,995.52,87.352
-50.264,1003.328,63.44
-22.936,1007.232,64.172
-12.688,999.912,88.816
-41.724,975.024,97.6
-105.652,955.992,97.356
-128.344,947.696,85.888
-137.128,935.252,76.372
-107.36,934.276,25.62
-122.976,953.308,16.104
-146.4,960.628,20.008
-125.172,968.436,-4.88
-127.368,973.56,12.2
-148.352,973.072,34.892
-139.568,968.924,46.848
-159.576,967.704,62.708
-167.628,973.804,77.104
-173.972,970.388,104.676
-169.092,967.216,126.636
-160.308,961.848,132.98
-133.956,957.212,118.828
-136.884,955.504,121.756
-111.02,966.728,120.78
-103.456,966.24,131.028
-101.504,961.36,130.54
-108.58,962.092,137.128
-132.98,965.508,146.4
-141.032,957.944,149.572
-152.988,948.672,145.424
-125.416,955.016,133.712
-109.556,968.68,137.128
-119.316,979.904,145.18
-123.22,974.536,144.448
-112.24,973.804,143.96
-103.456,972.096,149.084
-90.768,976.488,154.208
-92.476,969.9,162.26
-103.456,959.896,159.82
-114.924,959.408,161.772
-110.288,966.728,165.92
-83.448,982.344,153.964
-96.38,997.472,165.432
-90.036,1007.964,159.332
-71.736,1005.524,165.92
-95.16,1003.572,172.264
-143.228,1006.5,191.784
-198.128,1009.916,200.08
-259.616,1012.112,170.068
-357.216,972.584,172.02
-296.948,912.072,133.956
-35.868,881.816,81.496
68.076,844.972,108.824
175.68,828.868,115.412
451.4,746.396,47.58
487.024,628.788,211.792
642.94,416.996,290.604
665.144,182.024,250.832
838.628,-146.4,181.536
1078.724,27.084,111.752
917.684,-54.168,316.224
769.332,-125.904,605.364
640.256,-268.156,546.804
227.164,-481.9,391.864
-212.28,-588.284,272.304
-54.656,-446.032,111.752
200.812,-272.06,-11.956
201.788,-74.42,-78.568
-153.964,-42.212,-78.568
-385.764,-81.984,51.484
-60.024,-106.384,-49.532
243.512,-337.696,-156.404
356.484,-660.264,-102.236
539.24,-866.444,-120.536
873.032,-962.824,-238.632
1165.588,-962.092,-359.168
1489.864,-1006.988,-447.984
1646.268,-1053.836,-429.44
1734.84,-1071.404,-414.8
2020.076,-1084.824,-415.776
2370.216,-1061.888,-482.144
2523.448,-1000.4,-489.952
2498.072,-991.86,-390.888
2386.076,-943.304,-328.668
2348.256,-900.36,-300.12
2177.456,-899.384,-196.664
1986.16,-969.168,-60.024
1926.136,-1004.304,68.32
1865.38,-1080.188,228.872
1975.912,-1193.404,317.444
1982.012,-1311.5,451.644
1843.908,-1463.756,639.524
1651.392,-1499.136,724.924
1578.436,-1473.76,721.508
1508.164,-1429.84,706.868
1341.512,-1401.78,708.088
1157.78,-1389.824,678.32
1090.436,-1309.548,578.28
905.728,-1178.764,398.696
593.652,-984.052,242.292
400.404,-829.6,199.592
5.856,-688.568,171.288
-211.304,-523.38,36.112
-270.352,-362.584,-86.62
-270.352,-222.284,-113.948
-234.484,-98.332,-151.28
-126.392,-11.468,-183.244
108.336,67.344,-77.348
511.424,114.436,19.276
506.056,69.052,-21.472
342.82,61.244,49.776
185.196,366.0,250.1
424.56,582.184,170.068
788.852,695.888,41.48
850.096,624.152,-120.536
613.172,705.892,19.764
183.732,749.08,169.336
46.116,827.892,54.9
64.904,958.676,49.044
-5.612,986.98,324.764
-88.328,922.564,354.776
-254.98,864.248,253.516
-549.0,797.636,325.74
-663.68,793.488,394.06
-574.132,777.384,307.928
-484.34,819.84,238.876
-445.544,881.328,187.88
-392.108,931.836,152.744
-374.54,955.016,184.952
-309.636,948.184,187.392
-246.684,943.792,145.912
-246.44,940.132,210.328
-236.192,945.5,205.936
-252.296,928.42,245.708
-215.452,939.156,179.34
-297.436,944.036,198.128
-242.048,941.108,174.46
-252.296,962.58,133.224
-285.48,956.724,147.376
-206.424,945.5,113.216
-277.672,955.016,131.76
-284.504,951.844,140.544
-269.376,941.352,142.74
-215.696,939.4,122.732
-217.648,941.596,165.188
-198.616,936.96,168.848
-213.988,925.98,191.296
-248.88,943.548,201.788
-264.496,928.664,189.832
-229.604,937.936,171.776
-246.196,961.604,176.168
-243.756,965.508,182.756
-230.824,957.456,181.292
-224.236,953.552,195.2
-226.92,947.94,205.936
-203.74,941.596,203.984
-199.836,932.568,192.76
-194.468,938.18,188.856
-207.888,942.084,207.156
-180.316,939.888,188.124
-166.164,944.036,175.436
-193.004,950.136,182.756
-176.168,955.504,159.576
-215.452,959.408,173.972
-206.668,961.604,174.46
-213.5,956.236,181.78
-204.228,953.308,178.608
-215.696,945.988,190.076
-208.132,941.352,189.588
-174.704,943.06,179.584
-149.084,962.58,175.924
-180.316,968.436,178.852
-198.128,962.336,169.824
-213.012,955.992,173.972
-199.104,950.624,170.8
-181.536,946.476,160.308
-188.612,953.796,166.408
-188.856,960.872,153.964
-185.684,968.68,146.156
-173.728,976.976,154.696
-176.656,979.904,159.088
-162.748,968.924,157.38
-163.724,960.14,169.824
-159.82,956.968,172.508
-168.604,961.116,183.976
-161.772,964.044,187.148
-178.364,960.628,192.76
-182.268,948.916,192.516
-188.368,936.716,195.444
-189.588,933.788,209.352
-184.22,933.788,232.044
-180.316,945.744,258.64
-158.844,956.236,269.132
-154.452,962.824,290.848
-179.34,963.556,311.344
-187.636,949.892,332.328
-159.82,927.2,342.576
-132.248,911.096,340.624
-147.864,893.772,355.02
-137.128,878.4,355.996
-125.66,875.716,359.168
-123.22,882.548,363.316
-95.16,897.92,343.552
-53.192,913.536,312.808
-33.184,936.96,285.48
-31.476,952.82,267.912
-22.936,955.504,253.272
-36.112,953.064,250.1
-46.848,947.696,238.144
-81.74,959.408,220.576
-41.724,983.808,192.516
-2.196,1013.088,167.14
-26.84,1028.948,161.528
-11.224,1027.24,111.996
-25.132,1036.512,107.36
-21.716,1045.54,96.624
-18.3,1033.828,95.648
-15.128,1019.432,89.792
-68.076,1000.888,103.944
-85.156,989.908,93.208
-71.248,986.492,79.3
-77.836,992.836,77.348
-76.128,999.668,76.616
-67.344,1001.132,81.984
-68.076,999.912,78.812
-60.268,1006.012,73.688
-55.632,1007.964,62.464
-39.284,1011.868,46.604
-72.712,1002.352,62.464
-82.472,985.028,65.392
-107.848,963.312,79.3
-92.232,951.112,67.588
-101.016,945.988,73.688
-117.364,947.696,62.952
-125.904,951.6,52.46
-121.756,962.58,61.488
-126.88,965.264,71.004
-103.212,968.436,77.592
-84.912,973.56,86.376
-97.844,975.512,107.36
-92.964,973.316,114.924
-84.912,975.756,120.048
-81.496,982.832,120.78
-75.64,994.3,128.588
-72.468,1000.4,136.152
-74.42,997.472,143.96
-72.468,992.592,141.276
-68.564,993.324,142.74
-70.028,998.204,150.792
-74.176,994.056,162.016
-78.324,984.54,161.284
-68.32,976.244,162.992
-49.776,976.976,161.284
-52.704,975.512,175.924
-69.052,965.996,180.804
-66.368,963.556,179.34
-68.564,966.972,198.372
-67.832,963.8,196.42
-79.788,962.092,183.732
-74.176,971.12,163.48
-61.0,980.392,157.624
-59.536,981.368,168.36
-73.2,975.268,173.972
-97.112,961.604,167.14
-89.06,950.38,160.308
-73.932,948.672,165.92
-58.072,945.256,163.968
-61.976,944.524,156.16
-64.416,948.184,161.772
-71.98,953.064,165.188
-61.244,964.776,151.036
-42.7,975.268,151.524
-57.828,980.88,152.5
-79.544,980.392,154.696
-88.816,982.832,154.94
-93.94,985.028,166.164
-79.3,997.228,167.384
-82.228,1013.82,166.164
-75.396,1046.516,154.94
-119.804,1081.408,141.276
-240.828,1063.596,170.068
-176.9,1021.628,191.052
-12.444,923.784,130.052
153.964,796.416,90.28
304.512,690.032,13.42
439.444,607.072,113.704
325.008,413.092,503.372
380.64,228.14,716.628
572.424,-289.628,292.312
878.156,-273.036,43.676
637.084,-51.484,171.532
512.156,-33.916,278.16
381.616,-152.012,399.672
110.044,-327.692,308.416
256.444,-421.632,139.812
377.224,-336.72,64.904
325.252,-168.36,-7.564
34.892,-138.348,115.412
-366.0,-252.54,149.328
-358.436,-302.316,-70.516
-13.664,-472.384,-281.576
276.94,-817.156,-240.584
444.08,-1132.16,-203.984
631.228,-1298.08,-307.44
1048.712,-1302.228,-469.212
1616.5,-1193.16,-540.704
1831.22,-1226.1,-506.056
1976.888,-1252.696,-540.704
2133.048,-1294.664,-591.212
2362.164,-1228.784,-548.024
2434.876,-1076.04,-502.396
2380.708,-990.396,-444.568
2422.432,-938.912,-342.576
2545.652,-977.464,-215.94
2428.776,-1098.0,-61.244
2199.904,-1242.448,173.972
2132.072,-1388.848,346.724
2085.468,-1549.888,516.548
2006.168,-1681.16,613.66
1856.596,-1758.02,686.616
1660.908,-1765.584,721.508
1279.78,-1703.364,688.324
927.444,-1538.42,610.488
654.652,-1357.86,494.1
588.528,-1189.988,379.42
485.072,-1090.924,314.516
216.916,-1034.316,255.224
3.904,-921.832,161.772
-126.148,-683.688,-39.04
-220.576,-485.804,-147.132
-346.724,-385.764,-117.852
-350.14,-295.24,-129.564
-231.556,-199.104,-164.7
125.904,-65.88,-148.84
362.828,71.492,-49.776
569.74,141.764,66.124
474.092,142.984,103.7
351.848,220.088,156.648
554.856,481.656,221.064
872.544,574.864,93.94
1023.824,552.172,88.084
847.412,744.2,98.088
767.624,805.2,146.4
411.384,779.336,222.772
223.992,804.468,191.052
235.704,896.212,192.76
174.704,942.816,272.548
16.836,945.744,207.644
-22.448,963.556,89.792
-115.412,1006.988,50.752
-203.984,1050.176,131.272
-152.256,1008.696,118.828
-259.128,950.624,74.908
-380.64,880.108,124.44
-348.432,842.532,125.416
-303.292,831.308,110.288
-303.292,839.116,157.136
-296.704,859.856,153.476
-245.464,865.224,91.256
-232.776,893.528,73.932
-214.232,943.06,78.812
-207.156,968.924,107.604
-187.88,969.656,84.424
-203.496,990.396,55.876
-268.156,996.008,90.28
-260.592,993.324,92.964
-211.548,974.048,93.94
-168.116,963.556,89.792
-147.376,965.508,98.82
-130.54,965.752,116.388
-112.728,970.144,153.232
-124.928,951.356,162.992
-151.524,919.392,175.68
-176.9,909.388,199.592
-179.584,912.56,191.54
-143.96,931.592,145.668
-148.596,962.336,137.86
-130.052,1000.156,127.612
-137.86,1017.236,123.464
-127.612,1012.844,110.044
-133.224,994.3,103.212
-160.796,982.1,104.432
-188.612,964.532,110.776
-168.604,953.308,105.408
-163.968,964.288,114.192
-160.796,978.44,117.364
-145.912,977.708,111.752
-148.84,976.244,124.196
-147.62,972.584,139.812
-150.792,969.656,142.252
-146.156,967.948,135.42
-146.644,967.704,153.476
-139.08,968.68,159.576
-123.464,970.388,161.528
-137.616,970.876,176.412
-122.732,965.996,183.976
-122.732,975.756,206.912
-127.124,980.392,234.24
-118.828,975.268,252.052
-102.724,975.024,280.356
-99.796,960.628,307.44
-100.284,938.668,318.908
-116.144,921.588,334.036
-109.068,915.244,323.3
-101.992,917.196,323.788
-68.808,941.84,315.736
-75.396,955.748,313.54
-78.324,963.312,289.384
-67.1,971.364,260.104
-61.488,981.856,234.728
-46.848,998.204,219.844
-51.484,1009.184,203.74
-39.04,1015.528,178.364
-55.876,1009.916,194.224
-73.688,1002.84,163.724
-74.42,1006.5,138.836
-89.548,1014.308,124.196
-70.028,1032.608,98.576
-101.748,1023.824,109.312
-129.076,993.08,109.556
-150.548,952.088,82.472
-111.264,938.912,34.892
-123.708,954.772,19.276
-108.092,973.316,21.716
-83.936,972.584,28.06
-99.796,957.7,34.648
-59.048,970.144,27.816
-100.04,977.708,57.096
-107.36,976.0,46.116
-112.484,962.336,36.112
-95.404,955.748,29.768
-102.724,965.752,51.728
-101.016,973.316,64.172
-91.012,980.88,71.248
-112.484,982.344,85.4
-102.968,978.196,80.52
-84.668,973.316,80.764
-79.3,969.9,85.644
-79.544,969.412,76.86
-98.82,968.192,75.152
-115.656,974.536,85.4
-127.856,975.024,75.152
-124.928,981.124,66.856
-129.564,986.736,82.472
-117.852,986.248,95.16
-123.464,980.636,103.944
-105.896,977.464,106.14
-120.292,973.56,131.028
-126.392,972.096,127.612
-113.704,973.316,129.076
-101.016,977.952,143.472
-84.18,982.1,162.26
-90.036,980.148,168.604
-93.696,981.612,162.992
-87.84,987.224,161.284
-78.08,987.224,162.016
-67.344,985.028,172.508
-75.152,973.072,181.048
-75.64,962.092,186.172
-71.004,963.556,187.148
-70.028,967.216,185.44
-63.928,967.948,175.924
-72.956,966.24,176.9
-81.984,960.872,182.268
-78.568,955.992,195.2
-67.344,958.676,179.828
-81.74,969.9,174.704
-67.344,984.296,164.7
-62.952,990.64,165.92
-72.956,982.1,167.14
-95.404,973.804,170.312
-88.572,965.264,157.624
-80.764,972.828,156.16
-75.884,979.172,148.108
-75.152,984.784,144.936
-78.324,983.076,146.888
-92.232,972.828,148.596
-107.36,964.532,143.716
-86.376,967.46,146.888
-94.428,969.412,170.312
-87.596,970.876,161.528
-91.744,972.584,154.452
-81.74,980.148,156.16
-80.276,985.76,166.164
-64.172,989.42,152.012
-73.688,980.392,159.82
-88.572,971.852,166.408
-82.472,961.36,164.212
-69.54,963.312,154.696
-90.768,962.336,166.896
-94.916,950.624,163.724
-116.144,940.62,167.872
-139.08,931.104,162.504
-152.5,933.056,176.656
-243.756,927.444,175.192
-276.696,922.564,160.796
-198.616,929.396,157.136
-373.32,890.6,162.748
-360.876,843.02,159.332
-42.944,830.088,39.772
258.64,913.048,-45.14
187.148,890.112,148.352
431.636,765.428,131.272
660.02,640.012,142.008
766.404,564.372,326.716
1092.632,352.336,172.02
1021.14,235.46,202.764
921.832,-51.972,434.808
1165.344,-217.404,442.372
1478.152,-195.688,418.704
1553.548,-221.796,475.8
1303.936,-273.036,548.512
968.192,-258.884,554.124
604.632,-168.848,477.996
518.012,-68.564,407.48
430.904,-151.524,455.548
338.916,-220.088,331.596
17.568,-265.228,170.8
-332.572,-294.996,39.528
-517.524,-289.14,-39.772
-589.992,-213.5,-200.324
-668.316,-183.976,-270.84
-584.624,-295.484,-268.644
-392.84,-535.336,-308.416
-194.712,-788.852,-244.244
250.832,-947.94,-208.62
403.088,-1155.34,-357.216
673.684,-1319.308,-445.3
1198.772,-1382.992,-520.696
1690.676,-1362.74,-673.928
2246.264,-1280.756,-824.476
2574.932,-1212.192,-797.88
2661.064,-1170.956,-701.988
2681.072,-1120.936,-718.58
2530.768,-1077.26,-717.604
2453.42,-992.104,-627.568
2551.508,-992.836,-527.528
2510.76,-1027.24,-417.484
2339.228,-1082.14,-209.84
2236.26,-1220.488,122.0
2202.344,-1330.532,335.744
2148.42,-1448.14,514.108
2030.568,-1569.652,727.12
1928.82,-1681.16,816.912
1889.048,-1680.672,759.328
1665.3,-1639.68,622.688
1435.94,-1462.78,388.448
1251.232,-1231.712,162.504
1063.108,-1153.876,115.9
904.508,-1108.248,106.14
558.272,-992.592,-5.612
205.204,-808.372,-72.224
-30.012,-681.736,25.376
-420.412,-546.316,139.08
-676.124,-358.436,1.708
-507.764,-241.072,-35.136
-310.124,-185.196,-49.532
-266.692,-77.836,-50.752
112.728,121.268,-30.988
450.912,223.26,0.244
290.116,82.96,203.252
279.38,308.66,-271.816
445.544,785.68,-289.628
984.052,866.932,13.908
993.08,834.968,129.564
790.804,865.224,87.84
284.504,867.664,121.756
9.272,916.22,101.26
178.12,931.104,120.292
263.52,897.92,81.496
47.824,931.592,149.816
69.052,905.24,227.896
-45.384,821.304,313.052
-147.864,768.112,238.876
-205.448,763.476,159.332
-322.568,794.952,210.816
-309.88,854.244,195.2
-307.684,930.128,178.608
-253.76,951.356,159.088
-306.708,946.476,181.292
-297.68,947.452,161.284
-211.304,956.236,141.276
-181.048,983.808,167.872
-129.076,1014.308,170.556
-99.308,1022.116,182.024
-113.216,1004.06,194.224
-162.504,978.196,178.12
-168.848,970.144,172.02
-170.068,981.612,160.796
-158.6,987.956,146.156
-128.1,981.856,130.784
-119.316,997.716,147.132
-126.88,984.784,147.864
-160.064,960.872,153.476
-157.868,932.812,166.164
-121.268,916.22,163.968
-135.176,929.884,172.752
-146.644,943.792,167.384
-158.844,951.6,156.404
-142.496,971.12,115.656
-154.452,983.564,130.296
-136.396,986.492,124.196
-138.836,990.152,120.536
-156.404,984.296,150.548
-144.204,974.536,148.108
-131.76,971.364,153.964
-137.372,975.512,184.22
-134.444,971.364,193.736
-155.184,954.04,218.868
-137.128,943.06,214.72
-129.32,934.764,216.428
-137.128,944.036,219.6
-119.072,952.088,201.544
-114.436,974.292,173.972
-117.12,982.344,163.48
-144.448,979.416,151.28
-150.304,968.924,149.328
-153.964,967.704,164.212
-134.444,971.608,188.856
-140.544,977.22,226.676
-161.772,979.172,262.056
-126.392,970.632,287.188
-90.036,964.532,323.544
-86.864,965.996,374.296
-96.868,938.424,404.064
-94.428,906.704,410.652
-65.392,897.188,403.82
-85.156,900.116,407.724
-54.656,910.852,367.464
-66.368,938.668,344.772
-63.196,965.752,327.936
-36.6,998.204,278.892
-6.588,1015.528,238.388
5.368,1018.212,197.64
2.928,1021.628,165.676
5.368,1008.452,139.568
-9.516,994.788,142.74
-2.928,977.22,151.524
30.256,973.072,121.268
103.944,985.76,81.008
70.028,1002.352,76.372
13.42,989.908,77.348
-50.264,973.316,71.736
-93.452,964.044,56.608
-106.872,962.092,57.584
-51.972,955.26,50.752
-13.664,969.168,24.644
-40.016,1004.548,39.04
-30.256,1029.924,49.044
-13.42,1034.316,42.7
16.836,1026.02,34.16
-5.124,1012.356,56.364
-27.328,1004.548,63.196
-17.812,985.028,66.856
19.032,965.996,69.54
35.624,948.184,75.396
40.748,917.44,63.684
-13.42,901.092,40.992
-57.096,921.832,10.248
-61.732,948.428,4.148
-64.904,994.056,-26.352
-68.076,1020.164,-28.548
-64.172,1036.024,-22.204
-69.296,1046.272,7.808
-67.588,1036.756,35.624
-52.948,1017.48,59.048
-72.956,991.86,108.336
-94.184,964.532,131.516
-83.204,956.724,150.304
-78.812,962.336,162.504
-54.9,973.072,164.7
-25.132,987.224,168.116
-18.3,1002.108,177.388
-9.76,999.18,187.88
9.516,998.204,188.124
-13.42,989.908,207.4
-19.032,980.636,209.596
-30.5,975.268,216.184
-39.284,973.316,212.036
-35.868,972.34,213.988
-1.952,973.804,210.572
9.516,968.436,225.212
12.2,966.972,240.584
2.928,954.528,257.42
-16.592,935.496,255.956
-11.224,928.176,240.828
-4.392,931.592,259.128
-5.124,942.572,256.932
-1.952,940.132,251.32
-19.764,941.108,247.66
-15.128,955.504,221.796
-0.488,971.364,212.524
12.2,990.152,204.716
-5.856,997.96,202.764
-9.76,997.96,193.492
1.952,995.52,187.636
-10.98,993.568,195.2
2.928,984.784,191.296
22.692,982.588,182.268
-1.952,989.42,191.784
-21.228,984.54,202.032
-36.112,971.12,200.568
-5.124,960.14,200.568
28.06,970.876,197.64
17.08,974.78,210.572
3.172,965.02,213.256
4.148,952.088,222.528
-11.712,947.94,216.672
28.304,957.944,183.976
58.56,967.948,168.604
47.092,978.684,166.652
65.148,993.08,144.936
41.724,996.252,155.428
8.052,991.86,174.948
-33.184,973.316,200.812
-36.112,955.992,210.328
16.348,956.48,194.468
32.452,959.896,203.74
-77.836,961.604,226.92
-42.7,949.16,160.064
278.404,968.192,30.988
234.484,988.444,78.812
191.296,947.94,78.812
436.76,878.644,30.744
665.876,829.6,-9.516
600.728,788.852,76.128
706.624,697.84,185.196
962.336,566.812,190.564
980.148,476.776,221.796
834.724,367.708,535.58
663.192,122.0,622.444
878.888,17.812,451.644
1275.632,84.424,358.192
1057.984,78.568,452.864
707.6,40.016,478.728
304.512,-39.528,540.948
-66.124,-139.08,451.644
-339.16,-247.904,259.616
-470.432,-344.772,14.396
-365.268,-279.868,-242.048
-372.588,-169.58,-397.232
-484.096,-143.716,-365.756
-372.832,-257.664,-316.956
-111.752,-523.624,-306.464
73.2,-801.296,-213.744
456.768,-989.42,-239.852
683.932,-1232.688,-218.868
1048.712,-1358.836,-232.044
1354.688,-1427.156,-216.672
1674.084,-1438.38,-187.392
2045.94,-1457.656,-83.204
2266.272,-1484.74,-34.404
2538.088,-1504.016,-99.308
2627.148,-1439.6,-175.436
2585.668,-1376.404,-106.628
2520.276,-1345.416,60.024
2611.044,-1281.0,118.828
2815.028,-1197.796,270.84
2767.936,-1307.108,663.436
2866.268,-1666.52,778.848
3004.616,-1917.108,599.752
2716.208,-1951.756,500.2
1939.556,-1897.588,688.324
1837.808,-1777.784,492.88
1642.852,-1576.728,156.648
1027.484,-1474.736,112.24
381.372,-1440.576,325.008
-34.404,-1444.724,404.796
-236.436,-1414.224,386.252
-378.932,-1221.952,331.352
-535.336,-925.248,187.88
-606.828,-623.176,201.3
-774.7,-274.5,-11.712
-281.332,104.432,2.196
369.172,369.172,112.972
682.956,391.62,18.3
722.484,328.912,109.068
992.836,391.864,45.628
1007.964,533.384,13.176
734.44,674.66,24.156
619.028,794.22,-45.14
275.232,796.904,1.22
156.404,755.424,-12.444
-23.668,738.1,-21.472
-359.412,784.704,104.676
-585.112,743.712,317.932
-483.852,597.8,363.56
-484.828,522.404,339.648
-446.276,519.476,323.788
-387.228,545.828,352.58
-410.652,606.096,358.924
-354.532,695.156,297.68
-355.02,795.928,317.932
-354.044,852.78,306.952
-376.492,896.212,231.312
-432.856,915.488,217.404
-364.048,943.06,180.316
-337.208,963.312,200.568
-309.392,954.284,219.844
-326.716,922.32,256.2
-346.48,903.532,254.248
-333.304,927.444,215.696
-341.6,969.656,202.032
-317.932,980.636,201.056
-313.784,968.192,213.744
-287.676,960.14,214.72
-285.968,953.552,224.48
-234.972,941.596,204.472
-250.1,935.008,203.984
-250.832,907.436,231.068
-279.136,878.644,250.344
-291.336,859.368,236.924
-270.596,867.42,214.476
-250.1,902.068,204.716
-241.072,933.544,202.52
-248.636,935.74,214.964
-272.548,924.272,254.004
-279.624,925.248,251.564
-287.188,928.176,250.832
-268.644,921.1,257.664
-250.1,929.884,247.416
-248.148,930.616,250.832
-255.224,926.224,261.812
-272.548,910.852,263.52
-273.768,896.7,266.204
-266.204,901.336,255.224
-256.444,919.636,252.54
-232.776,926.224,249.612
-244.732,918.172,250.588
-256.932,907.192,240.34
-268.156,922.076,230.336
-249.612,936.472,225.456
-244.488,934.52,225.212
-239.852,931.104,229.116
-251.32,933.544,235.948
-241.072,934.276,244.976
-236.924,927.688,262.788
-244.244,920.856,284.992
-252.052,911.096,302.072
-238.876,909.144,310.856
-226.188,894.26,326.472
-182.268,889.38,351.604
-173.484,885.232,413.336
-139.08,881.572,435.54
-123.464,901.336,458.476
-119.316,918.172,462.136
-118.34,926.224,445.544
-122.732,935.008,445.056
-103.456,939.156,431.148
-75.152,948.428,397.476
-80.032,947.696,368.928
-118.828,946.964,347.7
-128.832,950.868,321.348
-178.12,958.432,302.072
-180.072,957.944,243.756
-120.536,973.56,196.176
-157.624,986.492,224.48
-142.008,993.812,205.692
-153.964,987.468,197.152
-145.18,995.764,157.624
-107.36,1022.848,111.02
-127.124,1040.66,111.996
-151.768,1028.948,118.584
-170.556,1002.84,126.636
-140.056,995.52,118.828
-117.12,999.424,105.652
-61.732,996.008,63.44
-43.92,982.588,50.752
-91.256,991.616,69.784
-114.192,1001.864,76.128
-129.076,985.516,65.636
-162.504,969.412,19.032
-148.84,960.872,-33.672
-143.472,955.016,-50.752
-191.052,948.672,-28.06
-205.204,932.812,-10.492
-223.992,920.124,-0.976
-202.032,922.808,3.904
-187.88,936.716,6.344
-186.904,938.912,-13.176
-174.46,940.376,-26.108
-171.776,934.52,-8.296
-185.44,934.52,17.568
-189.344,922.808,15.616
-215.208,922.564,-5.612
-235.46,942.328,-0.488
-226.92,965.02,22.936
-189.344,980.636,27.816
-200.812,987.224,61.0
-193.248,991.372,90.524
-180.072,995.764,97.112
-140.544,1002.84,94.672
-116.876,1011.868,110.776
-115.9,1005.28,137.128
-134.444,984.784,144.204
-143.96,964.044,137.86
-137.86,958.92,151.28
-139.08,961.116,148.596
-154.208,951.356,123.22
-159.088,954.528,89.548
-167.872,971.364,91.012
-150.304,981.368,89.548
-141.764,980.148,89.548
-146.4,971.608,101.26
-157.38,956.724,111.02
-169.824,951.356,103.456
-170.556,957.212,115.412
-135.42,975.756,112.972
-133.224,993.568,120.048
-141.764,993.324,127.856
-132.98,982.832,139.568
-133.468,977.464,128.344
-135.42,980.148,125.172
-128.588,976.244,126.636
-142.252,975.756,113.216
-166.408,969.168,99.796
-163.48,970.876,75.64
-158.356,975.512,68.076
-160.796,984.784,63.44
-179.096,981.368,67.588
-189.832,967.46,72.224
-183.244,965.264,73.688
-167.872,963.312,76.372
-159.576,964.044,83.936
-159.088,958.676,93.94
-150.06,950.624,101.992
-142.984,950.136,108.58
-136.884,955.26,108.824
-121.024,961.604,98.332
-128.832,974.78,104.676
-137.372,983.32,108.336
-137.128,983.076,106.872
-149.816,976.976,119.316
-146.156,971.608,109.068
-142.496,981.124,95.648
-144.204,992.836,91.5
-154.94,994.544,94.184
-160.308,987.712,99.064
-167.872,984.784,107.36
-159.576,975.756,106.14
-182.512,962.336,116.388
-229.604,939.4,162.504
-274.256,924.76,204.716
-281.332,893.528,188.612
-213.5,874.008,132.736
-339.404,887.672,79.056
-238.144,843.264,-59.292
268.644,815.936,-174.216
451.644,813.008,-250.588
469.944,701.256,-242.536
818.132,555.1,-115.168
720.532,288.408,65.88
689.3,-51.484,578.28
976.0,-379.908,421.632
1115.324,-435.296,305.976
1297.592,-157.136,343.308
1357.372,-48.8,496.296
999.912,-90.768,488.0
566.08,-133.468,391.376
364.78,-147.376,228.14
-11.956,-192.76,263.764
-507.52,-276.452,295.728
-598.288,-303.048,110.532
-519.232,-306.952,-127.612
-481.168,-267.18,-269.376
-545.828,-329.4,-252.052
-567.3,-456.524,-284.504
-323.788,-719.312,-440.176
284.26,-1053.592,-526.308
534.36,-1403.0,-392.596
747.372,-1611.376,-456.28
1288.32,-1745.576,-547.292
1799.5,-1735.816,-628.544
1980.304,-1620.16,-736.148
1990.064,-1599.664,-622.2
2129.388,-1597.468,-534.848
2427.312,-1567.456,-602.436
2588.596,-1499.624,-501.664
2439.024,-1518.412,-135.42
2474.16,-1581.364,131.76
2683.268,-1622.356,298.412
2769.644,-1654.076,427.244
2532.72,-1873.92,838.384
2105.232,-2131.34,1232.932
2024.712,-2212.836,1248.06
1949.56,-2024.224,946.476
1556.72,-1732.156,667.34
1228.052,-1522.804,550.22
1140.7,-1432.768,386.496
925.98,-1418.86,176.9
477.752,-1278.56,66.612
177.876,-1266.36,256.932
-53.192,-1200.724,241.804
-339.892,-967.216,83.692
-534.604,-694.18,-95.16
-393.572,-522.892,-42.944
-250.832,-478.972,22.692
-431.392,-384.056,6.832
-80.276,-208.62,24.644
90.524,39.04,0.244
378.444,304.756,-73.2
519.964,371.368,-26.352
548.512,335.256,183.0
667.584,461.648,-79.3
901.336,700.036,-29.768
935.74,849.608,11.956
711.748,917.44,109.068
582.184,912.804,124.44
283.772,875.96,121.756
164.7,841.556,78.324
2.44,840.092,100.528
-138.836,810.568,166.408
-172.264,810.568,191.54
-397.476,788.608,285.236
-508.252,728.096,376.736
-435.784,663.436,285.236
-499.956,651.968,301.584
-484.34,669.536,318.42
-411.14,704.428,320.372
-359.9,777.628,270.84
-323.3,869.86,212.28
-252.784,986.248,160.308
-198.86,1055.788,162.016
-224.236,1052.616,190.32
-280.6,1009.428,200.08
-293.044,987.956,207.4
-295.484,958.676,237.9
-275.476,936.716,255.712
-253.028,923.784,260.348
-234.972,930.86,245.952
-221.308,951.844,223.504
-219.356,956.48,207.4
-234.972,948.672,216.672
-239.852,927.688,230.58
-216.428,918.904,214.232
-220.332,936.716,227.408
-218.38,934.764,243.268
-200.812,923.052,230.58
-224.48,918.904,255.712
-237.656,906.216,258.884
-256.688,899.14,253.028
-235.216,915.0,259.616
-238.388,925.98,270.84
-199.348,934.276,240.828
-202.276,954.04,240.828
-209.596,959.408,246.684
-225.456,954.284,249.368
-211.06,929.152,259.616
-227.164,919.392,286.944
-211.792,910.12,299.388
-218.136,909.632,306.952
-201.3,920.368,301.828
-190.32,939.156,301.584
-214.964,951.356,313.54
-219.112,950.136,305.244
-232.044,931.836,314.76
-233.264,936.472,318.908
-199.104,956.48,314.028
-182.512,972.828,320.616
-186.904,970.144,329.156
-205.448,951.112,344.284
-201.3,938.424,343.064
-160.796,945.988,340.624
-165.188,941.84,374.54
-156.892,922.564,376.004
-152.256,899.14,379.42
-134.932,892.064,381.128
-120.536,895.236,391.132
-91.988,916.22,357.948
-110.532,925.98,345.992
-132.98,931.348,312.808
-167.14,931.592,294.264
-152.5,934.52,263.52
-154.452,953.796,230.58
-141.032,974.536,200.324
-156.892,984.052,184.952
-141.032,990.152,158.844
-133.224,999.424,151.28
-138.592,999.18,146.156
-137.128,994.544,117.852
-162.26,988.688,110.288
-159.332,993.568,105.408
-139.568,995.276,101.504
-120.292,977.708,96.38
-119.804,965.752,97.844
-133.956,955.26,109.556
-159.088,944.28,107.848
-146.888,938.668,79.056
-165.92,940.132,50.996
-175.924,960.14,13.42
-219.844,966.972,24.644
-220.82,962.336,-0.488
-248.636,955.504,-36.6
-274.744,961.116,-58.804
-254.248,975.756,-98.088
-224.236,964.288,-125.904
-239.364,941.108,-140.788
-246.928,917.928,-160.796
-255.224,901.092,-162.26
-278.16,886.696,-122.976
-276.94,880.84,-111.264
-282.308,885.232,-84.912
-250.344,901.824,-79.544
-263.032,934.276,-61.0
-265.228,951.112,-34.404
-248.636,964.288,-13.42
-236.924,966.24,20.984
-218.624,965.996,53.68
-211.548,972.096,77.348
-199.592,982.344,78.812
-190.076,995.52,84.668
-168.604,1011.624,83.204
-164.212,1025.776,94.184
-158.844,1019.188,102.724
-163.724,995.764,98.088
-206.668,974.536,107.116
-199.592,976.244,93.452
-202.764,976.488,106.384
-191.052,972.584,106.872
-193.004,959.896,111.508
-193.736,955.504,112.24
-196.908,955.992,127.856
-193.736,951.844,141.276
-188.368,947.696,145.424
-189.344,949.404,136.64
-196.42,947.208,130.052
-200.568,944.524,119.56
-198.86,948.428,108.336
-210.572,949.404,107.36
-202.764,942.328,109.556
-215.94,940.132,106.14
-203.74,934.764,94.916
-215.94,936.472,94.672
-210.084,947.208,91.988
-203.74,958.92,84.18
-212.524,963.068,86.132
-231.068,966.972,91.256
-226.432,973.804,102.236
-203.984,982.1,106.384
-184.22,999.18,111.02
-173.972,1002.352,113.704
-188.124,1002.352,118.34
-220.82,991.616,153.232
-250.344,992.104,173.484
-284.504,1015.04,190.32
-295.24,1067.256,184.952
-444.324,1160.952,77.348
-325.496,1134.844,-65.636
183.488,823.012,-121.512
638.304,793.732,-23.18
715.896,803.736,40.992
21.472,647.576,349.652
-237.168,-48.8,465.308
131.028,-839.848,174.216
315.736,-297.436,4.88
582.916,116.144,-166.652
416.02,-52.46,267.912
195.688,-306.708,395.768
199.592,-595.604,234.484
240.096,-657.092,-91.5
477.752,-555.588,-185.684
319.396,-467.748,-111.02
50.752,-470.188,-36.6
-101.26,-505.08,-133.468
5.856,-629.032,-227.652
464.088,-731.024,-330.864
888.404,-817.156,-321.348
1104.1,-907.436,-339.648
1257.82,-1024.068,-398.696
1365.912,-1115.08,-441.152
1619.672,-1141.676,-440.42
1814.872,-1194.38,-401.868
2028.372,-1261.236,-385.032
2232.112,-1300.276,-248.636
2352.892,-1341.268,-95.892
2524.18,-1355.664,1.22
2686.44,-1415.932,107.116
2659.6,-1489.376,273.28
2569.564,-1558.428,538.264
2612.02,-1653.588,740.052
2598.6,-1836.588,925.492
2127.924,-2026.664,1128.5
1673.84,-1972.252,1037.244
1237.568,-1713.124,809.348
786.9,-1391.532,628.056
289.14,-1095.072,471.164
23.424,-898.408,304.024
-19.764,-757.62,176.656
-115.168,-685.396,113.948
-378.2,-629.276,28.792
-452.132,-492.392,25.376
-230.336,-420.9,-12.932
10.492,-158.112,58.56
39.528,-150.304,24.888
157.868,2.196,-8.784
592.676,335.012,39.284
653.676,514.108,-7.076
672.464,641.964,79.788
686.372,745.908,41.724
720.044,821.304,8.052
680.272,874.74,127.124
511.912,867.42,313.052
366.732,802.516,338.184
208.62,769.82,292.8
-48.312,775.92,286.456
-91.012,819.108,172.264
-162.748,853.268,162.26
-351.848,880.84,228.384
-388.936,854.976,263.032
-459.208,813.008,273.524
-508.984,713.7,273.524
-498.004,629.032,301.584
-390.4,614.148,305.976
-307.196,650.016,294.264
-290.604,701.256,318.176
-225.456,747.86,295.972
-183.732,816.912,271.572
-182.512,873.032,299.632
-183.0,917.928,294.996
-208.62,953.552,271.572
-230.58,962.092,271.572
-257.908,955.504,267.912
-266.936,964.776,237.412
-296.948,968.192,248.148
-205.692,967.948,208.864
-243.512,967.948,227.896
-255.468,949.892,246.684
-203.496,928.908,241.56
-199.836,921.1,263.276
-235.704,907.192,297.436
-224.48,885.964,282.308
-198.616,894.016,284.016
-219.356,910.12,306.708
-244.732,915.0,284.992
-243.268,928.908,249.368
-236.68,947.696,245.464
-210.572,968.436,242.536
-189.344,975.024,241.56
-183.0,970.388,240.584
-202.032,952.088,251.076
-222.528,934.276,258.396
-243.268,921.832,263.52
-201.056,926.712,244.0
-190.808,940.62,248.392
-174.46,943.548,232.288
-163.968,947.452,219.6
-183.732,949.404,241.072
-199.104,944.768,247.416
-207.4,939.888,232.776
-215.696,923.296,241.072
-217.16,911.828,247.904
-194.956,932.08,238.876
-192.028,947.94,237.412
-193.98,957.456,234.484
-203.252,954.528,237.412
-198.372,943.06,234.972
-187.88,940.376,239.608
-188.612,940.864,254.736
-181.78,938.18,240.584
-193.248,936.96,246.928
-194.956,927.688,255.712
-206.18,926.712,249.124
-198.86,922.32,245.708
-187.148,942.572,234.728
-190.32,956.968,237.412
-187.148,952.576,237.168
-204.716,943.06,242.78
-191.052,930.86,252.296
-172.996,923.784,272.792
-161.528,922.564,286.456
-148.596,912.072,293.532
-160.064,904.752,318.908
-166.164,896.212,335.988
-166.652,890.6,340.624
-187.148,888.648,338.184
-184.708,900.36,320.86
-176.412,912.316,315.248
-159.576,929.64,298.9
-151.524,949.16,299.876
-128.344,968.436,294.752
-132.736,973.56,305.488
-155.184,969.168,316.956
-186.416,960.872,337.452
-189.588,964.288,343.308
-170.068,975.756,349.164
-153.232,976.732,363.804
-136.884,961.116,371.612
-96.624,949.648,350.14
-74.42,953.796,335.012
-63.684,950.136,348.92
-23.18,940.376,328.668
-37.82,914.756,305.976
-34.892,914.756,267.912
-27.328,935.74,227.652
-32.208,970.388,194.224
-56.608,1004.06,173.24
-84.18,1006.256,169.58
-70.76,1007.964,135.664
-79.056,1012.844,127.856
-83.936,1007.232,117.852
-111.02,986.248,118.828
-97.844,969.9,95.648
-89.792,976.732,83.448
-100.528,991.128,84.668
-78.568,975.024,60.756
-110.776,955.504,52.948
-122.0,937.936,38.064
-124.196,937.692,12.444
-135.664,938.668,-24.4
-148.596,948.672,-65.88
-193.98,947.452,-70.516
-207.644,957.456,-90.036
-203.252,960.628,-99.308
-206.912,955.748,-118.584
-212.524,941.596,-136.64
-220.576,938.668,-148.352
-220.576,944.524,-135.664
-211.06,951.112,-131.272
-211.792,958.676,-120.78
-189.344,974.292,-104.432
-197.152,975.268,-77.836
-187.392,969.9,-52.46
-190.32,959.408,-18.544
-181.048,966.24,-1.708
-152.5,972.096,25.864
-159.332,977.464,52.46
-153.476,979.904,50.996
-137.128,991.86,42.7
-129.32,1008.94,35.868
-135.176,1015.04,32.696
-107.116,1023.824,9.516
-124.928,1017.968,24.4
-145.424,999.668,32.696
-158.844,978.44,40.992
-161.772,970.632,42.7
-151.036,975.512,42.212
-154.208,982.832,55.632
-143.716,980.636,53.68
-154.696,979.66,62.464
-137.616,988.932,62.952
-140.788,993.324,67.588
-147.132,977.952,68.32
-132.492,967.216,58.56
-149.572,966.484,73.932
-153.964,973.804,73.444
-142.252,974.048,72.956
-142.74,976.488,77.836
-126.392,971.608,90.036
-116.632,976.976,81.496
-113.948,968.436,89.304
-105.164,948.672,111.264
-92.72,945.988,106.628
-69.296,973.072,98.576
-88.328,1003.328,103.7
-103.944,1008.452,109.556
-128.344,994.544,117.852
-141.52,981.368,110.288
-154.696,976.244,100.772
-139.812,974.78,94.184
-135.176,978.684,90.036
-136.396,975.268,86.376
-128.832,968.192,87.108
-115.9,958.432,81.984
-106.14,955.26,63.196
-97.844,959.164,58.072
-109.8,974.78,59.048
-128.588,995.276,29.036
-150.304,1023.336,13.176
-148.108,1040.172,-8.784
-137.616,1028.704,-27.572
-154.696,1007.72,-38.308
-183.244,994.056,-12.688
-198.372,973.56,18.3
-208.132,953.796,33.672
-199.592,932.324,14.152
-190.076,943.548,-7.808
-208.62,954.528,8.784
-214.232,951.6,4.636
-225.7,939.156,9.272
-220.332,936.96,23.18
-199.836,955.26,32.208
-178.608,974.78,43.188
-176.168,985.76,59.536
-185.44,993.324,96.136
-200.08,986.004,146.644
-233.264,961.116,178.364
-250.588,928.908,168.36
-284.26,927.932,131.516
-281.332,935.008,95.404
-214.72,966.972,71.248
-197.64,1011.136,101.504
-183.976,1049.688,130.784
-134.2,1059.448,143.472
-107.848,1086.288,176.656
-122.488,1108.492,211.548
-77.836,1111.176,192.028
-56.12,1059.204,224.236
-45.628,1010.892,255.224
-61.488,946.964,253.272
-61.244,892.308,223.016
-14.152,869.128,173.484
27.572,857.416,140.056
36.844,870.836,90.28
37.332,907.192,66.368
-22.692,932.812,65.636
-89.304,948.672,70.516
-104.432,953.064,50.508
-85.888,967.46,24.156
-67.832,983.564,38.308
-44.408,1004.792,55.144
-47.58,1005.036,75.64
-42.212,980.636,80.52
-56.364,966.484,103.212
-94.672,956.236,145.18
-99.308,938.668,139.324
-112.972,934.032,134.2
-149.328,971.852,165.92
-204.228,995.52,214.476
-154.94,993.08,174.948
-64.66,991.616,121.512
-40.748,1010.16,127.612
-42.212,1032.364,141.032
-87.352,1043.1,156.648
-138.348,1038.464,155.916
-136.152,1023.824,131.76
-122.488,1019.188,121.512
-136.64,1010.648,139.08
-131.76,989.42,144.204
-167.14,958.188,161.528
-183.732,946.72,179.096
-153.72,952.088,169.336
-130.296,959.408,161.04
-113.948,957.212,161.772
-127.124,965.752,165.676
-133.224,969.9,169.824
-149.572,975.756,164.7
-151.768,983.564,187.392
-179.096,976.244,197.396
-252.54,981.124,204.716
-230.824,1002.352,178.852
-51.972,1017.236,93.94
-33.672,1015.772,79.056
280.356,986.004,-17.568
474.336,929.152,-17.324
458.232,829.112,1.464
800.076,679.54,147.864
623.664,426.268,295.24
559.98,170.068,406.748
820.084,35.868,351.36
653.676,-34.648,400.16
317.932,-139.568,345.504
-174.704,-380.64,385.032
-336.476,-529.968,319.152
-31.72,-415.776,-67.588
116.388,-118.34,-335.5
-124.196,16.348,-405.772
-627.568,-99.064,-260.592
-551.196,-334.524,-224.968
13.176,-565.592,-272.792
603.168,-755.18,-310.124
1068.964,-858.88,-344.772
1436.916,-928.176,-353.068
2021.052,-927.932,-428.952
2359.968,-881.328,-405.284
2423.652,-922.808,-472.872
2595.428,-928.176,-510.204
2686.928,-926.224,-401.868
2681.072,-904.996,-282.552
2823.568,-847.656,-220.576
2880.176,-930.372,30.988
2708.644,-1012.112,324.52
2657.404,-1054.08,454.816
2583.228,-1142.408,621.224
2443.172,-1261.724,810.812
2247.728,-1352.98,1009.672
2044.476,-1409.832,1071.892
1707.024,-1452.288,1011.38
1232.688,-1365.18,852.048
555.588,-1116.788,634.4
-283.04,-947.452,360.144
-768.844,-794.22,231.8
-755.18,-565.836,-7.076
-582.428,-357.46,-84.424
-238.388,-244.0,-86.376
-114.924,-71.492,-221.796
76.616,198.372,-277.428
597.312,469.944,-269.376
1113.616,633.18,-249.612
1292.468,652.7,-342.088
1115.08,540.216,-89.06
697.596,596.824,130.784
451.888,708.82,126.636
378.688,707.844,154.452
0.976,698.084,372.344
-231.312,730.048,409.92
-366.488,668.56,316.956
-424.56,603.9,209.352
-474.58,622.688,180.072
-407.968,702.232,201.056
-298.9,783.484,206.912
-275.964,807.152,197.884
-307.684,806.176,185.928
-266.692,832.772,170.068
-233.752,886.208,182.756
-253.76,924.272,209.596
-272.304,908.9,243.756
-288.164,889.38,260.348
-246.684,886.696,220.088
-276.452,896.212,216.184
-286.944,899.628,191.052
-260.348,919.88,218.136
-244.976,936.96,211.06
-256.932,929.64,218.868
-242.78,915.732,238.388
-235.46,906.46,240.584
-221.796,915.488,212.768
-213.744,933.056,210.816
-203.74,928.908,246.44
-226.188,891.576,286.212
-171.288,874.496,239.12
-156.404,890.356,244.732
-147.376,929.152,251.808
-136.396,953.796,239.852
-149.328,969.656,223.748
-180.804,981.612,225.212
-154.94,989.908,207.644
-147.62,1003.816,185.928
-140.788,1011.624,182.268
-180.316,984.784,218.38
-193.736,951.356,231.556
-176.412,943.304,210.084
-157.868,972.34,188.368
-138.348,1002.84,199.592
-121.756,1009.672,200.568
-144.936,983.564,217.404
-147.132,962.092,202.276
-202.032,945.5,209.596
-193.736,947.94,211.304
-167.14,956.236,213.988
-170.8,957.944,207.4
-182.756,942.084,208.62
-181.78,931.592,205.448
-149.328,935.984,187.392
-150.304,953.796,194.468
-155.672,958.92,192.516
-172.264,951.844,191.296
-192.272,950.624,198.128
-196.908,952.82,188.368
-194.468,969.656,193.248
-191.052,978.928,217.16
-200.324,980.148,231.068
-190.808,977.22,235.948
-176.9,974.536,258.64
-154.208,967.216,282.552
-133.712,963.556,291.336
-162.748,954.772,306.952
-178.852,937.936,291.824
-208.132,936.228,258.152
-163.724,946.964,208.864
-140.3,962.58,193.492
-118.34,958.92,192.516
-107.36,946.232,178.608
-140.3,935.008,188.124
-181.292,909.144,219.6
-178.364,898.408,224.968
-150.548,920.612,221.064
-123.708,945.256,217.404
-98.576,967.948,223.748
-84.912,976.976,238.876
-76.86,969.9,238.144
-60.512,964.776,213.256
-43.188,981.368,198.128
-28.792,997.228,210.572
-24.156,1004.548,223.016
-31.72,992.592,222.772
-40.016,977.22,219.6
-37.088,961.848,205.204
-60.024,952.332,201.3
-71.736,942.328,215.94
-69.54,930.86,213.744
-68.32,924.516,197.152
-62.708,921.344,180.316
-63.684,913.536,177.632
-55.632,908.9,169.824
-70.76,897.188,145.912
-87.108,911.828,109.556
-90.036,963.8,103.456
-101.504,1008.208,96.868
-162.016,1024.312,100.528
-190.564,1000.644,112.484
-150.792,974.048,110.776
-142.252,971.364,137.372
-137.128,978.928,160.552
-166.652,1001.376,192.272
-141.764,1019.676,187.636
-119.56,1062.864,172.264
-158.844,1087.508,179.34
-193.98,1080.432,177.876
-227.896,1034.072,197.152
-241.804,998.936,190.808
-214.964,988.932,169.824
-167.14,978.928,147.132
-117.852,976.976,141.032
-100.772,1006.256,124.44
-90.768,1023.58,104.92
-87.352,1030.412,78.812
-95.648,1032.12,68.076
-128.1,1029.68,88.816
-143.472,1021.384,119.072
-140.788,1011.136,132.98
-134.688,1003.084,135.908
-119.804,994.056,145.424
-70.76,953.308,114.68
-54.168,895.968,103.212
-81.74,886.208,83.204
-119.804,957.944,92.476
-154.208,1055.544,103.7
-136.152,1120.692,89.06
-85.4,1130.696,56.12
-60.756,1094.34,37.82
-71.98,1027.24,59.292
-101.016,962.092,74.176
-149.328,888.404,105.164
-213.256,838.384,128.1
-252.784,824.964,127.124
-197.64,839.36,101.016
-127.856,874.74,88.084
-108.824,890.112,96.136
-93.452,889.38,84.424
-125.904,879.62,104.188
-142.496,859.124,121.512
-128.344,850.828,111.264
-111.508,869.372,101.748
-104.676,910.364,105.652
-91.012,947.208,98.82
-106.14,976.0,90.768
-133.712,996.74,96.868
-137.86,1007.964,97.112
-116.144,1026.996,91.988
-114.68,1040.66,96.38
-101.992,1037.976,99.064
-98.576,1019.676,85.644
-65.88,1004.792,60.268
-64.66,1003.084,51.972
-65.636,1003.328,40.016
-80.032,998.936,44.408
-105.652,991.616,38.796
-104.676,984.54,35.624
-99.308,989.176,37.088
-109.556,992.592,40.016
-109.312,987.956,37.088
-110.532,990.396,39.04
-110.532,992.348,44.164
-101.748,993.324,32.208
-91.256,1003.572,35.136
-97.844,1005.28,49.532
-100.284,995.52,62.952
-114.192,978.684,79.788
-88.816,966.24,66.124
-79.788,979.904,66.612
-61.732,996.74,65.636
-60.024,1005.036,61.976
-66.368,1000.4,81.008
-111.264,984.052,137.372
-146.156,969.412,172.996
-206.424,978.928,170.068
-270.84,975.024,182.512
-256.444,968.192,198.616
-168.116,897.676,164.456
74.176,825.696,79.056
148.108,746.884,15.372
408.456,613.416,-52.216
377.468,486.048,20.984
599.264,453.108,-0.732
773.48,386.74,125.66
949.892,178.852,173.972
1182.18,71.248,164.212
1298.812,86.62,210.816
1351.76,164.212,201.056
1264.652,214.476,178.364
1186.816,275.232,84.668
1096.536,280.844,113.948
1086.044,219.844,128.344
960.14,122.976,146.156
829.844,69.296,146.644
491.172,-25.376,144.692
-61.0,-159.332,197.64
-389.18,-228.628,173.484
-296.704,-243.756,60.756
-213.744,-283.772,-84.424
-358.436,-408.456,-107.116
-556.808,-513.62,-162.748
-392.596,-555.588,-360.144
25.376,-653.676,-478.24
543.144,-782.996,-505.568
974.048,-833.26,-501.176
1561.844,-894.016,-585.112
2018.368,-986.492,-602.68
2272.128,-1019.432,-574.864
2530.524,-1047.492,-455.304
2817.956,-1065.548,-333.06
3101.24,-1079.212,-317.688
3093.676,-1097.268,-211.792
2825.52,-1093.12,73.444
2556.144,-1181.936,371.368
2781.112,-1228.052,456.28
2793.312,-1281.976,680.028
2439.024,-1367.132,969.168
2060.092,-1475.712,1057.496
1983.964,-1518.9,1050.908
1935.896,-1518.656,912.072
1453.02,-1427.888,665.876
1137.528,-1175.836,463.6
705.648,-1027.24,385.764
526.064,-909.876,220.576
39.04,-823.012,-15.128
-600.728,-677.1,77.104
-929.884,-492.392,157.38
-851.804,-481.412,258.152
-347.212,-436.516,277.916
-406.26,-232.776,-9.272
-389.18,184.464,-117.12
-126.392,423.34,-204.472
207.644,571.204,-278.892
722.728,573.4,-145.912
1328.824,568.52,-203.496
1271.728,640.744,-304.512
958.92,742.248,-111.264
668.072,949.648,-49.532
423.34,1039.196,55.388
325.252,986.736,192.028
59.536,907.68,317.932
-167.872,822.036,323.3
-361.12,793.244,343.552
-173.24,815.204,242.536
-95.16,857.66,197.64
-117.608,914.268,199.348
-103.7,921.344,252.54
-34.648,922.32,234.972
-119.804,903.532,223.016
-213.5,885.232,219.6
-253.272,886.94,187.148
-225.7,924.028,151.28
-228.872,950.38,177.388
-213.744,970.876,169.336
-155.672,987.224,116.876
-169.58,1006.256,102.968
-153.232,996.984,104.92
-167.14,972.096,134.932
-135.176,954.284,163.968
-112.728,946.232,190.564
-131.516,933.544,197.152
-72.712,931.104,156.648
-50.752,927.444,160.064
-59.048,930.616,193.492
-98.576,924.516,207.156
-107.848,937.692,182.512
-119.804,953.064,154.208
-89.548,988.932,108.58
-133.712,1003.084,112.972
-84.912,1025.776,99.796
-104.432,1042.124,149.084
-88.572,1028.948,153.964
-76.128,995.764,148.84
-35.624,972.584,128.1
-73.444,988.2,142.74
-65.148,997.228,155.428
-66.124,995.764,179.828
-81.984,967.948,173.728
-82.716,962.336,157.868
-73.932,985.516,147.62
-42.212,1009.916,127.124
-30.5,1030.656,121.268
-46.848,1020.652,138.348
-61.488,987.224,130.54
-54.412,965.264,117.12
-63.196,971.364,111.02
-58.804,994.544,101.748
-77.104,1006.744,99.796
-93.94,1004.548,90.768
-84.18,992.592,80.764
-98.576,997.96,101.26
-102.48,1000.888,123.22
-87.596,998.448,132.004
-63.684,994.544,146.156
-70.028,999.18,163.724
-51.972,984.54,168.604
-57.096,960.872,177.632
-79.3,932.812,169.58
-89.304,918.416,168.604
-75.396,930.128,168.36
-47.58,945.5,164.212
-52.216,959.652,159.088
-56.852,976.732,148.108
-71.248,987.224,144.204
-67.832,996.984,148.108
-56.608,998.204,152.012
-33.428,1000.888,137.86
-37.82,1011.624,119.072
-54.656,1017.724,104.432
-83.204,1001.864,106.872
-95.648,989.42,110.288
-105.652,975.512,130.784
-83.448,972.584,135.42
-82.228,969.9,138.836
-59.292,965.752,136.884
-36.356,967.704,134.932
-29.036,967.216,144.204
-37.088,955.016,152.744
-52.704,948.428,146.888
-54.168,944.524,138.348
-59.78,942.572,135.176
-65.392,952.576,124.196
-64.904,959.164,109.312
-66.124,969.9,108.336
-64.904,979.66,118.584
-69.296,987.956,132.98
-61.488,987.224,145.668
-31.72,992.348,142.984
-48.312,1002.596,161.772
-43.432,1012.112,160.796
-61.976,1016.748,174.216
-57.34,1031.144,175.192
-54.656,1039.928,191.54
-45.872,1047.736,196.42
-42.212,1041.392,212.524
-25.62,1035.292,226.92
-5.856,1028.46,251.564
0.488,1008.452,279.136
10.248,975.512,298.412
29.768,942.816,312.564
25.62,925.736,319.64
25.376,918.66,324.276
48.556,908.9,329.644
41.724,902.556,327.204
48.068,903.532,298.412
23.668,915.244,286.456
21.472,939.888,259.616
4.392,966.484,250.344
-14.64,981.124,219.356
-20.74,992.592,188.368
-45.384,1011.38,171.776
-68.564,1016.016,163.48
-39.528,1010.404,135.908
-39.772,1008.696,136.152
-50.752,1001.864,134.444
-75.152,986.492,138.836
-81.984,964.288,149.572
-43.92,951.356,135.664
-45.628,950.136,137.128
-43.188,954.528,109.312
-60.756,953.308,87.108
-59.536,960.384,56.852
-48.068,971.852,38.796
-40.504,983.076,15.372
-37.088,997.228,-12.2
-71.98,989.664,17.324
-57.34,970.388,22.692
-57.096,962.336,41.968
-50.996,970.388,36.844
-73.444,975.756,23.424
-58.56,977.22,25.376
-37.088,987.712,12.2
-32.94,1011.868,0.244
-38.308,1028.704,-10.248
-34.404,1025.532,-9.272
-40.016,1003.328,-3.66
-68.32,976.0,14.884
-82.228,960.14,35.38
-94.184,953.064,54.168
-76.616,956.724,56.364
-93.696,978.928,73.932
-75.884,982.832,90.768
-72.956,969.9,114.436
-89.792,952.332,128.344
-82.96,959.164,122.976
-68.564,970.388,122.976
-34.892,981.368,112.24
-32.696,990.152,104.676
-44.408,984.54,107.36
-50.996,965.02,115.412
-60.024,955.748,112.728
-73.688,958.676,105.164
-64.66,971.364,84.668
-42.456,991.372,79.788
-32.208,1002.352,95.16
-45.628,1009.428,110.776
-58.56,1000.888,130.296
-66.124,985.272,139.568
-68.32,973.072,148.596
-51.484,974.536,148.596
-12.932,992.348,147.864
0.488,1006.744,166.896
7.564,1010.16,177.144
-4.392,993.812,187.148
-6.344,981.856,183.976
-13.908,979.66,175.192
-12.688,988.444,166.896
-24.644,997.472,162.992
-32.696,996.74,154.696
-30.256,992.104,142.496
-34.16,991.372,135.42
-16.104,999.424,116.876
-0.732,1018.212,110.044
-15.86,1026.508,118.584
-30.5,1022.604,130.296
-45.628,995.764,146.644
-59.292,961.604,154.696
-57.584,946.964,156.892
-25.62,952.088,161.772
-11.956,959.896,165.92
-2.196,961.116,171.288
-3.416,960.384,175.436
-18.056,958.92,183.0
-24.156,957.944,175.68
-52.704,966.484,176.412
-92.964,989.908,185.684
-146.156,1021.384,200.324
-167.384,1021.628,217.404
-159.332,1019.188,188.612
-168.36,1051.152,164.456
6.832,1046.76,142.74
160.064,996.008,142.74
206.912,844.484,68.808
276.208,658.312,18.056
460.184,532.408,3.172
876.936,511.668,27.572
822.036,469.212,90.036
88.084,84.668,165.92
-526.796,-356.484,466.284
-315.248,-564.616,354.288
2.928,-512.888,216.428
7.32,-481.656,169.336
339.16,-446.764,90.28
254.004,-408.7,-57.096
161.04,-296.948,-140.3
150.06,-233.508,-226.676
108.092,-332.572,-319.64
366.244,-556.076,-347.944
767.38,-804.224,-270.596
1436.428,-871.568,-327.204
1998.604,-959.652,-411.14
2574.444,-1060.424,-276.208
2846.504,-1260.504,30.988
2973.384,-1359.324,119.804
3008.276,-1348.1,82.228
2700.592,-1251.964,190.076
2483.432,-1253.672,424.072
2538.82,-1329.068,496.784
2448.784,-1440.82,627.812
2348.744,-1497.916,758.352
2158.424,-1539.396,881.572
2111.088,-1521.828,989.176
2064.972,-1580.876,979.416
1608.448,-1612.352,855.464
811.056,-1512.312,774.212
-103.212,-1357.372,710.528
-424.804,-1118.496,451.888
-794.952,-947.94,328.668
-884.012,-644.404,109.8
-828.624,-350.384,-91.012
-677.832,-160.064,-74.176
-330.62,-77.592,28.06
-63.44,-112.728,22.204
-72.956,-26.596,6.588
205.936,166.164,44.408
519.476,353.312,105.164
532.408,437.98,93.696
409.188,468.48,80.52
450.424,532.652,120.78
646.6,690.032,102.48
789.828,771.04,64.904
812.52,779.58,127.856
640.5,858.88,212.768
469.944,935.496,160.796
371.612,980.88,150.792
143.472,987.712,274.256
-127.612,985.516,389.18
-276.696,980.636,336.72
-368.44,981.856,297.924
-339.892,1031.388,215.452
-333.792,1113.372,129.564
-260.104,1193.648,57.828
-266.448,1217.56,93.208
-211.548,1190.232,90.036
-229.36,1121.18,105.164
-211.792,1054.568,105.652
-177.388,1016.504,125.416
-167.628,982.832,155.916
-151.28,958.92,169.336
-163.236,966.728,180.072
-142.74,991.86,171.776
-75.884,1016.504,132.248
-110.532,1021.872,158.6
-140.056,1008.94,154.452
-111.264,994.3,146.888
-128.1,987.468,175.68
-100.528,983.32,182.512
-20.984,965.752,147.864
-83.692,970.632,163.968
-65.392,991.372,161.284
-78.324,996.008,175.436
-110.044,979.172,194.956
-123.464,959.408,198.372
-140.788,944.768,183.732
-142.496,938.424,171.532
-127.124,939.644,152.5
-92.72,949.16,134.932
-90.036,954.528,137.616
-47.824,969.412,108.092
-52.704,981.612,125.416
-78.08,971.608,143.716
-118.34,945.5,158.844
-117.852,945.012,149.816
-125.172,965.02,148.352
-77.836,995.52,121.268
-43.676,1021.628,102.724
-67.832,1029.68,112.728
-73.932,1017.48,114.192
-106.872,988.444,128.344
-118.096,971.12,117.12
-116.632,978.44,110.044
-97.6,990.152,109.8
-82.228,987.712,116.876
-91.744,979.172,114.68
-96.136,968.68,110.776
-111.996,951.112,101.748
-116.632,946.72,90.524
-125.904,947.696,100.04
-130.296,960.628,102.724
-141.032,969.9,124.44
-114.436,983.076,131.76
-102.48,994.544,137.616
-106.14,996.74,152.744
-97.6,987.468,140.788
-83.204,975.512,141.764
-61.0,967.704,135.664
-43.188,965.996,130.296
-50.752,962.824,142.252
-42.7,956.236,136.64
-37.576,949.892,146.888
-23.18,954.04,152.988
-38.064,965.02,152.744
-45.384,984.296,155.672
-45.384,999.18,142.252
-67.1,992.104,135.908
-73.2,983.564,124.44
-78.324,982.1,122.0
-68.32,982.588,116.876
-65.88,986.248,116.876
-53.68,992.592,93.452
-68.076,996.496,87.352
-91.5,989.42,91.012
-91.744,986.004,85.888
-82.96,982.588,106.872
-54.9,983.076,117.852
-42.456,989.908,115.168
-34.648,996.496,120.536
-15.86,999.912,113.948
-7.076,998.448,121.024
-22.204,999.668,125.416
-50.02,995.032,120.536
-66.368,987.468,121.512
-69.052,970.388,120.536
-36.356,965.264,112.484
-32.208,965.264,116.144
-42.212,969.168,122.488
-40.992,969.168,126.148
-42.456,970.632,115.9
-45.384,976.0,117.608
-24.156,986.248,113.216
-39.04,994.544,122.0
-35.136,988.444,125.66
-32.696,984.052,127.124
-34.404,989.42,122.976
-34.648,990.152,109.556
-37.576,991.86,105.164
-49.776,985.76,101.992
-65.148,976.976,100.04
-74.908,972.096,89.792
-63.684,972.34,84.668
-51.24,976.488,72.468
-58.56,971.852,76.616
-49.776,971.364,78.324
-47.824,969.656,88.816
-45.872,964.044,105.164
-38.308,963.312,108.336
-40.748,965.996,117.852
-28.792,977.464,114.924
-30.988,981.368,119.072
-24.644,990.396,110.532
-32.94,996.74,103.944
-52.948,990.396,108.092
-64.172,979.66,115.9
-58.072,974.78,118.584
-42.944,982.588,123.22
-34.892,993.812,136.64
9.76,1007.476,137.372
38.552,1018.944,150.06
49.532,1016.016,161.284
51.484,1002.596,161.04
39.284,981.124,164.212
31.964,970.388,162.748
17.08,967.948,158.112
-7.808,968.924,163.236
-2.196,970.144,155.672
-11.956,983.076,156.892
-21.96,1007.476,189.1
-6.1,1030.412,231.8
-16.592,1055.788,301.34
-4.88,1086.288,343.064
33.428,1105.32,333.548
65.636,1132.648,311.832
74.664,1147.532,289.872
69.052,1139.724,258.884
40.992,1110.444,236.192
-0.976,1064.572,229.604
-11.468,1025.044,205.204
-25.62,994.056,186.416
9.516,975.024,152.988
47.58,972.828,125.904
55.876,976.488,89.304
29.036,987.468,84.668
18.788,992.836,91.5
10.004,989.42,118.096
23.912,985.516,111.996
39.772,989.664,92.964
35.624,996.496,96.136
48.312,1007.232,88.572
66.124,1012.844,81.496
63.928,1000.4,59.292
31.232,962.58,41.236
32.94,924.516,22.448
16.104,883.036,11.956
-11.224,848.632,-0.976
-35.624,833.748,-15.86
-91.5,833.504,-6.344
-117.12,848.388,0.488
-129.564,867.42,15.86
-140.788,888.16,37.088
-143.228,904.996,54.656
-140.056,909.144,56.364
-125.416,915.732,41.968
-101.26,924.028,20.74
-79.056,940.132,3.66
-79.788,958.188,-27.084
-82.96,966.728,-51.484
-78.568,978.684,-70.272
-84.424,980.88,-77.836
-106.384,981.612,-72.468
-95.892,983.32,-79.544
-83.448,992.348,-79.544
-84.18,998.448,-55.144
-88.084,990.152,-22.448
-114.68,983.076,4.148
-127.368,978.196,19.52
-132.736,985.516,40.26
-98.332,1001.62,40.26
-55.632,1018.456,35.624
-44.408,1036.268,41.724
-37.82,1038.22,50.02
-34.892,1030.9,48.556
-33.916,1014.064,51.972
-48.068,1004.792,64.904
-69.784,991.372,76.86
-65.148,984.052,76.616
-60.512,980.636,76.86
-71.248,981.124,88.816
-76.128,972.096,96.868
-80.52,966.972,96.624
-71.492,965.752,92.476
-76.616,961.604,101.016
-71.492,957.212,100.04
-70.516,954.772,105.164
-73.444,955.26,100.772
-74.664,960.628,85.888
-69.54,979.416,93.94
-83.936,996.984,83.448
-100.284,1003.084,78.324
-77.592,1017.968,84.18
-132.492,1043.832,93.208
-217.404,1057.252,134.2
-155.428,1101.416,142.74
25.62,1096.78,111.508
-9.76,1086.288,104.432
-108.336,1035.048,105.896
-171.288,928.664,95.892
166.652,806.42,74.664
524.112,731.756,9.516
970.876,718.092,31.232
740.54,589.26,219.6
900.848,356.972,418.46
594.14,23.668,444.812
638.06,-388.936,265.228
877.912,-164.456,322.08
801.784,-58.56,319.396
284.504,-91.744,299.632
-97.112,-225.456,231.8
-324.764,-277.672,40.992
-639.524,-384.056,141.764
-789.584,-503.128,154.452
-852.292,-366.976,-116.632
-691.252,-109.556,-484.584
-601.46,-197.396,-580.476
-247.416,-565.836,-637.328
61.732,-1025.288,-605.852
654.652,-1351.516,-677.588
1276.608,-1645.78,-772.504
1928.82,-1741.428,-808.372
2268.224,-1695.556,-619.76
2590.792,-1646.512,-508.008
3073.424,-1687.26,-302.804
3190.3,-1744.844,-106.14
2902.624,-1729.228,108.336
2819.908,-1654.564,160.796
2711.084,-1548.668,263.276
2478.308,-1455.948,463.6
2375.828,-1480.348,672.464
2303.848,-1678.72,884.744
2053.748,-1794.376,1076.772
1711.416,-1795.596,1194.38
1516.704,-1685.552,1146.312
1594.784,-1589.172,972.584
1326.384,-1670.18,983.564
630.74,-1724.104,880.84
185.684,-1459.852,669.78
10.004,-1146.312,355.02
-558.272,-832.284,219.6
-848.876,-619.76,77.592
-642.696,-459.696,-63.684
-251.808,-351.848,-96.624
18.3,-253.516,30.988
33.428,-309.148,-35.624
58.804,-147.62,9.028
205.448,119.072,-11.956
549.244,281.088,-67.588
613.172,260.836,-12.688
395.768,437.492,-117.12
213.256,571.448,-193.98
376.248,789.584,-93.208
399.672,851.56,6.344
146.156,874.252,88.816
-92.72,876.936,118.584
-314.272,904.02,212.524
-361.608,908.9,268.4
-343.796,905.728,228.384
-464.332,904.264,207.644
-413.336,954.04,141.764
-356.484,1001.864,122.244
-322.568,1055.544,129.808
-285.968,1081.408,134.932
-258.152,1053.592,142.496
-251.076,1022.848,128.344
-299.144,1007.476,156.16
-254.98,985.028,155.428
-246.196,979.904,172.508
-215.452,972.828,185.928
-164.7,959.896,168.604
-141.276,966.972,159.82
-144.204,975.268,183.244
-157.868,973.56,210.572
-127.612,960.384,204.716
-172.752,945.744,230.58
-122.488,942.572,194.956
-133.956,952.088,190.808
-120.292,952.332,189.344
-108.824,955.992,190.564
-103.456,947.452,196.42
-110.532,942.816,188.612
-135.176,941.352,186.416
-122.0,941.108,177.144
-145.18,944.524,187.148
-100.04,946.964,174.948
-92.964,964.776,179.584
-104.188,981.612,188.856
-107.116,994.544,189.588
-110.044,989.664,185.196
-138.836,984.296,196.176
-166.652,979.904,211.06
-159.332,969.412,206.668
-141.276,967.948,208.864
-123.708,969.656,214.964
-98.576,970.388,197.64
-95.648,977.952,198.86
-72.224,985.028,195.2
-75.884,993.812,206.912
-61.976,987.224,200.08
-74.176,977.22,204.716
-78.324,967.46,205.692
-95.648,962.824,194.956
-105.164,956.236,188.124
-94.184,950.38,180.804
-106.384,954.04,176.656
-97.112,965.02,164.212
-94.184,975.268,164.212
-98.332,970.632,166.896
-110.288,955.748,166.896
-126.392,948.428,160.064
-109.8,955.016,150.548
-91.012,970.876,157.38
-99.064,975.268,174.704
-109.556,958.92,176.9
-120.048,943.304,171.776
-98.82,943.548,155.184
-73.444,964.776,150.548
-70.76,981.368,150.792
-80.764,980.88,154.696
-120.78,970.876,160.064
-120.292,967.216,144.204
-107.116,978.44,133.224
-106.14,982.588,141.764
-87.84,979.904,140.544
-98.576,972.584,138.592
-107.848,969.9,137.86
-103.212,968.68,138.348
-84.424,971.364,134.932
-70.516,979.66,134.444
-58.804,992.104,126.636
-61.244,991.86,132.98
-72.468,980.88,139.324
-84.18,970.632,133.224
-87.596,972.34,126.148
-91.988,979.66,132.736
-81.008,989.664,123.708
-80.52,999.912,111.996
-96.136,997.472,119.072
-93.94,985.76,117.364
-92.476,977.464,122.976
-94.428,976.244,127.856
-79.056,980.148,131.76
-74.176,979.66,138.348
-64.416,982.588,136.152
-51.728,989.908,133.224
-50.02,992.104,136.152
-54.9,993.812,136.396
-78.324,986.736,140.544
