acc_x[mg],acc_y[mg],acc_z[mg]
-9.028,999.668,-43.676
9.516,1003.084,37.088
48.8,1010.404,14.396
51.728,1031.632,40.016
48.8,1005.768,29.768
68.076,981.856,41.236
93.696,970.144,30.988
51.972,957.944,58.56
7.32,975.024,88.328
1.22,994.056,64.904
7.564,1031.876,50.752
63.44,1063.352,-28.792
34.404,1077.504,-34.892
22.204,1081.652,27.084
73.932,1038.22,6.344
63.684,1009.672,7.808
24.156,969.656,26.352
-24.644,956.236,48.312
-29.768,947.94,69.54
3.904,947.452,51.972
87.84,987.712,-8.54
116.632,994.3,-36.112
78.568,1016.748,-29.28
23.668,1040.66,-4.148
54.412,1040.172,-48.8
61.732,1012.6,-21.96
42.944,987.468,42.944
14.396,976.244,27.572
-1.22,969.656,-25.62
-38.796,949.404,-20.74
0.488,959.652,-60.268
-18.056,938.912,-64.172
-57.34,935.984,-40.748
-40.26,950.38,-49.288
-47.58,947.696,-37.82
-8.052,949.404,-25.864
10.248,933.3,-30.012
-7.564,879.62,-21.96
-51.728,821.06,29.036
-20.008,814.716,15.616
10.492,868.152,-58.316
16.836,902.068,-52.46
49.288,909.632,-35.38
41.724,918.66,-21.472
31.476,913.292,-45.384
55.144,885.964,-103.456
31.476,927.2,-85.4
36.844,1009.672,-78.324
115.412,1039.684,-76.372
137.372,1008.452,-27.328
102.724,977.464,21.716
79.544,880.596,61.488
122.732,884.012,75.64
76.128,983.32,-2.684
136.396,1040.172,-126.88
107.848,986.736,-93.208
70.272,959.896,24.4
152.256,1003.816,29.036
229.848,1063.352,-21.472
233.264,1125.328,-60.024
247.904,1140.944,-128.1
204.96,1133.868,-109.068
205.204,1157.292,-58.804
244.732,1163.148,-127.124
231.556,1140.212,-115.412
207.888,1101.66,-70.516
198.372,1088.24,-85.644
193.248,1080.676,-124.44
177.144,1061.4,-106.872
183.732,1015.284,-92.232
174.704,1010.404,-62.464
203.496,1008.452,-105.896
179.828,1003.816,-91.012
181.536,983.076,-76.616
183.976,982.344,-49.776
188.612,985.028,-49.044
245.464,1014.308,-95.648
243.756,987.224,-71.248
189.588,986.736,-12.2
189.1,985.76,-81.496
152.988,963.312,-82.716
127.612,952.332,-57.096
145.18,938.912,-50.752
194.956,943.548,-36.112
193.248,955.992,-39.772
169.336,979.416,-52.216
189.1,964.044,-95.404
159.332,946.232,-30.744
186.172,949.648,-62.22
172.02,954.528,-64.66
167.628,968.924,-37.82
187.636,975.268,-75.884
145.912,972.584,-52.216
177.388,959.164,-57.584
175.68,964.776,-40.26
193.248,964.288,-63.196
197.884,965.02,-46.116
187.88,965.996,-51.484
175.436,979.66,-39.772
192.028,985.272,-79.056
178.12,975.756,-48.312
183.732,971.608,-40.26
213.744,980.636,-69.052
197.64,989.664,-32.696
195.688,995.032,-54.168
179.34,978.196,-62.464
187.148,1011.136,-81.496
200.568,975.024,-110.288
133.468,973.072,-21.96
194.468,967.216,-59.536
205.936,973.072,-61.244
185.684,969.656,-42.212
169.336,966.24,-48.556
184.464,1001.132,-103.212
179.096,1006.256,-78.812
190.808,988.688,-63.684
214.476,992.592,-74.176
178.12,975.024,-44.896
184.464,985.76,-68.076
189.1,968.924,-69.784
175.68,976.244,-56.852
178.364,955.748,-80.276
177.144,973.316,-50.508
216.428,985.028,-109.312
176.9,969.168,-61.488
181.536,962.336,-35.624
183.244,955.016,-50.02
209.596,1016.504,-99.064
187.148,969.656,-113.216
137.128,942.084,-5.856
203.984,940.864,-25.376
218.136,970.144,-97.356
162.016,996.008,-87.84
180.072,975.268,-92.72
192.76,964.288,-62.22
194.468,966.24,-62.952
157.38,969.168,-59.292
171.532,960.872,-57.584
214.476,980.392,-86.864
188.612,977.708,-67.832
193.248,986.492,-68.808
213.5,987.468,-73.2
186.416,997.228,-58.56
202.276,1001.864,-65.148
208.62,996.252,-63.44
207.644,974.78,-49.288
205.692,980.88,-45.872
197.396,993.812,-63.196
207.156,985.76,-69.052
179.828,955.016,-48.312
183.488,954.528,-39.772
203.008,970.144,-81.984
187.88,977.464,-79.788
172.264,980.148,-60.756
183.488,969.9,-58.316
191.052,966.484,-40.016
209.352,981.368,-65.392
211.06,988.688,-97.356
170.8,974.536,-55.876
183.244,968.436,-39.528
209.84,974.292,-44.408
205.936,987.712,-70.516
178.852,997.716,-71.248
212.28,983.808,-88.572
190.808,974.536,-30.256
191.052,981.368,-49.044
163.48,990.64,-54.656
185.928,989.42,-86.132
177.388,989.664,-48.8
190.564,989.176,-50.264
178.608,978.44,-51.484
196.664,1005.768,-66.856
197.396,1008.452,-79.788
187.636,1002.352,-46.604
190.32,970.876,-28.792
176.412,977.22,-35.38
171.044,993.568,-63.44
154.452,985.028,-40.748
142.252,981.368,-32.452
146.888,972.584,-31.232
140.056,962.092,-28.548
164.944,978.44,-28.548
161.528,1017.48,-60.756
123.708,1050.664,-61.732
146.644,1034.56,-16.348
105.164,1009.428,48.556
45.872,984.296,76.372
97.6,1021.628,-91.744
78.08,1103.856,-155.672
2.44,1063.108,-32.208
33.428,994.3,20.496
-51.972,883.28,86.62
-31.476,850.828,14.396
-19.764,892.064,-41.236
-72.712,874.008,-98.088
-166.896,838.384,-32.94
-315.98,1118.008,-122.244
-338.184,1190.964,-369.904
-316.712,708.82,-306.464
-249.124,165.188,141.276
691.008,-472.384,640.256
1463.756,-1021.628,877.424
1811.212,-56.608,-122.244
2094.74,167.14,-876.936
1162.416,-65.148,-207.4
459.208,-38.796,408.944
930.372,50.752,193.004
1706.78,-142.74,-422.852
1726.544,-229.848,-406.992
1076.284,-196.176,63.684
1026.02,-163.724,308.904
1464.0,10.736,188.368
1830.976,-2.684,59.292
1768.268,1.952,127.124
1680.672,-33.184,197.884
1814.628,-28.792,223.26
1967.128,-9.272,279.136
1888.072,112.484,210.328
1925.892,82.96,55.144
1962.492,34.16,-19.52
1885.632,-66.124,48.556
1588.196,-81.496,119.316
1475.224,-97.112,64.904
1332.484,-138.348,8.54
1060.424,-106.384,45.14
977.464,-161.04,-29.036
930.128,-117.12,-191.54
791.78,-243.756,-186.416
768.844,-222.528,-260.104
590.968,-108.824,-274.5
502.396,-81.252,-313.296
431.392,-91.988,-310.124
310.368,-27.328,-308.66
297.192,44.408,-371.612
312.32,83.448,-369.416
254.98,137.86,-324.276
213.5,158.6,-282.064
133.956,235.704,-271.328
163.236,348.92,-301.096
97.112,416.752,-264.984
71.736,426.024,-195.444
162.992,393.084,-136.152
208.864,382.836,-26.84
237.9,328.424,129.32
129.076,292.312,298.412
203.252,214.964,431.392
397.964,161.284,579.256
498.736,83.692,758.352
470.188,115.656,829.6
442.128,178.608,829.356
569.496,228.384,799.588
856.928,198.86,746.64
905.728,142.008,902.068
884.256,155.428,1011.624
861.808,214.964,1048.712
992.104,193.98,976.244
1218.292,158.112,763.232
1265.872,175.924,737.856
1241.472,202.764,830.82
1119.716,211.304,902.312
1155.34,194.956,836.188
1284.66,134.444,748.836
1288.32,118.34,767.136
1296.86,114.68,616.832
1437.404,210.084,345.26
1570.628,173.24,143.716
1535.004,193.736,232.776
1323.212,50.02,289.628
1401.536,98.088,19.52
1481.568,161.528,-278.648
1435.452,219.356,-403.088
1214.632,175.436,-332.084
1022.36,153.476,-302.316
952.332,241.072,-460.672
982.344,289.384,-609.756
944.036,260.592,-579.988
913.292,164.456,-426.756
875.96,157.38,-391.864
896.944,176.412,-384.788
941.596,187.392,-282.552
1028.704,216.672,-281.82
926.712,197.152,-147.864
827.648,229.848,-9.516
838.14,246.928,130.052
964.288,248.88,175.436
1026.752,318.42,65.636
905.24,283.772,214.232
761.28,262.056,351.848
1342.488,649.528,190.808
1404.464,331.596,-232.776
460.672,302.804,-128.832
200.324,449.936,279.624
655.384,560.956,175.192
794.708,779.824,-132.736
637.572,891.576,-377.712
458.964,915.0,-256.444
367.464,806.176,-104.676
237.168,744.932,41.968
22.936,868.884,-64.416
-559.736,784.216,-267.912
-700.768,577.304,-307.684
-297.192,655.628,-234.24
-44.896,954.04,-202.764
-376.98,813.496,-67.588
-746.64,577.304,144.204
-556.564,698.572,53.68
-80.032,1018.456,-171.288
8.296,1144.848,-379.176
-264.496,945.744,-323.056
-393.816,729.804,-81.984
-359.168,678.32,65.636
-173.972,840.58,-66.856
-148.352,920.856,-96.38
-183.244,907.436,-118.34
-74.42,907.924,-136.884
-81.496,911.584,-4.88
-181.048,778.36,174.704
-126.88,799.344,134.932
55.632,1161.928,-33.184
21.716,1237.568,-157.136
-148.84,1086.044,-71.004
-69.052,927.932,111.264
41.236,1002.352,127.612
205.936,1260.504,-97.6
-75.396,1298.812,-137.128
-46.604,1215.852,-124.196
97.356,1182.912,-1.22
102.724,1172.176,10.98
75.64,1193.648,-72.712
182.756,1238.3,-106.14
452.132,1313.208,-48.556
471.408,1287.832,64.172
375.028,1296.616,-1.708
290.604,1284.172,-95.648
255.956,1173.152,-53.192
439.444,1153.144,-43.676
446.032,1090.436,12.2
304.268,1062.62,-77.104
228.384,1052.616,-103.456
237.168,994.056,-118.584
308.66,1012.356,-101.016
322.324,962.58,-60.512
305.0,931.836,-58.804
277.672,968.192,-99.552
306.22,1000.156,-91.256
296.46,992.836,-83.692
331.84,954.772,-42.212
311.1,941.84,-50.02
262.544,959.164,-55.876
272.06,960.14,-56.852
312.32,943.06,-71.492
291.092,907.924,-56.852
248.392,882.548,-46.604
218.624,898.164,-68.076
244.732,954.04,-117.12
286.7,991.616,-146.888
258.884,943.304,-110.044
268.156,936.472,-89.792
296.216,951.6,-63.928
302.56,935.496,-34.16
330.864,923.052,3.172
325.496,969.656,-26.108
280.356,927.932,-19.52
337.94,940.132,-0.976
430.416,999.912,-73.444
325.008,967.704,-19.032
300.12,913.536,62.22
302.804,903.044,99.308
378.444,955.992,-7.564
404.308,1033.828,-61.244
379.664,982.1,-32.208
327.204,965.996,-16.592
278.648,936.228,12.2
262.788,893.04,9.028
249.612,843.264,24.644
294.752,888.16,6.588
352.58,937.204,-46.36
439.932,995.032,40.504
573.888,1160.708,-0.244
476.776,1132.648,-107.116
327.936,976.0,-70.76
340.136,664.656,81.74
451.4,393.816,381.86
546.316,427.488,400.404
638.548,765.672,134.688
763.232,929.152,-173.972
895.48,884.256,-527.772
1046.516,516.792,-762.256
862.296,20.008,-537.044
584.624,15.128,120.536
667.828,89.548,675.148
832.04,-189.588,765.916
870.592,-423.34,522.892
1083.36,-449.692,517.524
1228.052,-351.116,556.076
1275.876,-365.512,168.116
1039.196,-373.32,42.7
918.172,-337.208,124.196
971.608,-367.464,32.208
1082.384,-249.856,12.2
1098.0,-143.96,-29.036
948.428,-249.856,-36.6
895.724,-254.736,112.728
1008.208,-245.952,154.94
1140.456,-184.952,70.028
1206.336,-177.632,81.984
1233.908,-233.02,105.896
1416.664,-228.872,188.124
1541.836,-73.932,341.112
1755.58,-48.068,295.484
2036.18,-52.704,229.116
2160.132,-141.032,162.748
2083.028,-231.556,283.772
2045.452,-132.98,295.972
1901.004,-72.956,222.772
1857.572,29.28,106.384
1780.712,4.636,76.128
1635.288,-146.644,117.364
1244.156,-204.96,181.292
1244.156,-204.96,181.292
1114.104,-166.896,119.56
999.424,-149.572,93.94
897.188,-244.244,162.26
716.628,-229.604,62.464
471.164,-81.984,114.68
611.708,-21.96,-36.112
620.004,-67.588,-45.628
418.704,-101.748,6.588
398.696,-24.888,-62.464
496.784,108.824,-183.0
538.264,171.044,-216.184
498.736,127.612,-215.696
473.848,130.54,-235.46
402.844,244.244,-268.4
411.628,286.456,-192.028
410.408,323.788,-235.948
409.432,350.628,-265.96
389.912,357.704,-180.072
454.328,379.908,-208.376
478.728,496.052,-285.236
474.336,548.268,-330.376
512.4,563.64,-291.58
532.896,566.568,-283.04
559.98,556.808,-317.932
518.5,502.884,-236.924
461.892,440.908,-122.976
439.688,454.572,-51.728
487.512,486.536,-101.016
466.772,451.4,-11.224
400.648,374.784,144.204
393.572,306.708,227.652
276.696,266.448,438.224
373.32,185.44,656.36
540.46,148.596,864.248
513.132,107.36,975.756
440.42,77.104,974.292
474.092,206.912,936.716
626.104,256.932,904.752
691.74,160.064,977.464
785.436,136.152,1040.66
753.716,180.316,1025.288
829.112,263.52,1011.868
1085.068,254.004,886.452
1152.168,259.86,944.28
1142.164,250.344,927.2
1175.592,180.072,864.98
1296.616,226.92,688.568
1570.384,315.492,441.396
1664.08,347.456,299.144
1557.696,305.244,482.632
1510.116,282.552,566.568
1575.02,292.312,449.936
1756.068,312.808,276.452
1881.484,393.572,88.572
1587.952,310.856,95.16
1200.968,120.536,85.888
1289.052,90.524,-154.452
1406.904,186.66,-528.016
1117.52,267.668,-693.936
814.96,496.296,-743.224
697.108,280.356,-958.432
745.176,359.412,-928.908
778.604,449.936,-747.128
652.456,433.344,-696.864
590.48,482.144,-603.412
577.792,502.64,-498.492
724.192,467.992,-377.956
868.152,428.464,-162.26
859.124,368.44,48.068
785.436,326.716,197.884
883.524,353.068,314.76
978.44,471.408,226.92
958.188,511.18,133.224
878.888,750.3,233.02
688.568,670.756,69.296
589.016,358.68,-173.728
553.148,467.748,-268.644
435.784,723.46,-72.468
212.036,873.032,-75.884
56.12,824.72,13.908
161.04,746.884,29.524
145.424,795.196,10.98
-25.132,899.384,-69.052
-489.22,841.556,-205.448
-706.868,736.88,-115.9
-169.824,1195.112,-21.96
233.996,1388.36,28.304
11.468,1064.816,67.832
-157.624,884.256,8.784
-306.952,729.316,-33.672
-359.9,848.388,-58.316
-175.924,1082.14,-155.672
17.568,1087.264,-113.948
-41.236,905.484,-16.592
-125.172,820.816,30.988
-127.856,940.864,-81.252
-112.484,1076.04,-200.568
-306.22,965.996,-198.372
-232.532,793.488,-177.632
-49.776,821.06,-3.416
-13.42,836.92,8.54
-110.288,725.412,57.584
-175.436,661.728,6.832
-178.12,703.696,-4.148
1.22,833.26,-208.376
-39.04,914.024,-191.54
-86.132,790.56,-88.084
-157.38,723.46,-22.692
-212.768,755.424,-8.784
-18.544,1022.116,-80.52
247.172,1218.048,-123.464
341.6,1225.368,-38.796
376.492,1195.6,4.636
267.668,1168.028,86.62
120.048,1301.008,-13.176
240.584,1555.988,-203.496
382.592,1605.276,-224.724
354.776,1414.468,-125.172
215.696,1354.444,-101.748
130.052,1395.68,-165.432
191.54,1423.74,-217.404
301.584,1314.672,-180.072
497.272,1249.036,-80.52
443.836,1112.884,4.88
331.352,1072.136,-49.532
301.828,1015.04,-60.756
301.096,978.196,-106.384
296.704,1035.536,-158.6
262.788,1040.416,-181.292
251.808,1001.376,-138.836
295.972,934.276,-85.888
390.156,901.58,-50.508
416.752,887.184,18.788
342.82,911.096,-46.848
238.876,932.324,-112.24
272.06,995.764,-150.792
272.548,972.096,-111.02
307.684,909.876,-44.164
325.984,885.232,-21.228
285.724,919.148,-43.432
271.816,973.804,-109.068
222.528,924.028,-86.132
238.876,912.316,-43.188
247.66,950.868,-44.652
226.92,911.34,-50.508
241.804,873.032,-20.252
314.272,883.036,1.464
307.44,955.016,-28.06
211.06,1014.064,-75.396
187.148,1074.332,-122.488
170.312,1015.528,-93.208
197.152,968.924,-45.628
227.164,968.68,-55.388
192.76,983.32,-92.476
142.74,976.488,-129.564
124.684,942.816,-127.856
164.212,1004.792,-130.784
209.352,1046.516,-149.572
165.676,985.76,-106.628
177.632,859.124,-14.64
286.212,913.78,50.02
339.892,954.528,-47.336
470.432,897.188,-207.4
635.132,880.596,-312.564
397.964,885.232,54.656
239.12,610.732,267.18
466.528,811.3,145.668
712.968,881.084,-130.296
832.528,837.408,-214.232
1152.656,778.848,-56.608
1067.988,461.404,219.112
721.508,336.232,758.596
835.456,228.384,772.504
945.744,186.904,260.592
1240.74,399.428,32.696
1105.076,350.628,-151.524
935.984,117.608,272.304
951.844,154.208,564.86
1317.356,10.492,421.388
1349.808,-280.844,233.02
1098.0,-303.048,210.328
1113.86,-39.04,169.092
1405.928,-22.936,-3.416
1377.868,-130.296,59.536
1160.708,-146.4,193.492
1298.568,-426.268,355.264
1673.352,-386.74,508.984
1973.716,-267.424,237.412
2013.244,-202.764,194.712
2000.556,-240.584,319.152
2002.02,-376.248,213.5
1855.376,-447.496,187.392
1702.144,-535.092,160.064
1544.764,-366.0,76.372
1442.528,-261.568,48.312
1313.452,-365.024,170.068
1192.672,-353.312,116.144
1103.612,-350.628,103.456
958.92,-390.644,138.836
785.924,-380.152,112.484
598.776,-260.104,178.12
453.596,-124.684,156.648
526.552,11.468,-49.532
557.052,-39.528,-303.048
345.26,31.72,-168.848
297.924,58.56,-123.708
190.564,196.176,-126.392
300.364,267.424,-262.544
397.72,391.62,-501.664
327.936,345.016,-487.268
186.416,362.828,-367.708
243.024,414.312,-431.636
396.744,451.888,-562.908
341.356,374.54,-418.704
427.976,376.736,-347.944
396.256,299.632,-276.452
282.796,338.916,-199.348
351.848,371.368,-211.06
331.352,388.448,-205.936
360.876,406.016,-128.1
453.84,350.14,-45.872
236.436,204.96,125.904
-104.92,255.224,396.256
188.612,317.2,418.948
590.48,177.388,487.024
560.956,31.964,718.58
528.992,119.072,717.116
692.228,315.736,556.076
811.544,219.356,611.708
894.016,170.068,901.336
981.124,218.136,964.776
868.152,227.164,974.292
897.432,224.236,927.688
1132.404,205.204,791.78
1268.068,186.416,684.42
1214.388,221.552,680.516
1264.164,194.956,621.712
1374.94,245.952,528.016
1464.488,169.336,568.764
1517.68,113.704,501.664
1427.4,120.048,286.7
1506.7,190.564,250.588
1598.2,180.072,225.212
1581.12,217.648,175.924
1423.252,196.176,167.14
1198.284,148.84,103.944
1251.476,166.896,-15.86
1384.944,280.356,-180.56
1474.98,305.976,-317.688
1348.588,154.94,-317.2
1013.088,334.524,-489.952
1056.52,365.024,-822.768
998.448,414.068,-895.968
1075.796,546.804,-656.116
919.392,402.844,-511.668
782.02,427.976,-578.036
767.136,337.696,-512.156
784.46,362.096,-382.592
820.328,361.852,-236.68
857.416,337.208,-154.94
784.216,361.852,-159.088
817.888,431.392,-142.74
893.04,479.948,-120.292
965.996,427.488,-106.14
942.328,354.776,24.644
950.38,330.376,124.196
954.528,338.916,148.84
955.748,316.224,121.024
977.22,339.16,94.916
1090.68,347.212,36.112
1164.612,406.26,99.308
1188.036,349.652,145.18
1112.396,245.708,205.692
1189.256,351.848,75.152
1022.36,404.796,-65.636
660.508,511.668,-132.736
664.656,581.696,-99.552
824.964,526.796,-144.692
635.864,356.972,-159.088
192.272,395.036,-132.248
-204.716,317.2,-12.688
-554.612,468.236,83.448
-742.736,523.624,-54.9
-729.072,798.612,-144.936
-315.492,1064.084,-249.124
-10.004,975.512,-290.116
-332.328,714.432,53.924
-504.592,620.492,229.36
-456.524,939.156,-75.884
-528.26,1158.756,-303.048
-441.152,1225.124,-293.044
-281.332,1142.896,-113.704
-262.056,1034.804,28.06
-322.324,928.176,112.972
-243.756,945.988,20.252
-183.976,1075.308,-165.188
-293.776,1035.292,-165.188
-267.668,1002.352,-83.448
-215.696,1040.416,-48.556
-171.532,1016.992,-0.244
-1.952,1050.42,-2.684
39.284,1050.664,-41.48
-69.784,1022.116,67.588
-181.292,973.316,20.984
-211.304,957.944,-72.956
-214.476,983.808,-116.144
-244.732,1159.488,-192.516
-249.124,1200.236,-258.884
-176.168,983.32,-111.752
85.156,921.832,105.164
150.304,929.884,153.232
217.16,1114.592,-36.356
71.98,1227.076,-193.98
-33.672,1132.16,-126.148
317.444,945.744,94.672
592.92,966.972,208.864
436.272,986.736,79.544
216.428,1071.404,-76.372
272.304,1084.092,-62.464
429.196,1113.616,-37.82
433.832,1078.236,-62.22
348.92,1091.168,-70.516
305.488,1083.604,-46.116
361.608,1088.484,2.928
386.252,1089.704,-36.356
359.168,1073.844,-93.208
303.536,1118.252,-179.096
251.564,1061.888,-174.704
175.68,959.896,-54.9
240.584,918.66,47.58
311.344,995.276,-34.404
301.34,994.3,-71.736
314.272,993.812,-109.312
287.432,963.312,-102.968
258.152,909.632,-53.68
252.052,894.992,-76.86
202.764,884.988,-80.276
238.144,940.132,-93.94
316.712,997.228,-157.624
274.988,929.152,-39.528
278.16,913.78,-6.344
318.664,942.572,-45.384
321.836,991.616,-99.552
276.94,962.58,-62.464
305.244,956.236,-43.92
314.516,994.544,-56.608
298.412,987.224,-61.976
230.58,924.516,-31.72
247.416,924.272,-76.372
210.084,878.644,-34.892
189.588,955.992,-32.94
226.92,994.544,-88.816
188.856,946.232,-54.168
162.992,908.168,-53.924
269.864,954.528,-71.98
308.172,891.088,-1.22
211.792,822.28,34.16
253.028,762.5,-20.252
353.312,762.012,11.956
416.752,745.42,130.54
427.976,717.604,223.504
358.924,747.128,162.748
381.86,661.484,78.568
423.096,412.116,297.192
667.584,333.304,395.768
916.708,298.412,183.488
1108.004,242.292,-11.956
1203.408,211.548,-184.708
1126.792,174.704,-127.612
1364.692,266.448,-51.24
1965.908,342.576,-264.252
1858.304,88.328,-237.656
1249.036,-390.888,185.684
816.912,-373.076,659.776
934.032,-172.996,534.848
1290.272,14.152,28.548
1492.792,36.844,-174.948
1257.82,-114.436,-150.548
908.412,-143.228,73.688
947.94,-101.504,74.42
1161.684,-93.94,-22.204
1220.0,-30.256,1.952
1257.82,-33.184,-33.916
1225.368,-137.616,-7.076
1272.46,-78.812,90.036
1512.556,4.148,55.388
1643.584,-44.652,82.228
1745.82,-90.524,276.696
1976.644,-32.208,250.1
2025.932,-62.952,138.836
1990.064,-54.9,26.352
1883.192,-66.612,10.004
1830.488,-7.564,93.452
1590.148,-60.512,200.324
1473.272,-165.432,230.824
1383.48,-188.856,106.384
1229.028,-73.688,0.976
1087.508,-103.944,-10.248
1069.208,-148.108,-26.352
959.164,-155.428,-56.12
690.52,-161.284,-46.604
582.672,-96.136,23.668
501.908,-35.136,-111.508
413.092,85.888,-153.964
401.624,122.488,-152.5
385.032,92.476,-238.632
341.6,127.368,-310.856
397.232,213.744,-342.82
522.16,322.568,-436.272
431.148,287.188,-388.692
413.092,277.916,-389.912
423.584,270.596,-345.748
395.524,263.032,-261.812
396.988,279.136,-273.28
509.228,366.732,-381.86
507.276,423.096,-439.2
359.168,396.012,-325.74
296.704,401.868,-281.332
304.024,386.496,-276.696
316.224,321.348,-229.116
236.436,271.328,-73.688
192.516,327.204,-6.344
189.588,300.12,66.612
263.52,192.516,137.128
254.004,22.936,456.036
103.944,78.324,799.588
64.172,255.712,740.54
305.244,279.136,646.112
509.228,73.932,895.236
515.572,-29.036,1274.412
582.428,86.62,1236.592
753.472,144.936,987.712
1006.5,184.708,927.932
1181.936,195.932,927.688
1220.976,177.632,1069.696
1258.308,101.992,1116.788
1425.204,34.892,1134.844
1559.892,126.88,971.608
1549.156,159.332,815.204
1610.644,80.032,864.98
1579.9,-19.52,957.7
1589.416,56.12,742.004
1583.804,119.804,351.848
1567.7,122.976,171.776
1523.292,16.348,189.1
1413.248,-52.216,226.432
1526.22,206.912,-173.24
1381.528,334.768,-560.468
1143.384,173.728,-478.972
1032.364,146.644,-315.004
973.072,249.856,-533.872
1070.672,284.26,-756.156
893.04,267.912,-628.544
664.9,276.94,-552.904
792.756,320.372,-607.56
1017.48,309.636,-618.784
881.816,234.972,-490.196
753.228,218.868,-305.488
794.952,242.048,-134.932
825.94,193.98,-78.568
899.628,169.092,-26.596
1053.592,165.432,14.152
982.1,109.068,136.396
989.664,39.284,383.812
1470.1,296.704,355.264
1595.272,511.424,-65.88
1088.972,469.212,-48.312
548.024,383.324,138.104
822.28,674.66,110.776
999.18,451.4,-113.948
761.524,327.448,-101.504
134.444,280.356,-1.952
-251.808,457.5,-21.228
-242.78,679.052,-52.948
-263.276,720.044,-99.796
-392.84,796.66,-198.86
-559.98,712.48,-226.188
-498.492,757.62,-204.716
-165.432,976.488,-205.692
-46.116,957.456,-170.068
-167.384,747.128,-84.912
-428.22,548.756,-99.308
-654.652,637.084,-267.912
-448.716,786.656,-415.532
-209.352,794.464,-291.336
-313.296,596.58,-61.244
-420.656,646.112,9.272
-445.3,852.536,-66.124
-398.452,932.08,-191.296
-245.952,1049.688,-223.992
-203.008,953.064,-120.78
-136.64,973.56,-102.236
-153.232,1064.816,-176.656
-225.212,1055.3,-170.8
-137.616,1093.364,-148.352
-3.416,1098.732,-78.812
44.408,1072.624,-35.38
-53.436,1042.856,-15.128
-126.88,1090.436,-89.06
-13.908,1220.732,-183.244
46.848,1348.1,-194.468
31.964,1357.86,-119.316
33.428,1332.972,-105.164
10.004,1252.94,-78.08
10.004,1203.896,-26.108
91.012,1256.112,-101.504
79.056,1325.164,-158.356
30.012,1262.456,-162.748
60.756,1203.652,-88.816
159.088,1196.332,-47.336
252.784,1252.696,-172.508
145.912,1157.048,-170.068
90.036,1066.28,-186.66
83.204,980.636,-167.628
162.016,997.96,-117.852
228.628,1085.556,-160.552
213.256,1048.956,-149.328
214.232,948.428,-102.48
226.188,870.104,-49.288
238.632,903.044,-63.196
225.212,960.872,-142.74
195.2,965.264,-169.092
220.088,986.492,-172.264
180.316,934.276,-132.248
176.412,904.508,-121.756
159.82,929.396,-148.352
167.872,974.78,-158.356
165.92,1026.264,-165.92
207.644,1086.288,-190.808
260.348,1104.832,-199.592
296.46,1032.852,-131.028
379.176,1003.816,-105.164
429.928,1005.768,-176.412
339.892,944.28,-164.7
322.568,676.368,78.568
478.24,680.76,295.972
603.9,686.86,140.788
742.492,622.932,-71.492
569.496,740.052,36.844
479.704,847.412,-59.78
416.996,743.468,-20.008
545.828,671.976,223.26
751.764,595.848,-17.568
823.256,392.596,-77.104
717.116,189.832,189.344
898.652,303.048,381.86
1105.808,340.38,282.796
1113.616,318.176,169.092
1148.508,250.1,138.348
1174.616,82.716,-1.22
1176.324,43.432,28.304
1420.08,175.436,183.0
1517.924,208.864,180.56
1269.776,78.812,155.916
980.636,7.076,150.304
738.832,38.308,40.992
789.34,77.104,-155.916
1225.612,70.76,-228.384
1462.78,-36.6,-87.596
1367.132,-54.412,76.372
1374.94,-27.328,84.18
1301.252,-64.172,49.776
1293.688,-22.692,12.2
1346.392,-104.676,-86.864
1343.708,-100.284,10.736
1588.684,2.44,185.684
1803.404,-120.536,172.996
1807.308,-92.476,198.372
1872.944,-170.312,47.092
1803.404,-196.42,-30.5
1713.612,-127.368,40.992
1650.416,-227.652,79.544
1452.532,-228.628,217.892
1504.26,-154.94,85.4
1427.4,-159.088,-29.28
1256.6,-248.88,109.312
1173.152,-240.584,79.544
1052.616,-195.932,38.552
857.172,-11.956,55.388
807.152,62.708,0.488
802.516,-140.056,38.796
605.608,-175.436,84.668
477.996,44.652,80.032
446.764,178.608,-101.992
458.232,238.144,-250.832
414.556,186.904,-279.136
476.776,214.476,-254.248
373.564,232.532,-207.4
446.276,357.948,-376.004
518.988,392.596,-408.7
390.644,267.18,-238.632
332.084,312.076,-243.268
371.612,346.724,-370.636
287.188,347.456,-311.1
173.484,367.952,-206.668
214.476,464.088,-210.328
250.588,503.128,-216.184
322.324,482.632,-195.444
322.324,449.936,-148.84
205.448,396.744,-19.764
195.2,389.424,57.584
318.664,340.38,93.94
405.772,260.348,243.756
294.508,250.832,506.788
233.996,267.424,624.884
399.428,274.988,571.936
446.032,222.04,626.348
552.66,129.32,835.944
667.096,119.316,1064.572
600.24,81.496,1132.892
612.196,23.424,1116.544
800.32,82.716,1007.476
1093.852,114.192,879.376
1103.124,11.712,954.284
979.416,-148.596,1047.736
1015.772,-104.432,932.324
1169.248,183.732,730.292
1424.228,277.184,465.796
1425.448,205.692,391.132
1367.62,115.412,417.24
1396.412,142.252,357.216
1379.576,188.368,362.096
1347.368,165.676,411.872
1443.748,234.24,338.916
1529.636,238.144,257.42
1549.644,216.184,228.14
1289.296,85.888,218.868
1389.092,73.932,93.696
1388.116,447.74,-361.364
1242.448,485.072,-622.688
1179.74,281.332,-439.444
1030.9,150.792,-368.928
964.532,290.36,-482.876
827.404,401.38,-563.884
935.008,460.672,-643.672
865.224,347.212,-533.384
962.336,177.144,-437.248
990.396,128.344,-340.868
779.092,274.5,-192.76
758.352,365.024,-160.796
898.408,370.88,-150.304
1053.836,302.56,-102.48
1040.904,241.56,49.288
975.024,223.016,130.784
976.0,232.288,161.772
1078.48,209.352,133.956
1069.452,169.824,140.3
1074.576,163.724,106.872
1097.756,200.812,99.064
1160.952,207.4,160.064
1406.416,276.452,85.4
1366.4,223.016,100.04
982.588,171.776,254.004
607.072,264.008,99.796
511.18,614.392,-105.164
890.6,494.344,-167.14
739.564,257.42,72.468
102.48,149.816,88.572
-523.868,229.848,-210.084
-533.14,669.536,-207.644
-468.48,878.156,-124.928
-588.04,906.216,-184.708
-309.148,1028.948,-309.392
-150.792,1023.824,-214.72
-258.396,936.716,-41.48
-291.092,892.796,-59.78
-390.644,847.168,-83.448
-366.488,845.46,-152.256
-350.14,776.896,-70.516
-261.08,711.504,92.232
-121.268,886.452,71.736
-169.824,958.676,25.132
-120.78,1051.396,-29.768
-81.496,978.928,-60.512
-160.552,848.388,-22.204
-188.612,846.436,-42.212
-168.116,873.764,-93.452
-123.464,889.624,-150.548
-59.536,924.76,-134.2
-45.14,913.048,-112.484
-31.964,898.408,-31.476
23.668,1062.132,-76.86
-26.108,1089.216,-76.128
29.768,1062.376,-35.624
164.944,1278.072,-160.552
45.384,1314.672,-174.704
37.82,1190.476,-41.236
232.532,1071.648,158.356
296.704,1116.3,142.984
347.456,1262.944,-6.1
411.872,1439.844,-194.468
513.864,1220.732,-44.896
580.72,1069.208,148.352
498.736,1046.516,161.284
457.988,1140.944,-8.784
465.552,1172.908,-131.272
498.98,1072.38,-61.732
559.736,1015.04,2.44
523.38,1008.208,33.672
500.932,1052.616,-20.984
507.032,1098.732,-62.952
557.54,1113.616,-130.54
486.536,1016.26,-74.664
413.336,956.968,-57.34
386.252,986.736,-61.488
422.364,1035.292,-112.24
447.008,1012.356,-117.608
415.288,971.852,-88.328
336.476,919.392,-59.536
318.42,938.668,-59.536
339.892,958.188,-61.976
351.604,926.468,-36.6
392.352,1005.524,-111.996
285.724,1000.888,-88.572
236.924,996.496,-57.096
271.816,965.752,-10.248
281.576,852.292,62.464
308.66,819.352,160.308
272.792,904.996,90.036
247.172,961.604,-42.7
214.964,968.68,-110.776
188.124,874.984,-121.756
131.272,636.84,-75.396
260.348,463.6,131.516
414.312,299.144,99.308
943.792,440.664,56.608
1382.992,557.784,-223.748
1270.752,589.992,-345.992
877.668,430.66,-91.5
782.996,238.632,119.56
993.324,35.624,139.08
1107.028,-202.764,5.124
1109.712,-219.112,252.296
1442.772,-18.3,330.864
1666.276,369.66,-20.74
1657.248,197.64,-82.472
1322.236,-240.828,228.628
1024.312,-319.152,589.992
1026.508,-243.756,822.28
1705.804,-144.936,410.896
2203.076,15.128,-103.456
1910.764,-215.208,-162.016
1913.692,-217.404,30.988
2021.54,-221.308,9.516
1834.88,-169.092,-6.1
1564.284,-256.932,40.748
1531.344,-366.0,284.748
1542.324,-424.316,347.7
1521.34,-338.184,102.724
1399.34,-343.796,-25.864
1238.788,-338.428,37.82
1030.656,-420.656,142.008
870.348,-318.664,105.408
690.764,-208.132,4.392
553.88,-219.356,38.064
445.056,-200.812,25.376
403.82,-119.804,-21.96
362.096,26.84,-113.704
374.784,242.292,-195.688
468.968,345.992,-303.048
504.348,360.876,-401.624
477.02,281.332,-372.588
415.776,287.188,-322.812
374.052,258.152,-278.648
276.452,302.316,-262.788
258.152,361.608,-309.148
369.66,369.172,-412.116
437.736,319.152,-433.1
249.612,283.528,-284.016
248.88,452.62,-420.656
241.56,499.468,-373.808
263.032,457.5,-313.54
335.5,340.624,-214.476
205.204,224.724,48.8
100.284,216.672,283.04
259.616,220.332,363.56
332.816,129.564,497.516
452.62,121.024,575.352
397.72,94.184,745.42
343.552,80.032,955.016
793.488,-40.504,928.908
978.928,-50.508,1035.78
894.26,74.176,1118.496
904.752,190.32,1021.14
1056.032,95.404,1016.992
1302.96,-27.572,1033.828
1371.524,26.352,1030.412
1369.572,51.972,1038.22
1319.308,9.028,1049.444
1491.816,-41.968,832.772
1612.84,6.588,500.444
1660.908,75.396,300.12
1602.592,81.252,353.068
1283.684,66.368,315.492
1412.516,216.672,70.272
1646.756,170.556,-122.488
1582.828,59.048,-78.08
1499.136,5.368,-111.264
1243.18,47.336,-395.28
943.548,233.264,-604.632
1052.86,235.704,-592.188
1013.82,129.564,-426.024
891.576,224.724,-528.26
965.264,249.856,-678.32
930.616,281.82,-618.052
848.388,299.388,-572.668
871.812,252.54,-436.272
885.232,197.64,-329.644
927.688,198.128,-319.396
956.236,254.004,-317.688
985.516,258.396,-279.136
994.544,206.424,-121.268
1028.46,215.208,-27.084
1046.76,210.816,41.724
1051.152,215.452,105.408
1057.496,197.152,146.888
1041.392,186.416,172.996
1086.044,183.976,191.296
1129.232,220.088,154.208
1007.232,193.004,134.688
910.608,208.62,145.18
934.276,174.46,113.704
891.088,238.144,107.848
959.408,239.12,77.836
1071.892,198.372,69.54
1028.948,131.76,166.408
970.388,104.188,328.912
1150.704,169.824,396.744
1517.68,278.648,64.66
1276.852,287.92,-32.94
1081.164,341.112,-247.172
469.456,451.4,-232.044
301.584,424.072,-112.728
249.124,438.712,71.492
-48.8,404.552,68.808
-549.732,321.592,36.112
-671.0,646.844,-245.22
-744.688,613.66,-331.84
-360.144,842.288,-244.0
-223.992,854.244,-154.696
-424.56,644.16,-135.176
-400.404,732.244,-227.408
-320.128,890.356,-365.268
-314.76,848.144,-294.508
-325.008,628.056,-36.356
-313.052,609.512,142.008
-330.62,837.408,62.464
-357.948,979.66,-71.248
-276.94,978.928,-125.416
-203.74,762.256,52.46
-147.132,606.34,331.352
-144.204,616.1,185.196
-396.012,811.056,-21.716
-521.672,1034.316,-272.304
-460.916,1048.956,-238.144
-206.912,1039.44,-46.848
-16.836,1117.764,142.252
-15.128,1093.364,161.284
-58.56,1187.304,69.784
-159.82,1281.732,-50.508
-247.904,1258.308,-81.252
-215.208,1178.52,10.248
25.132,1075.064,259.372
242.78,1288.564,181.78
59.048,1418.616,21.96
-135.42,1428.62,-119.804
-138.348,1350.052,-135.176
133.468,1258.308,61.976
248.148,1172.664,120.536
178.852,1173.152,-10.98
20.252,1154.12,-154.94
-37.82,1100.684,-196.908
37.82,1049.688,-141.764
247.66,1041.636,3.66
370.88,1086.044,28.06
373.32,1171.444,-10.004
254.492,1186.572,-43.676
249.612,1125.572,-22.448
336.232,1046.028,16.592
325.74,1041.148,9.272
229.36,989.176,-57.584
178.852,1020.652,-76.616
176.656,990.152,-61.488
237.9,934.276,-5.368
302.56,944.036,4.88
282.796,1019.676,-76.372
167.628,962.58,-78.324
179.096,979.66,-109.8
127.856,932.324,-40.504
165.188,941.596,14.152
225.212,1001.62,2.44
167.628,984.052,-18.544
84.668,922.564,-8.052
112.24,890.356,16.592
118.828,893.284,22.936
140.544,1012.844,-53.924
178.852,1042.612,-73.444
177.876,977.22,5.368
212.036,953.796,40.26
221.308,991.372,20.984
192.272,1009.184,-20.008
176.656,978.44,-26.352
216.916,989.42,-17.324
222.528,990.884,10.98
164.212,959.652,25.132
134.932,969.656,-2.44
128.344,1021.384,-50.02
139.812,1020.652,-49.776
106.628,998.936,-29.28
123.22,971.852,15.86
157.136,1035.048,50.996
115.656,1076.772,61.976
-34.648,1093.364,34.404
-132.004,1086.776,-11.224
-221.552,948.428,0.732
-206.912,793.0,92.72
-101.992,866.444,73.688
-113.948,899.384,-10.736
-79.3,877.668,-172.996
881.328,1393.484,-483.12
1548.424,1455.46,-660.752
1397.388,882.304,-274.988
867.176,192.272,3.904
378.932,-442.372,683.932
160.552,-45.384,1662.86
571.936,312.564,1456.192
1252.208,534.848,611.464
1431.06,579.256,18.3
1179.984,252.784,-159.576
981.124,35.38,-99.308
869.616,-98.82,9.272
658.068,66.124,257.42
586.82,-101.504,204.228
717.116,-147.132,11.712
951.112,-211.548,-213.988
979.904,-119.316,-354.288
1087.996,200.812,-332.084
1176.08,-87.352,-9.028
936.716,-282.308,82.96
943.06,-299.632,-27.084
851.072,-288.408,38.064
850.584,-209.352,10.248
951.112,-297.924,-59.048
1071.648,-186.172,-121.512
1101.904,-175.436,-218.624
945.5,-223.016,-15.372
994.3,-171.532,47.824
1085.556,-121.268,-18.544
1098.488,-219.6,73.932
1246.352,-320.616,111.996
1539.64,-193.248,134.444
1726.056,-196.664,120.536
1583.072,-160.064,284.016
1942.728,-218.868,301.096
2445.612,-117.364,-95.648
2407.792,69.296,-240.096
2313.12,127.124,-163.968
2255.292,-13.42,-106.628
2202.832,-84.912,-193.248
1931.016,2.196,-280.6
1717.272,40.26,-226.432
1701.168,-178.12,-262.788
1428.864,-536.8,-97.844
1035.536,-678.808,30.5
694.424,-516.304,-115.168
477.752,-262.3,-213.988
323.056,-128.1,-303.536
216.672,-15.372,-423.828
84.668,-1.952,-450.424
-0.976,16.836,-432.612
9.272,37.332,-422.852
-122.0,57.34,-331.108
-193.004,196.908,-336.476
-62.22,312.808,-474.336
-144.448,313.54,-439.688
-142.496,312.076,-322.324
-205.448,330.132,-159.576
-166.408,433.832,-103.456
-126.148,491.66,-92.476
-118.584,493.368,-12.444
65.636,349.896,69.784
206.424,242.292,274.256
258.884,196.42,442.128
136.64,184.708,606.34
296.948,178.12,573.4
582.184,130.784,544.12
838.628,74.176,651.236
793.976,69.052,941.84
725.9,108.336,1032.12
916.952,31.72,939.644
1151.436,67.588,890.6
1256.6,120.048,864.004
1207.068,121.756,870.836
1150.216,84.424,934.52
1244.644,93.452,911.096
1315.404,123.22,841.312
1432.768,124.44,653.188
1391.776,159.332,505.324
1348.344,144.204,593.164
1450.336,111.752,466.284
1649.44,185.684,192.272
1704.584,218.136,132.736
1565.016,170.312,192.028
1300.764,46.848,335.256
1442.772,54.168,144.936
1509.872,158.112,-208.376
1216.096,228.384,-432.612
1020.652,325.008,-404.064
1069.452,354.044,-351.604
1052.86,266.204,-430.416
904.264,379.176,-673.196
803.98,527.772,-747.128
753.96,497.028,-647.332
622.932,374.784,-443.348
674.904,412.116,-512.644
778.36,538.996,-643.916
837.652,536.068,-584.868
761.524,492.392,-470.92
700.28,437.736,-336.72
839.848,420.168,-280.356
925.492,425.536,-251.32
923.296,402.356,-151.036
990.884,436.76,-56.852
1085.8,455.304,-72.468
1096.78,380.152,63.196
1102.148,407.724,15.372
906.46,403.82,23.668
709.308,417.972,200.568
676.124,280.356,233.996
647.332,209.84,158.112
427.0,447.984,-213.988
244.976,482.388,-39.772
183.976,385.764,254.98
-34.892,447.496,270.108
-146.888,629.764,21.228
-201.544,752.496,-145.668
21.472,787.388,-166.896
38.064,778.848,55.876
-210.084,654.652,190.076
-258.884,812.276,-79.788
-201.788,998.692,-181.048
-81.008,1120.204,-196.664
-152.012,1022.36,-72.224
-450.18,721.264,137.616
-477.508,754.448,-9.516
-284.016,1158.268,-64.904
-186.66,1254.648,-93.94
-327.204,1034.316,35.136
-438.468,959.652,45.628
-404.552,1043.832,-10.492
-338.916,1150.704,6.344
-268.888,1276.12,-57.096
-315.004,1275.632,-145.912
-358.68,1169.736,-183.244
-313.296,1047.98,-152.988
-221.064,961.848,-130.296
-215.452,938.424,-154.208
-176.168,1069.696,-201.788
-171.044,1049.2,-179.828
-63.684,894.504,-41.48
137.372,902.8,165.188
249.368,1045.54,162.992
259.128,1234.64,52.704
154.452,1429.84,-82.96
67.344,1514.752,-240.584
32.208,1348.588,-271.084
134.2,1040.172,-97.844
428.952,946.232,202.764
602.192,1055.3,328.18
594.384,1067.744,266.204
541.436,1117.276,245.708
453.84,1192.916,144.936
357.216,1237.324,47.336
373.808,1158.268,19.764
457.5,1078.236,109.312
396.256,1001.376,165.92
352.336,1034.804,40.016
231.556,1072.868,-44.652
177.876,1090.924,-106.872
268.156,1033.34,-64.904
351.604,931.348,53.68
343.552,881.084,98.332
284.748,907.924,54.168
237.168,947.94,-1.22
184.22,988.444,-60.024
249.856,969.9,-116.144
266.692,895.968,13.908
265.716,808.86,103.212
285.236,908.9,87.352
266.936,1027.484,-29.768
151.036,991.86,-94.184
82.716,983.076,-90.28
158.6,952.332,-90.768
256.444,904.02,63.928
282.796,903.532,108.58
212.524,964.776,15.372
104.92,974.536,-37.82
56.12,988.932,-81.984
136.396,927.2,-57.584
274.012,882.792,53.436
284.504,913.292,95.892
205.936,964.044,-8.784
130.54,994.3,-49.776
146.888,1031.144,-104.676
135.908,952.332,-41.968
156.16,879.376,26.352
197.152,923.296,44.408
190.564,994.3,14.884
134.932,1067.744,-38.796
144.448,1126.304,-108.092
183.244,1112.884,-104.676
217.648,1054.324,-42.944
268.4,970.876,34.16
355.02,912.316,208.62
370.88,929.64,253.028
329.4,984.784,185.684
367.464,991.128,94.916
558.516,955.26,30.988
714.188,920.124,133.224
843.02,936.716,219.844
856.928,846.68,125.66
860.344,858.148,68.564
969.168,843.752,28.792
974.048,719.312,8.052
885.72,526.064,43.188
751.276,237.168,77.592
507.52,7.076,103.7
695.156,72.956,95.16
1276.852,-108.092,-164.456
1312.232,-239.608,-147.62
995.032,-292.312,172.996
896.7,-395.768,208.132
875.228,-366.488,294.264
945.5,-351.36,223.748
851.56,-351.604,-53.68
932.568,-241.316,-128.1
961.36,-291.58,-168.604
973.804,-352.336,-80.764
1015.284,-318.42,-27.084
1206.336,-262.788,-56.608
1235.616,-211.792,-37.332
1215.852,-224.968,14.884
1274.168,-202.52,-5.856
1650.66,-166.652,-151.036
1793.156,-220.82,-50.264
1706.292,-200.324,121.512
1734.352,-167.384,183.488
1885.388,-126.636,63.196
1992.992,-155.184,14.152
1859.036,-200.812,51.972
1810.968,-84.18,23.424
1732.888,-41.48,-115.168
1589.416,-77.348,-28.06
1517.924,-104.188,-8.296
1430.816,-79.3,-56.608
1337.364,-147.62,-41.724
1232.2,-254.492,-37.82
1051.152,-205.448,-34.404
902.312,-85.644,-97.112
749.812,-117.364,-121.512
660.508,-82.228,-241.316
507.52,46.36,-300.12
394.792,124.684,-350.14
461.892,143.472,-476.044
426.024,96.868,-493.368
234.972,116.876,-311.588
164.456,148.84,-343.552
199.836,293.288,-443.348
211.792,290.36,-423.584
131.516,261.324,-342.332
62.22,272.06,-321.836
82.716,367.708,-317.2
68.564,448.228,-230.336
7.32,473.36,-151.524
81.008,431.148,-69.784
83.204,382.836,-12.932
217.892,404.796,-16.348
282.796,418.216,64.904
256.2,383.08,164.212
286.7,219.844,314.272
220.576,171.044,451.156
313.784,239.608,492.88
420.412,270.84,577.304
578.28,203.984,546.804
681.004,71.736,603.412
737.124,134.2,659.532
794.464,160.552,785.192
789.096,66.124,990.152
942.328,10.736,988.2
1048.468,52.948,933.544
1043.1,151.28,958.432
1203.652,82.716,961.848
1382.504,-28.304,978.928
1367.62,-81.496,1002.108
1474.248,-8.54,837.652
1658.712,128.344,562.908
1846.104,250.1,297.68
1915.156,227.896,170.556
1655.296,8.052,331.84
1340.78,-104.676,576.328
1243.424,12.2,369.66
1555.012,257.176,-158.356
1679.696,315.98,-614.392
1268.556,234.484,-595.36
1052.86,100.772,-358.192
1134.112,131.028,-404.796
1082.14,296.704,-637.816
953.064,414.068,-793.0
842.776,512.156,-743.224
724.68,427.0,-576.328
702.476,316.956,-483.12
748.592,415.288,-569.74
829.844,533.628,-580.72
859.124,469.7,-443.348
771.04,323.544,-197.396
858.392,229.116,-41.48
943.548,205.448,-37.332
955.748,272.792,-36.844
1001.376,238.144,45.628
1032.608,158.6,101.504
1009.916,84.18,126.88
976.976,67.344,200.324
1161.684,252.54,101.016
1371.28,377.224,-45.628
1400.56,326.228,-59.048
1067.256,319.64,195.444
955.504,360.144,144.448
846.924,367.22,-142.984
598.532,628.788,-303.536
479.948,324.764,-56.608
204.472,176.412,334.28
-311.832,409.92,141.52
-731.024,420.656,-97.844
-925.98,603.412,-197.396
-724.924,852.78,-117.364
-607.316,854.0,-101.504
-611.22,794.22,-160.064
-675.636,838.14,-69.296
-486.536,930.128,-76.372
-386.252,909.876,35.38
-359.656,874.984,5.612
-499.468,760.304,22.936
-602.192,606.096,18.3
-579.988,715.408,-6.832
-395.524,858.148,-77.836
-240.584,925.492,-74.42
-258.884,886.696,-25.132
-284.26,835.7,-29.036
-400.16,725.412,2.684
-344.528,629.52,-0.732
-126.88,860.588,-42.944
-143.716,951.356,-143.716
-255.468,774.944,-113.46
-286.212,749.812,-107.116
-244.732,730.048,-55.388
-134.688,813.984,40.26
-47.824,926.468,4.636
-101.26,994.3,-44.896
-115.168,897.188,-85.156
-57.828,936.716,1.952
17.08,1122.644,10.492
106.872,1371.036,-53.68
146.644,1522.316,-148.352
191.784,1271.972,6.588
346.968,1271.484,139.812
255.468,1363.716,57.828
105.408,1451.556,-1.22
153.476,1608.204,-80.52
191.784,1558.428,-97.356
213.012,1449.604,-48.068
217.16,1375.672,-36.6
148.108,1283.196,-69.784
68.564,1225.856,-91.5
85.156,1193.404,-117.364
90.524,1071.404,-92.232
141.276,1006.744,-50.996
137.128,959.652,-27.816
130.296,1034.56,-52.46
118.584,1024.556,-103.212
130.54,932.812,-71.004
151.768,898.408,-78.568
137.616,872.544,-48.8
172.264,947.94,-65.88
165.92,946.72,-76.616
168.604,944.768,-75.64
170.312,907.924,-48.312
162.504,911.096,-48.556
168.848,970.144,-85.888
118.34,966.484,-93.696
105.408,957.212,-117.12
84.668,948.184,-82.472
129.32,966.728,-124.196
127.368,914.024,-50.996
85.644,890.356,-80.52
100.528,970.388,-112.484
115.168,951.356,-74.176
100.528,933.056,-54.9
112.484,968.924,-57.828
137.86,994.544,-66.368
184.708,1051.396,-65.392
118.828,1006.256,-57.828
106.872,989.176,-61.244
93.452,997.472,-62.952
90.768,1015.284,-77.592
101.016,1032.852,-80.52
86.132,1005.524,-60.268
115.168,1007.964,-51.972
134.444,1043.1,-49.044
103.456,1017.968,-55.388
62.22,1024.8,-71.736
52.704,1007.476,-91.256
64.66,1015.528,-69.784
52.46,1057.74,-53.68
19.764,1101.172,-58.316
-38.308,1149.728,-74.664
-154.94,1168.272,-52.704
-99.064,1242.936,-39.528
229.848,1299.3,-69.052
243.512,1308.328,80.52
87.352,1115.568,161.04
146.644,853.512,0.976
294.508,741.516,-91.5
535.336,660.508,-180.56
921.832,413.824,-370.636
778.848,355.508,-216.428
468.236,338.672,99.308
651.48,101.504,251.564
845.216,-186.416,192.272
858.636,-310.856,241.316
686.616,-364.048,335.744
605.608,-293.776,366.732
1057.74,-106.872,89.304
1210.24,-484.096,10.248
996.008,-647.82,-12.932
883.524,-448.472,-26.352
983.808,-324.032,-60.268
1196.82,-329.888,-33.184
1133.38,-444.08,44.408
1043.832,-497.516,123.464
979.416,-479.948,181.78
1136.796,-267.912,83.448
1410.076,-172.752,-84.424
1548.912,-223.992,-8.54
1443.992,-284.504,152.012
1585.756,-281.088,223.992
2081.808,-177.144,37.576
2201.612,-118.584,-78.324
2092.544,-118.828,-122.244
2012.756,-83.692,-207.4
1868.064,-30.5,-259.372
1619.916,-97.112,-202.276
1443.992,-222.04,-81.496
1263.432,-280.112,-24.4
1159.976,-224.724,-41.236
1061.4,-170.068,-82.472
1005.768,-178.12,-42.7
964.532,-115.9,-10.492
949.404,37.82,60.268
878.156,-57.828,141.276
943.548,-146.4,37.82
921.832,-107.36,-76.616
808.616,-53.924,-136.884
654.652,-19.764,-147.132
600.972,73.2,-226.676
574.132,178.852,-323.056
406.26,172.264,-319.152
297.924,232.532,-323.3
376.492,305.488,-337.94
500.2,317.932,-394.304
492.636,324.52,-443.348
329.888,256.2,-367.464
232.776,290.36,-306.952
281.332,339.16,-312.076
298.412,326.716,-301.828
322.812,347.456,-287.188
178.608,349.896,-302.316
164.212,373.808,-224.968
284.748,426.268,-167.14
299.388,382.104,-74.908
235.216,264.008,97.844
271.084,266.936,211.304
361.608,252.052,250.1
347.212,104.188,431.88
565.348,17.812,625.128
749.812,92.964,764.696
679.296,120.048,804.224
751.276,103.456,738.344
1028.216,83.448,778.116
1159.732,71.98,854.0
1196.088,4.88,861.076
1156.804,0.488,831.064
1185.108,78.568,800.076
1384.212,125.66,702.964
1428.864,70.028,660.264
1425.448,-13.176,657.58
1489.864,15.616,461.404
1533.54,115.412,308.172
1461.804,105.408,300.852
1442.284,139.324,323.056
1403.732,90.28,249.124
1405.684,65.636,149.084
1333.216,116.876,123.464
1285.392,119.072,61.244
1470.832,212.036,-219.6
1531.588,306.952,-309.88
1427.644,287.432,-267.18
1170.224,91.744,-174.46
928.908,-40.504,-185.44
1035.048,86.62,-357.704
1028.46,222.772,-580.232
903.776,336.476,-739.564
740.052,385.032,-700.036
689.544,404.552,-697.108
741.76,377.712,-680.516
781.776,350.628,-596.092
739.076,299.388,-421.144
773.236,259.372,-283.528
864.736,221.796,-186.172
923.54,241.804,-105.652
976.976,266.448,-99.796
1088.728,273.524,-56.12
1193.16,252.54,68.32
1324.676,312.076,254.004
1491.572,627.324,154.452
1195.356,620.492,-97.356
773.48,343.064,-44.896
549.488,290.848,31.72
461.404,348.432,150.304
420.412,676.368,158.844
257.908,800.564,4.392
-24.644,701.256,172.752
-188.368,717.604,-85.888
-100.528,835.456,-190.564
-132.492,749.324,18.056
-474.58,711.992,35.38
-564.616,833.016,-203.008
-412.604,1016.992,-261.568
-454.816,975.756,-202.764
-419.192,638.06,-77.104
-379.42,564.616,-2.196
-313.784,674.66,-115.168
-407.236,697.352,-185.684
-404.308,680.516,-247.416
-401.38,549.244,-158.112
-297.436,386.74,-6.588
-177.876,479.46,19.52
-233.02,678.32,-44.164
-406.26,723.46,-115.656
-446.52,758.596,-115.168
-388.204,685.64,-26.596
-227.164,718.824,112.728
-30.256,976.976,36.112
-210.816,950.136,-87.84
-396.988,823.988,-126.148
-456.524,854.0,-84.424
-279.868,1112.396,-201.056
-132.736,1383.236,-181.292
-180.804,1203.652,-74.42
-146.644,1208.044,-12.688
-88.328,1387.872,-43.188
-91.5,1460.828,-103.212
-91.256,1452.532,-119.804
8.54,1328.336,-5.368
93.94,1306.376,29.28
-30.988,1317.112,-72.468
-80.52,1363.716,-167.872
-4.392,1490.352,-215.94
33.184,1397.876,-222.528
71.736,1242.204,-120.78
74.176,1206.336,-126.636
26.596,1181.204,-217.16
-18.3,1089.46,-233.02
25.376,1065.548,-195.444
62.952,1055.3,-197.884
55.876,962.824,-148.352
46.116,925.492,-161.284
30.012,955.748,-145.18
33.672,1031.876,-194.224
49.776,1038.464,-193.004
110.288,938.912,-95.648
174.46,893.284,17.568
171.532,1017.724,-40.016
81.984,1036.024,-131.76
42.212,966.972,-128.588
76.616,911.828,-71.736
85.644,864.248,-61.0
84.668,930.616,-70.272
69.54,1004.548,-107.604
51.728,984.54,-105.896
71.492,941.596,-62.22
116.876,930.86,-38.796
93.452,990.152,-86.864
39.772,1048.956,-151.036
1.22,1000.156,-154.452
37.088,969.412,-115.9
49.776,969.9,-111.752
36.112,986.736,-129.076
37.088,1026.508,-116.388
31.72,990.396,-80.032
76.86,976.244,-53.68
105.652,962.58,-49.044
77.104,977.952,-53.436
9.76,997.716,-121.024
-11.956,998.448,-140.788
-1.22,974.292,-109.312
16.104,940.864,-71.98
41.236,968.436,-41.968
1.22,1027.484,-56.608
-72.224,1007.964,-67.344
-56.608,973.804,-33.916
77.836,1008.452,36.6
450.912,1080.676,-62.708
393.328,1245.376,-17.812
255.468,1207.8,-69.784
223.26,953.796,-133.956
565.104,750.056,-260.836
753.472,522.648,-183.244
823.5,216.916,81.984
749.324,215.94,480.924
858.88,129.076,453.352
1064.572,289.14,237.656
1051.64,463.356,88.328
1067.256,473.116,-113.216
837.164,247.416,-59.048
576.816,-163.48,121.512
871.324,-508.984,116.632
1103.368,-292.8,270.84
1111.908,-182.756,132.004
1187.06,-70.76,-79.544
1239.032,-93.208,-152.256
1151.924,-319.884,-69.296
1202.432,-426.512,93.696
1323.944,-289.384,21.716
1404.22,-235.704,-49.044
1513.044,-262.544,7.32
1662.86,-238.876,2.44
1700.436,-300.364,23.912
1599.908,-233.264,59.78
1708.732,10.492,-92.964
1865.868,18.788,-153.964
1752.164,-135.908,-4.148
1780.956,-99.308,-42.7
1773.88,-51.972,-188.856
1687.26,-33.184,-215.696
1579.412,-11.712,-137.372
1528.904,6.832,-166.164
1395.924,-27.816,-163.724
1246.352,-94.916,-162.504
1188.524,-142.74,-159.332
1078.236,-111.508,-80.276
924.028,-34.892,-67.588
887.916,-13.176,-15.616
792.756,-96.624,-11.956
694.18,-134.444,-90.28
618.784,43.676,-160.308
562.664,215.208,-248.88
516.548,187.636,-203.74
429.44,157.624,-220.088
443.836,176.9,-290.604
418.216,242.78,-329.4
249.856,289.384,-365.512
132.248,301.34,-312.076
94.672,273.768,-220.576
150.06,299.388,-244.244
144.936,362.828,-303.292
125.66,442.372,-324.032
173.728,513.62,-306.708
217.892,515.328,-277.428
220.576,537.044,-246.684
177.876,518.5,-233.508
218.624,479.216,-125.416
227.164,457.5,-60.512
365.024,462.624,-56.364
542.168,522.648,-62.952
427.0,389.18,139.812
333.548,310.612,262.3
451.644,292.312,254.004
603.412,293.288,346.724
615.612,240.096,520.94
640.744,181.78,645.624
648.796,92.476,738.832
760.792,141.276,742.736
1006.988,152.5,762.256
1047.98,114.68,831.552
909.632,67.1,948.916
968.436,125.172,914.024
1134.356,226.676,761.28
1284.172,227.408,715.408
1320.284,185.44,732.0
1332.484,160.796,699.548
1194.868,96.136,732.732
1196.088,104.676,699.06
1396.656,234.728,422.364
1532.564,266.936,228.872
1498.404,300.608,227.408
1353.468,179.584,390.4
1280.024,-7.808,451.4
1373.476,35.868,288.164
1406.172,172.508,150.06
1411.052,270.352,26.596
1436.428,350.14,-53.924
1462.048,246.928,-166.652
1240.74,107.36,-258.152
1133.868,114.68,-477.02
1194.38,355.508,-800.32
1071.892,341.356,-861.076
883.28,265.228,-798.856
771.04,233.996,-754.692
745.42,173.484,-674.172
716.872,243.024,-652.944
678.808,305.732,-608.292
649.04,329.4,-504.348
732.0,417.972,-373.32
895.236,456.768,-185.196
1145.092,590.48,-81.496
1212.68,692.716,-32.94
679.54,660.752,-70.516
-31.72,170.312,-39.04
317.2,264.496,-147.864
881.572,1125.816,99.552
753.472,1244.888,23.18
617.076,1264.408,82.96
588.772,1161.196,203.008
430.172,943.792,213.012
384.3,1138.992,-29.768
332.084,1110.688,-115.168
57.34,454.328,119.072
-262.788,159.332,146.156
-748.104,135.176,-115.656
-1242.936,389.18,-579.988
-1267.58,810.812,-552.66
-822.28,565.836,-194.224
-601.216,401.868,-70.272
-740.052,408.7,-48.556
-819.352,446.276,-147.132
-824.232,646.112,-190.564
-867.176,488.976,-152.988
-723.948,416.508,-73.2
-530.7,461.892,-31.964
-522.16,783.972,-180.072
-674.172,696.864,-208.864
-680.516,648.064,-172.996
-593.896,752.496,-237.9
-527.284,619.028,-141.764
-418.46,619.516,-64.416
-334.524,695.644,-108.092
-385.764,623.176,-84.668
-409.676,498.736,-70.028
-404.552,545.828,-104.676
-359.9,602.436,-183.0
-263.276,654.164,-195.688
-302.072,661.484,-115.656
-416.508,650.016,-26.84
-369.416,641.476,-27.328
-194.224,719.312,43.432
-47.58,872.056,125.904
-60.024,918.66,95.648
-202.032,883.036,-1.22
-268.888,861.32,0.244
-284.504,857.172,39.284
-178.364,894.016,40.504
-102.724,1112.884,86.376
-92.964,1326.384,53.436
-114.436,1285.392,105.408
-186.172,1137.772,138.592
-153.232,1151.924,114.924
-210.816,1122.644,134.688
-235.216,1170.712,128.1
-232.288,1241.716,79.3
-173.484,1183.888,86.376
-101.016,1112.396,172.264
-5.856,1265.872,102.724
-70.76,1181.448,135.664
-110.288,1069.452,150.548
-90.28,1074.82,131.516
-80.032,1034.804,121.512
-81.252,1054.324,97.356
-48.068,1079.456,82.228
-42.7,1041.636,81.74
-77.836,937.692,61.244
-65.88,879.864,81.496
-43.676,849.608,130.052
-41.724,861.564,92.72
-0.976,990.152,59.536
-64.172,964.776,5.856
-150.06,869.372,23.424
-65.392,932.812,-14.884
-19.52,919.392,34.892
-7.32,929.884,89.304
-36.356,1005.28,52.704
-57.584,1087.996,-10.736
-102.236,1055.788,-28.792
-170.312,988.688,2.44
-92.476,1114.592,-10.004
-66.612,1248.548,40.504
-109.556,1264.408,45.872
-119.316,1228.54,110.776
-99.308,1141.188,150.304
-43.432,1104.1,167.14
-38.064,1139.236,150.792
31.964,1046.272,107.848
-4.392,1002.596,145.912
-179.828,1020.652,163.968
-99.308,1012.844,141.764
16.836,1104.344,226.676
-11.712,1016.748,204.472
-141.52,975.268,159.82
-129.076,1015.772,78.08
-157.136,1023.092,67.588
-154.208,1047.004,74.42
-117.608,1108.004,97.356
-91.744,1073.112,115.168
-186.416,1035.048,105.652
-318.176,1010.648,46.604
-350.628,1021.872,55.144
-283.284,1142.164,57.096
-205.448,1152.9,31.72
-253.76,1059.448,82.228
-294.264,1086.532,79.544
-337.452,1149.484,58.072
-323.788,1103.856,59.292
-268.156,1100.44,110.288
-278.648,1041.636,138.104
-358.924,1020.896,164.212
-346.236,1021.14,149.328
-327.936,1035.048,172.752
-315.248,1086.044,122.244
-401.136,906.216,87.108
-462.38,727.364,76.128
-430.904,790.316,33.916
-391.864,920.612,25.62
-397.964,1008.696,20.496
