acc_x[mg],acc_y[mg],acc_z[mg]
-223.26,973.56,-12.444
-212.768,981.124,-14.64
-228.628,985.516,-15.128
-229.604,968.192,-6.588
-223.26,986.98,-19.032
-233.508,1036.024,-28.06
-222.284,1021.14,-45.14
-312.808,1044.076,-68.32
-380.152,1072.868,-140.056
-368.44,1072.136,-45.872
-252.296,1023.092,-17.812
-188.124,927.2,-68.076
-393.328,947.208,-222.04
-138.348,721.508,-168.848
305.976,276.696,280.356
1052.128,209.84,513.864
1373.72,752.008,-117.364
1096.292,798.124,-129.32
755.912,601.948,-19.52
769.82,501.176,91.012
925.248,473.604,71.98
987.224,387.228,141.764
991.616,330.864,186.904
920.856,328.668,220.82
848.632,399.672,166.896
888.404,447.496,128.344
869.372,437.492,132.98
753.472,406.26,164.212
682.224,420.656,183.244
731.512,464.088,127.612
740.296,460.428,100.284
606.096,434.076,128.832
449.936,407.48,147.62
364.292,337.696,197.396
337.452,226.676,225.456
328.18,194.224,141.52
374.296,260.836,-20.008
488.976,306.708,-133.468
560.224,237.412,-104.432
494.832,64.904,-14.396
529.968,-61.0,-45.14
680.76,16.592,-169.824
630.74,81.496,-195.444
586.576,-46.848,-124.928
713.7,-184.708,-117.12
851.56,-224.236,-140.544
861.076,-213.744,-194.956
948.184,-206.668,-291.824
1213.9,-231.068,-439.444
1414.468,-275.72,-519.964
1426.18,-288.652,-506.788
1431.548,-265.96,-519.476
1635.044,-243.756,-636.352
1825.608,-359.168,-658.068
1874.164,-475.068,-625.372
1825.364,-430.172,-638.792
1751.676,-403.332,-559.98
1640.168,-461.404,-444.324
1738.5,-555.588,-367.22
1602.104,-599.264,-288.896
1539.884,-461.648,-242.78
1498.892,-443.104,-138.348
1576.24,-504.592,-74.908
1654.564,-603.656,17.08
1467.416,-621.468,92.476
1358.104,-439.932,55.876
1392.508,-317.444,1.464
1478.152,-273.28,-57.34
1467.66,-378.688,14.64
1401.536,-463.356,192.516
1341.024,-499.956,323.3
1379.088,-444.568,290.116
1412.272,-339.648,246.196
1361.276,-333.548,269.132
1274.412,-392.596,307.684
1184.376,-385.764,330.132
1086.288,-271.084,281.576
981.124,-157.868,200.08
938.18,-111.996,130.296
897.188,-110.776,147.132
734.44,-86.62,167.14
672.708,17.08,85.156
673.44,91.744,-16.592
731.024,186.904,-122.976
727.608,245.22,-115.412
645.136,228.384,-120.536
543.144,222.04,-93.452
532.896,296.216,-104.432
485.316,294.508,-45.872
432.124,306.464,-59.536
372.344,352.336,-100.284
402.112,423.584,-187.148
502.152,467.504,-258.884
491.172,489.22,-243.024
323.3,510.204,-136.64
203.74,530.456,-66.612
281.82,568.764,-106.628
460.672,612.684,-187.392
453.84,658.556,-216.184
595.604,634.4,-148.596
869.616,650.26,-173.484
961.116,675.392,-173.728
946.232,705.16,-148.352
987.956,705.404,-111.264
1310.28,741.76,-108.092
1177.544,634.4,-89.792
509.228,587.796,-141.764
660.996,744.688,-140.3
539.24,632.204,50.02
-85.888,758.84,18.544
-311.344,1044.32,-112.972
-382.592,815.936,116.388
-50.752,714.188,251.076
16.104,730.048,257.42
-321.104,848.388,208.376
-454.816,975.268,32.208
-452.62,961.116,-25.864
-439.932,965.264,-22.692
-464.332,1028.948,-48.068
-501.42,1087.02,-94.428
-553.148,1081.164,-151.28
-569.496,989.42,-82.716
-274.012,991.616,-109.068
-117.12,1054.324,-80.276
-189.344,1027.484,-7.076
-186.904,954.284,58.56
-252.296,898.652,91.5
-292.8,943.304,44.408
-142.74,1004.792,-34.648
-123.464,1015.772,-45.872
-193.248,959.408,31.72
-222.528,897.188,90.768
-167.872,899.384,34.648
-159.332,976.0,-40.748
-170.8,1014.552,-81.252
-172.264,1011.868,-44.164
-161.284,977.22,9.516
-174.948,954.772,4.148
-173.728,991.616,-27.572
-168.604,987.468,-30.988
-175.192,964.044,10.248
-114.436,955.992,30.5
-129.808,921.344,80.52
-129.808,934.032,72.956
-149.816,997.96,21.96
-143.96,1030.9,12.688
-138.592,1012.112,74.42
-132.736,984.296,152.5
-107.116,971.364,198.128
-112.972,987.468,202.52
-123.708,981.856,221.064
-129.32,963.8,248.148
-71.004,979.172,229.848
-55.876,999.912,186.172
-105.408,1055.788,89.548
-41.48,1080.188,31.964
-78.568,1031.144,55.876
-90.524,1016.748,38.552
-86.62,1032.608,-19.032
-146.888,991.372,-28.792
-162.016,949.892,-10.004
-184.952,940.864,-13.908
-91.256,915.488,-2.196
-76.86,921.832,-13.664
-113.704,980.392,-55.876
-97.6,1006.256,-54.412
-143.96,950.38,6.344
-55.876,937.936,4.148
-17.324,985.272,-45.628
-49.776,985.028,-29.524
-52.46,978.44,-29.524
-101.504,1011.624,-89.06
-105.164,1044.808,-176.412
-105.408,1009.672,-157.136
-106.14,968.192,-104.188
-91.256,985.272,-115.412
-140.544,1004.304,-153.476
-137.128,1033.584,-200.324
-152.256,1014.308,-163.724
-162.26,990.152,-118.096
-147.864,959.408,-47.58
-127.612,933.3,10.492
-104.188,962.58,-8.784
-73.688,986.736,0.488
-73.2,967.216,50.02
-49.776,947.208,92.476
-79.788,944.524,93.452
-110.044,966.972,56.364
-80.52,1004.548,30.744
-76.128,1021.14,17.568
-30.012,1028.46,7.564
-61.0,999.912,32.94
-90.28,985.272,48.8
-100.04,994.056,48.068
-98.576,1001.376,36.356
-45.628,1019.676,20.984
-53.68,986.004,62.464
-50.264,964.776,90.768
-49.044,987.468,61.732
-95.404,1015.528,19.276
-73.2,1005.036,24.4
-71.736,982.344,56.852
-51.484,981.368,50.752
-68.564,979.172,44.652
-104.432,975.268,28.792
-122.976,965.996,29.524
-104.188,968.192,31.72
-55.876,978.44,13.42
-50.02,998.692,-1.952
-99.796,1013.088,-1.708
-146.644,993.812,-8.54
-275.964,1009.184,-55.388
-171.776,1028.46,-70.028
-142.252,994.788,-26.108
-203.496,1009.672,-34.404
-231.068,1029.192,-16.592
-332.328,959.164,21.716
-396.012,966.24,-27.084
-562.176,988.444,-105.896
-482.388,912.072,-122.244
-82.96,585.356,-0.488
720.532,185.684,466.772
1076.528,368.196,357.948
892.552,532.164,147.376
794.464,446.52,272.06
995.032,487.268,212.036
991.372,560.224,100.04
1085.8,654.408,61.244
1067.012,659.288,-20.74
927.2,521.916,172.996
748.836,490.928,201.3
760.548,531.92,128.832
966.484,568.032,62.22
1064.816,484.584,100.04
1019.676,435.052,130.784
954.772,440.664,111.02
891.332,442.86,100.772
849.12,419.924,109.556
881.816,412.604,131.516
921.588,409.92,88.328
816.668,409.432,74.664
780.068,408.7,75.396
632.692,369.172,118.096
633.424,341.6,118.828
578.28,296.704,83.448
561.932,224.236,101.748
481.9,174.46,91.744
309.88,71.492,142.252
202.52,42.456,121.512
228.14,88.084,66.124
326.228,201.056,-48.312
423.584,201.056,-19.764
469.456,71.98,3.416
517.524,-70.76,-12.444
572.424,-129.076,-29.768
769.82,-133.468,-107.36
974.536,-87.84,-224.968
1047.248,-159.576,-276.208
1074.088,-229.116,-273.28
1253.428,-290.36,-302.56
1481.812,-238.388,-390.644
1546.472,-189.344,-474.824
1469.124,-281.82,-421.144
1375.672,-355.02,-366.732
1414.712,-354.776,-327.448
1565.992,-342.82,-327.448
1597.712,-415.044,-314.272
1650.904,-435.784,-341.844
1701.9,-399.428,-392.596
1766.316,-319.64,-446.52
1766.072,-365.756,-405.528
1634.556,-603.9,-173.972
1504.016,-691.252,-66.856
1570.872,-558.272,-154.452
1555.5,-468.48,-205.692
1533.54,-483.608,-179.096
1481.812,-576.816,-47.824
1362.008,-649.772,62.22
1296.86,-635.376,122.976
1336.632,-579.988,102.48
1373.232,-470.92,-1.464
1352.736,-396.744,-40.504
1252.94,-392.352,-11.956
1194.868,-397.72,38.064
1166.32,-428.22,109.312
1230.98,-448.472,145.668
1274.412,-477.996,208.132
1223.66,-430.416,221.552
1187.548,-369.172,236.192
1270.02,-312.32,166.164
1373.964,-221.552,50.996
1259.04,-240.584,122.976
1113.128,-252.296,233.996
1096.292,-158.112,130.052
1077.26,-106.628,54.9
949.648,-58.56,81.252
798.612,-41.236,117.852
751.764,27.328,54.168
749.568,114.192,-7.564
619.76,120.292,50.752
559.492,105.896,58.316
512.4,136.64,12.2
573.888,258.884,-116.388
595.116,371.368,-181.536
454.572,379.908,-162.992
324.032,385.276,-152.5
282.064,398.452,-134.932
330.864,406.504,-94.672
375.516,396.012,-77.836
451.644,455.304,-169.336
531.676,530.456,-259.372
537.288,529.236,-192.516
598.532,488.0,-133.468
695.4,444.812,-139.812
770.552,487.512,-190.564
741.516,540.948,-162.016
813.496,543.876,-170.068
997.716,562.908,-230.824
953.308,586.82,-234.728
805.932,597.312,-215.208
771.528,547.536,-97.844
883.28,548.512,-73.2
990.396,579.012,-38.796
995.032,596.58,-37.088
861.32,620.248,-92.964
605.12,659.776,-190.076
602.192,670.512,-112.484
1006.744,777.384,-83.204
1370.304,847.168,-39.528
939.644,687.348,-58.072
294.264,527.772,9.272
232.288,743.468,-91.744
594.628,1014.552,-351.36
378.688,823.5,-231.312
43.188,671.0,-66.856
-201.788,645.136,58.316
-125.172,813.74,-24.644
-406.992,852.292,-45.14
-740.54,864.248,-54.412
-559.98,921.588,-168.848
-220.088,906.704,-148.108
-317.2,902.8,-28.548
-300.12,959.896,-69.296
-282.796,960.628,-99.064
-384.056,913.78,-42.212
-334.28,982.832,-69.296
-223.748,1043.588,-118.096
-210.572,1031.632,-71.736
-219.112,1037.488,-67.832
-265.228,1010.892,-36.6
-265.96,1015.772,-41.724
-229.604,1031.144,-62.22
-165.92,1061.156,-96.38
-146.644,1052.372,-95.648
-221.308,973.316,-9.76
-312.564,923.784,42.944
-307.928,965.02,-58.316
-133.468,1019.188,-139.568
-182.756,988.688,-85.4
-250.588,960.14,-45.384
-239.12,938.912,-24.156
-213.988,903.532,8.052
-95.648,911.34,-6.588
-89.304,950.136,-11.224
-149.084,974.78,-12.444
-218.624,953.796,14.64
-230.824,959.408,-7.564
-192.76,986.736,-66.612
-149.572,1019.676,-86.62
-165.432,1019.188,-61.244
-168.848,992.592,-11.224
-164.456,944.524,49.532
-152.5,918.66,70.76
-135.908,957.212,21.716
-92.476,999.18,-17.324
-119.56,988.444,27.816
-146.4,980.88,45.872
-170.312,989.908,48.8
-124.684,1012.112,10.248
-135.908,1009.672,4.88
-119.804,996.984,21.472
-129.808,989.176,44.408
-156.16,979.416,49.288
-145.18,964.776,58.56
-146.644,943.548,99.064
-163.48,930.372,135.908
-158.356,947.696,142.252
-153.72,959.652,154.452
-125.416,975.024,186.66
-99.064,970.876,225.212
-82.716,958.188,261.08
-89.06,961.36,265.96
-86.62,963.556,266.692
-60.268,956.724,289.14
-24.156,962.336,269.376
-4.392,1007.72,160.796
-61.976,1030.412,110.044
-114.192,995.032,157.38
-50.508,965.02,195.932
-64.172,999.912,130.54
-64.416,1039.928,18.3
-166.408,1017.48,-8.784
-146.156,973.804,-9.272
-179.828,959.896,-18.056
-74.176,981.368,-51.972
-27.328,950.38,-10.98
-25.864,965.264,-59.78
-81.252,1013.088,-145.424
-141.276,1007.232,-178.12
-82.228,996.252,-180.56
-38.308,982.344,-142.252
-33.184,948.184,-81.74
-36.356,967.704,-105.164
-60.024,1002.352,-156.648
-35.868,1043.832,-178.364
-52.704,1042.612,-148.108
-60.512,999.912,-87.84
-51.24,966.728,-30.012
-62.22,980.636,-35.38
-81.252,1009.184,-59.78
-94.428,1025.288,-59.048
-143.716,1021.14,-45.384
-112.972,995.764,-15.616
-61.244,975.024,22.204
-2.684,1003.572,37.332
38.308,1046.76,8.54
14.64,1046.272,14.152
-98.576,1031.144,25.62
23.18,1033.828,72.956
175.924,969.656,142.008
179.584,925.004,187.88
69.052,961.36,117.364
-135.176,1009.428,61.488
-220.332,995.032,68.564
-484.34,982.344,71.98
-490.196,990.396,34.892
-167.14,839.604,-50.752
-75.884,783.484,-122.976
358.436,616.588,-9.028
561.444,321.592,280.112
804.224,287.92,362.096
1175.104,361.364,221.552
1122.644,445.544,81.74
1015.284,446.276,100.528
1017.48,437.736,231.312
853.756,424.316,243.268
986.248,450.424,79.3
1170.712,464.82,66.612
1161.196,393.328,158.112
1012.356,332.328,176.168
812.276,336.476,140.544
616.344,329.156,119.56
593.652,237.656,202.276
603.9,183.0,178.12
659.532,131.516,172.508
564.616,107.36,132.492
360.388,53.192,130.784
182.268,3.172,113.46
291.336,-13.42,54.168
409.92,25.864,-100.772
506.056,81.496,-195.444
526.308,134.932,-314.272
714.676,137.86,-402.112
1051.884,70.516,-405.528
1188.036,-91.012,-339.892
1077.748,-207.888,-326.228
1103.612,-229.848,-305.0
1245.864,-263.764,-330.376
1618.452,-283.772,-398.208
1617.232,-267.18,-445.056
1522.072,-264.984,-507.52
1530.856,-327.692,-465.552
1679.94,-346.724,-498.248
1722.152,-360.632,-419.192
1666.764,-357.704,-382.592
1620.892,-419.924,-384.788
1659.444,-516.304,-318.664
1575.264,-573.156,-178.852
1554.524,-524.6,-146.156
1576.24,-543.876,-128.1
1703.852,-561.688,-83.936
1764.12,-606.584,-0.488
1577.46,-634.156,170.068
1694.092,-570.472,163.968
1778.272,-580.476,183.244
1758.752,-615.368,296.948
1465.952,-671.0,440.908
1421.544,-453.108,320.128
1406.66,-241.316,62.708
1339.072,-177.632,40.504
1181.692,-276.94,166.652
1000.888,-394.548,284.016
762.988,-288.408,259.86
896.7,-26.352,72.468
858.88,39.528,66.612
691.74,27.572,89.792
668.072,27.572,63.196
676.368,62.22,63.196
599.752,238.632,-51.24
466.772,279.868,-16.836
285.236,220.82,125.66
357.704,241.316,71.736
178.608,425.536,-51.484
269.376,559.492,-149.572
132.004,586.82,-128.1
124.684,590.236,-36.844
98.332,501.42,56.12
186.66,514.84,-16.348
400.892,653.432,-199.104
426.024,727.12,-204.96
395.036,703.696,-142.984
456.768,646.6,-126.636
500.688,643.672,-145.912
595.604,722.484,-187.148
636.108,786.9,-200.324
680.516,778.848,-216.916
714.92,698.328,-145.912
716.872,652.212,-87.84
759.084,692.96,-110.288
828.136,752.984,-159.088
858.88,766.16,-177.144
866.688,739.076,-123.708
796.66,711.748,-115.656
741.516,698.816,-95.648
850.828,717.116,-101.748
926.224,717.116,-103.944
1023.092,729.316,-73.688
1016.26,707.356,-2.928
1007.72,755.424,-72.956
941.84,754.936,-152.012
872.056,684.176,-215.452
629.276,549.0,-110.776
428.708,511.424,-14.396
279.38,595.36,-21.96
-147.132,682.956,-74.176
-702.72,672.464,-19.52
-877.424,721.02,159.088
-802.76,802.028,186.172
-706.868,864.004,126.88
-602.68,879.62,44.896
-558.272,899.14,-34.892
-441.396,984.296,-68.32
-487.756,952.576,32.208
-268.888,989.42,3.172
-180.072,954.528,64.66
-243.756,922.808,134.2
-259.128,980.88,49.288
-333.548,1015.284,-10.98
-311.1,1016.992,-33.428
-245.708,1000.888,-26.596
-184.22,996.496,14.396
-142.008,987.224,33.184
-218.38,954.284,49.776
-316.468,966.24,23.424
-313.784,973.072,-9.516
-224.968,977.708,-33.428
-160.308,1013.088,-54.412
-186.904,992.104,-16.836
-214.72,947.696,50.752
-295.728,903.532,106.14
-298.168,924.516,77.104
-207.156,952.576,12.932
-144.204,957.212,28.548
-156.892,949.404,64.172
-124.196,954.284,53.192
-170.556,945.256,48.8
-243.512,940.62,41.48
-231.312,963.8,13.908
-203.008,991.616,-9.272
-182.024,984.54,39.284
-134.2,951.356,100.772
-67.588,931.348,118.584
-130.052,925.004,163.968
-128.832,960.384,135.176
-91.988,1017.236,84.912
-129.564,1023.824,107.36
-102.968,1026.264,119.316
-83.204,1008.696,144.936
-88.816,983.076,175.192
-81.496,979.904,161.04
-99.552,990.152,131.028
-106.628,1011.624,77.348
-131.028,1000.4,51.484
-170.8,966.24,82.472
-136.64,948.672,119.804
-34.648,951.112,135.176
19.276,963.068,154.94
-24.888,965.508,200.568
-32.94,993.812,204.716
-15.128,1025.776,214.964
-38.796,1020.652,238.632
38.552,1036.024,202.276
107.604,1046.272,154.452
103.212,1016.748,164.944
33.916,959.896,189.588
-78.324,950.136,146.644
-185.684,1044.808,21.472
-80.764,1087.752,-49.044
-30.012,1030.168,-13.42
11.224,949.648,56.12
36.844,887.672,97.356
-10.248,859.612,72.468
-134.444,914.512,-32.696
-201.788,978.196,-121.756
-129.564,998.448,-154.94
-32.94,989.664,-119.316
15.372,941.84,-46.116
48.556,899.384,-7.076
-10.004,910.12,-4.148
-77.348,975.024,-45.384
-28.792,1036.756,-81.252
74.664,1052.128,-66.124
98.088,1070.184,-31.476
81.496,1095.804,-21.716
53.924,1069.452,33.672
42.456,1056.032,77.348
77.836,1062.62,68.32
73.2,1048.956,93.452
60.512,1030.656,130.784
81.496,1029.68,121.268
68.32,1035.78,111.264
-1.22,1010.404,133.468
-29.524,970.144,139.812
-10.248,998.448,96.868
49.044,1014.796,89.06
112.728,1019.432,95.648
69.784,1056.764,44.408
-181.292,1093.364,14.64
-418.46,1115.568,66.124
-424.56,991.616,68.564
22.204,880.596,-56.12
53.68,732.488,30.988
92.232,527.284,178.364
463.112,409.432,131.028
1299.788,522.16,42.212
1151.68,524.112,119.072
915.0,403.088,230.336
529.236,311.1,302.56
645.136,285.48,221.064
1128.988,349.652,0.244
1169.736,371.124,-24.888
946.232,361.608,-15.86
635.864,258.64,90.524
359.9,247.172,149.816
339.892,196.908,164.456
481.412,178.12,68.32
652.212,126.392,11.712
885.72,116.144,-88.084
565.104,20.984,-44.652
366.976,-65.392,145.912
366.0,-140.544,233.752
529.968,-124.684,182.756
685.396,-87.108,29.28
744.2,-93.208,-69.052
875.96,-62.952,-131.028
982.588,-58.804,-146.644
1148.752,-53.68,-203.74
1432.036,-74.908,-317.444
1536.956,-128.344,-388.204
1595.028,-204.228,-360.876
1494.012,-247.66,-323.3
1498.648,-216.428,-305.244
1580.876,-220.576,-331.108
1625.772,-322.568,-311.1
1581.608,-306.708,-322.568
1468.148,-262.3,-247.172
1494.012,-270.596,-219.356
1496.696,-377.956,-174.216
1424.716,-382.592,-168.116
1294.908,-381.616,-101.748
1398.12,-349.896,-153.72
1591.856,-382.348,-151.036
1505.968,-408.212,-155.672
1467.416,-405.284,-126.636
1478.64,-469.212,-5.612
1560.136,-491.904,64.416
1634.068,-475.8,69.54
1561.112,-439.2,74.664
1389.336,-362.096,74.176
1300.52,-304.512,111.996
1378.6,-274.5,105.652
1459.608,-324.52,121.512
1295.64,-377.468,220.82
1201.944,-343.308,297.192
1064.816,-321.836,301.096
1061.644,-246.44,212.28
1145.092,-128.832,113.704
1167.54,-62.708,18.788
1064.084,-114.192,38.552
864.492,-113.46,100.284
750.056,56.364,57.828
600.484,191.54,-1.952
554.612,300.12,-94.916
420.9,327.692,-50.508
355.752,307.928,10.492
413.58,325.252,14.884
324.764,401.868,-18.3
304.268,561.444,-105.896
335.012,574.376,-122.976
377.956,530.456,-150.548
473.116,526.552,-136.396
389.18,531.188,-80.764
338.184,503.372,-45.384
407.968,533.872,-62.708
491.66,598.776,-149.816
580.72,581.94,-148.84
646.112,531.432,-141.032
682.956,568.032,-115.656
694.18,594.384,-97.844
689.3,572.18,-87.108
760.06,596.092,-142.252
776.652,603.168,-97.356
813.008,579.744,-73.2
858.636,516.548,-31.72
896.944,535.336,-94.428
939.156,580.232,-125.904
914.512,604.144,-130.296
933.056,611.464,-122.488
959.652,602.192,-108.092
998.204,576.084,-53.68
1042.856,567.3,-4.392
969.9,569.252,4.636
960.14,560.712,-15.372
963.312,586.088,-15.86
965.996,581.208,-42.944
1270.264,767.38,-271.572
948.672,511.668,-28.304
453.108,442.128,-0.976
533.384,647.088,-133.956
351.36,514.84,34.404
-163.236,612.44,60.024
-513.62,980.636,-185.196
-513.376,1091.412,-273.524
-389.424,871.812,-44.164
-529.236,741.028,116.876
-654.896,906.46,0.0
-576.572,979.172,-101.26
-498.004,940.376,-45.384
-406.504,967.948,-35.38
-323.788,1033.584,-93.94
-117.364,1100.684,-163.236
-162.016,1062.376,-65.148
-279.136,996.008,34.16
-318.42,992.348,46.116
-259.616,952.576,33.672
-69.296,974.78,-15.372
-40.992,1000.888,10.004
-119.316,995.52,57.828
-203.252,976.976,54.656
-263.032,973.072,6.832
-203.252,995.764,-43.432
-114.924,1024.8,-66.368
-111.264,1025.532,-34.648
-180.316,994.3,5.612
-162.26,938.912,62.464
-152.744,871.812,99.796
-158.356,907.436,55.144
-160.552,990.396,-34.648
-152.988,1025.532,-76.128
-220.088,1003.084,-50.996
-241.56,990.396,-50.02
-203.008,988.444,-41.724
-203.008,965.752,-11.224
-141.764,942.328,18.056
-106.14,905.972,55.632
-138.836,903.776,74.176
-160.308,931.592,28.06
-209.596,949.404,-1.22
-206.424,974.78,-30.988
-203.496,1004.548,-51.24
-146.888,1020.652,-46.116
-114.436,1018.212,-13.664
-109.556,1015.284,5.124
-104.188,973.072,41.724
-119.804,938.424,112.972
-130.296,961.116,121.756
-132.248,1003.816,90.524
-142.008,1000.4,94.184
-197.884,965.02,127.124
-169.824,953.308,164.7
-119.804,961.848,192.516
-113.704,969.412,208.864
-112.484,997.228,192.028
-106.384,1000.888,190.808
-99.552,992.592,205.448
-61.0,995.032,200.568
11.712,1022.848,149.572
-3.66,1021.384,136.64
-27.328,978.684,153.72
-73.2,986.248,132.736
-11.224,1046.516,54.412
-40.748,1039.44,22.448
-47.58,1006.256,28.304
-78.812,961.116,57.828
-77.836,933.788,63.196
-25.864,949.404,14.64
-9.516,987.468,-40.748
-42.212,982.1,-64.904
-49.044,977.22,-59.048
-53.924,953.552,-21.716
-29.28,937.692,-23.668
-22.448,975.024,-87.108
-63.684,1025.532,-169.58
-106.14,1045.296,-211.548
-108.092,993.568,-170.312
-42.944,986.736,-147.132
-16.592,1006.5,-148.108
-48.8,1004.548,-150.304
-74.908,974.292,-124.928
-74.176,981.856,-109.556
-38.064,1027.484,-112.24
-13.664,1038.952,-82.96
-19.764,996.252,-10.004
0.732,960.14,43.92
26.108,968.192,55.876
86.376,1000.4,45.872
-32.94,1026.02,37.088
-197.152,1038.464,-17.812
-309.88,1139.48,-157.624
-340.38,1130.208,-88.328
-753.96,1045.052,89.06
-852.536,772.748,144.692
172.508,315.492,122.488
1354.688,198.616,234.24
1565.016,429.684,312.564
940.132,642.452,223.26
585.844,709.796,159.82
450.424,739.32,131.76
849.364,640.988,101.504
1190.964,542.9,189.344
1006.256,617.564,58.072
866.444,594.384,90.28
696.864,507.52,233.752
573.644,472.384,200.08
640.5,431.148,164.944
823.988,465.552,58.804
786.9,437.98,55.632
623.42,340.624,118.096
523.38,238.632,192.272
526.308,127.124,243.756
492.88,101.748,147.864
683.2,159.576,4.636
670.756,161.772,-0.488
539.728,179.096,-13.908
420.656,100.772,27.328
402.356,14.396,39.284
431.636,-23.18,11.956
511.424,-30.256,-36.112
641.72,-50.264,-91.256
615.124,-125.172,-65.392
536.556,-195.444,-62.22
894.748,-197.884,-175.436
1137.284,-183.244,-276.208
1184.62,-270.352,-253.516
1310.036,-395.036,-195.932
1523.536,-427.732,-279.136
1788.032,-371.612,-450.668
1833.904,-408.944,-513.62
1774.124,-451.644,-364.78
1891.976,-500.932,-274.988
2089.616,-459.696,-316.712
2111.576,-422.12,-363.804
1870.992,-457.5,-252.784
1729.228,-510.204,-131.028
1652.124,-566.08,-17.812
1871.724,-538.508,-31.232
1947.852,-574.864,4.392
1803.648,-479.704,-26.84
1649.684,-425.292,-7.076
1465.708,-513.864,134.688
1461.072,-496.54,145.424
1364.204,-545.584,260.348
1349.564,-485.316,293.776
1305.4,-414.068,286.212
1054.08,-383.08,358.436
1115.812,-354.776,371.612
1130.94,-337.452,353.312
1009.428,-222.772,254.98
902.556,-175.68,254.98
705.404,-195.688,319.884
727.12,-176.412,330.376
723.216,-121.268,279.38
626.104,-24.644,235.46
669.78,83.692,146.4
732.244,141.52,56.364
824.232,189.832,-7.32
757.62,214.476,15.86
590.968,202.032,37.576
524.844,254.98,-37.82
478.972,299.144,-41.236
555.588,349.164,-71.492
519.964,374.784,-19.52
491.416,386.252,-4.88
451.4,396.988,-30.012
466.284,451.888,-104.92
568.276,497.76,-103.456
626.836,529.968,-102.968
681.004,515.572,-82.96
693.936,443.104,-10.492
581.696,494.588,-98.82
397.476,558.76,-143.716
416.508,627.324,-119.072
643.184,677.1,-134.2
795.44,663.924,-120.292
915.732,630.74,-67.1
737.368,602.192,-78.324
560.712,672.464,-125.66
857.66,778.848,-154.94
987.712,755.912,-105.896
992.836,703.696,-4.148
970.388,658.556,37.82
727.852,682.224,-48.8
661.728,763.72,-97.356
867.176,828.868,-129.32
1074.088,774.212,-36.112
1155.584,701.988,88.816
984.784,690.276,93.696
616.832,636.596,98.088
574.132,793.244,-97.844
738.832,846.192,-192.028
625.86,788.852,-85.644
332.328,728.34,31.72
273.036,781.044,-9.028
-142.252,831.308,15.86
-889.38,817.888,163.968
-968.436,725.168,289.872
-261.568,744.2,168.848
-142.008,939.888,55.876
-206.18,1062.376,-54.412
-150.06,1028.46,-30.5
-185.928,962.58,75.64
-182.512,1031.144,30.988
-49.044,1100.684,-90.768
19.764,1085.312,-76.128
-35.868,1006.744,45.14
-121.756,986.248,101.992
-162.504,996.252,77.592
-165.676,980.392,47.824
-35.38,1017.968,-30.256
-13.664,1033.34,-0.976
-72.224,987.468,95.648
-85.644,952.088,123.952
-92.964,966.24,77.592
-28.06,1007.476,18.544
8.784,1032.608,-7.808
-1.708,1003.084,61.488
4.392,961.116,119.56
41.236,955.748,121.024
19.764,961.604,102.48
11.956,990.152,69.052
-18.788,989.908,95.648
-21.96,983.808,123.708
0.244,995.032,101.016
40.992,1000.644,93.94
13.42,992.592,135.664
34.404,984.052,152.012
47.58,990.64,144.448
43.676,993.812,135.176
23.18,996.984,128.588
40.016,1020.896,91.012
44.652,1029.68,57.828
57.096,1022.604,63.196
50.752,990.884,99.796
41.236,982.832,98.576
44.408,994.788,79.544
34.892,995.032,79.788
82.716,977.952,116.632
104.432,967.216,121.512
101.504,966.24,89.548
59.292,980.636,51.484
26.352,990.396,29.28
16.104,996.984,19.764
46.116,991.616,2.928
74.908,974.78,3.66
25.376,954.284,11.468
10.736,982.832,-20.008
40.016,989.42,-12.444
73.444,979.904,13.664
84.424,971.852,25.62
41.48,983.564,-8.296
80.276,1021.628,-74.664
19.52,1012.6,-65.636
31.232,992.836,-58.316
47.58,978.44,-65.636
49.044,990.152,-94.428
64.66,1008.452,-130.784
12.932,999.912,-99.552
-2.44,1002.352,-87.108
-2.684,1010.16,-91.744
19.276,1022.604,-100.528
70.272,1003.328,-70.76
86.132,970.388,-16.104
90.28,977.22,-8.296
80.52,975.268,8.54
32.696,972.34,46.848
18.544,1006.5,20.008
8.784,1013.82,0.0
-24.156,1055.056,-49.288
-103.944,1068.964,-26.84
-154.452,991.86,99.308
-83.936,924.272,162.748
-224.236,926.712,103.944
-306.22,943.792,17.568
-415.776,915.0,-120.048
-279.38,754.448,-245.22
403.088,559.98,-305.976
1273.68,294.02,101.016
1326.628,136.396,578.768
1201.456,385.52,216.184
879.864,358.192,159.576
805.444,312.808,249.612
917.196,416.508,117.608
1087.264,457.744,84.18
1199.504,478.972,69.052
1140.7,439.2,75.64
900.848,324.52,161.528
673.44,322.568,145.912
588.528,327.692,141.276
503.86,245.22,169.336
575.108,226.188,144.936
609.756,252.052,42.456
567.544,235.948,-14.152
593.408,159.82,-18.3
577.548,106.14,1.22
581.208,70.76,75.396
634.156,86.376,8.052
658.556,16.104,30.744
585.112,21.228,-16.348
549.488,-3.172,-34.16
711.748,-57.096,-32.696
944.28,-116.388,-57.096
976.0,-156.892,-134.2
883.768,-173.484,-161.528
944.524,-201.056,-181.536
1032.608,-252.54,-202.276
1112.396,-382.836,-179.584
1162.416,-434.808,-203.74
1108.98,-412.36,-229.36
1201.456,-378.688,-315.492
1553.548,-371.368,-393.572
1843.664,-448.96,-426.024
1678.232,-556.32,-305.976
1483.764,-556.076,-289.872
1423.74,-511.18,-330.62
1521.096,-415.532,-427.0
1506.212,-447.008,-363.316
1507.188,-480.68,-332.328
1484.008,-544.608,-244.732
1426.18,-555.832,-198.86
1300.032,-589.016,-141.276
1359.08,-554.124,-161.772
1407.636,-511.912,-180.56
1302.228,-526.552,-113.216
1255.136,-576.084,7.32
1358.836,-579.012,16.104
1507.188,-535.58,17.08
1511.58,-544.852,134.932
1437.892,-592.676,235.948
1438.38,-593.652,262.544
1481.568,-510.448,240.584
1424.96,-472.872,299.144
1415.444,-432.368,287.432
1444.48,-407.724,242.292
1479.128,-346.48,198.616
1195.844,-328.424,231.312
929.152,-253.76,201.3
905.728,-172.996,167.628
889.136,-120.048,186.416
895.48,-14.396,92.476
874.984,51.484,-10.736
754.692,88.572,-23.668
668.56,92.964,24.4
596.824,100.772,69.296
685.152,193.248,-12.2
752.008,253.76,-100.284
648.064,228.14,-89.304
519.964,244.0,-28.792
505.08,266.936,5.368
659.044,345.748,-90.524
828.624,407.968,-171.776
691.008,381.128,-100.772
477.996,344.528,-61.732
452.376,415.776,-93.452
595.36,485.072,-126.88
624.152,506.544,-97.6
511.668,500.688,-62.952
513.376,528.504,-12.444
569.74,541.436,-54.168
564.128,655.872,-181.048
522.16,619.028,-147.132
150.06,534.604,-20.984
-185.928,638.792,5.368
-68.808,818.62,-94.428
213.5,853.024,-106.628
436.76,873.764,-138.592
566.568,887.428,-145.668
590.236,888.892,-113.46
594.384,888.892,-108.58
610.0,863.272,-76.372
548.756,852.292,-59.048
693.204,864.98,-65.636
727.608,833.748,-50.508
740.052,811.056,-40.992
671.488,797.148,-24.888
642.208,781.776,-10.004
836.92,790.804,-28.304
1082.14,761.524,15.616
901.336,694.912,65.636
843.264,723.46,-21.716
822.524,687.592,-73.932
446.032,628.544,-81.008
-13.176,619.272,27.084
-197.396,833.26,-124.928
-714.92,827.404,-53.436
-712.724,781.532,43.432
-463.112,820.084,8.784
-618.54,956.724,-95.892
-728.584,996.496,-123.22
-624.396,971.364,-102.236
-508.496,961.604,-94.184
-297.192,1037.0,-135.908
-109.312,1156.804,-199.104
-82.472,1173.152,-189.832
-148.596,1032.852,-9.028
-207.888,912.316,137.86
-214.964,926.956,117.852
-132.004,999.668,9.76
-43.676,1018.944,-9.516
-77.836,1003.084,13.42
-152.256,1014.796,13.42
-172.996,1027.484,-22.692
-191.784,1013.088,-40.992
-153.476,997.96,-59.536
-117.12,1009.428,-75.396
-162.26,995.764,-62.952
-119.56,973.316,-35.136
-84.18,957.944,-3.904
-78.812,963.312,6.832
-133.956,945.012,47.336
-149.816,929.884,62.952
-129.32,950.624,43.432
-92.476,966.728,38.308
7.32,983.808,52.216
37.576,996.984,71.492
-33.184,995.52,103.456
-144.204,999.424,116.632
-188.124,1016.748,104.432
-39.772,1046.028,84.668
115.9,1037.0,98.82
140.3,1005.524,159.088
37.088,973.804,207.4
-52.46,976.732,200.568
-96.136,998.692,164.7
-19.52,1001.132,142.252
83.692,1000.644,125.172
118.096,996.008,126.148
-4.148,968.192,142.74
-73.444,975.512,110.532
-7.32,975.512,99.064
2.684,932.08,144.936
70.028,905.484,178.608
89.548,876.448,176.9
58.56,891.332,102.48
20.252,961.848,-10.248
-14.64,1038.22,-84.668
14.152,1025.532,-38.796
25.864,976.976,7.564
91.744,995.032,-67.1
40.26,1023.092,-181.292
-61.244,994.3,-164.212
-80.764,976.732,-140.056
6.588,1017.724,-213.5
42.212,1016.992,-256.688
14.64,991.372,-270.84
24.644,995.276,-302.316
50.996,975.268,-262.056
14.396,940.62,-177.632
6.588,976.244,-218.868
10.004,1055.3,-323.3
-36.6,1137.284,-393.572
-102.48,1126.548,-330.132
-81.984,1049.688,-193.004
41.236,1006.5,-131.76
149.572,1002.596,-116.388
148.352,991.372,-65.636
96.624,961.848,10.004
84.18,971.12,6.1
42.944,998.448,-19.032
36.844,1019.188,-39.772
74.664,1014.552,-30.256
110.044,1004.548,-16.836
81.74,979.66,16.348
50.996,966.24,19.276
36.6,989.176,-13.42
21.96,1006.256,-38.552
50.508,989.664,-43.432
34.16,956.724,-2.928
-83.936,963.8,10.736
-81.008,1001.376,-43.188
-96.868,1017.724,-42.456
-112.972,935.74,62.464
-203.496,938.424,5.368
-200.568,920.856,-18.056
-127.612,753.96,66.856
175.192,498.248,92.232
924.516,421.876,50.752
1136.308,477.752,94.672
1033.34,493.368,174.46
773.724,446.276,181.536
952.576,435.052,143.96
1251.232,480.436,87.596
1087.264,446.52,56.852
1112.884,399.672,83.936
969.9,291.336,171.532
687.104,277.916,159.088
571.448,301.584,122.244
553.88,311.1,54.656
700.036,299.632,29.768
721.996,267.18,33.672
579.744,192.028,85.156
410.652,160.308,55.388
477.752,97.356,90.28
578.28,29.036,90.768
567.544,-13.176,37.576
454.816,-25.376,13.176
458.72,-90.28,18.544
447.008,-235.46,47.58
547.048,-287.92,61.488
657.336,-299.632,-16.348
618.784,-282.308,-93.696
584.136,-353.068,-52.704
813.496,-355.752,-181.048
1065.792,-386.496,-283.04
1157.536,-358.68,-380.152
991.128,-473.116,-306.952
1119.716,-595.36,-285.724
1414.224,-722.484,-308.416
1534.76,-781.776,-279.868
1635.776,-772.748,-285.968
1786.568,-721.752,-312.32
1756.312,-652.212,-354.044
1706.292,-715.164,-293.044
1718.98,-766.892,-231.068
1700.68,-736.636,-225.212
1602.836,-709.064,-171.532
1584.292,-757.376,-43.92
1579.9,-839.116,52.704
1727.52,-781.776,9.028
1652.612,-708.82,-28.304
1370.548,-667.34,31.72
1347.856,-681.98,138.592
1313.94,-762.988,222.528
1335.168,-692.228,232.044
1367.864,-586.576,181.536
1235.128,-563.396,205.448
1291.248,-550.464,218.624
1231.712,-545.584,201.056
1196.088,-417.484,102.48
1210.484,-365.024,91.988
1087.02,-442.86,194.712
980.88,-496.052,269.132
890.112,-451.888,285.236
900.604,-280.356,128.832
991.372,-188.124,25.376
1055.544,-150.06,-55.632
1057.984,-136.396,-47.092
921.588,-107.36,-36.6
772.748,-115.412,11.956
720.776,-97.6,-7.076
801.296,-11.712,-23.18
798.368,11.956,-43.92
750.788,9.272,-47.336
700.28,61.244,-65.148
750.056,176.656,-93.208
702.232,220.088,-88.328
626.836,196.42,-68.32
605.364,179.828,-76.616
685.884,227.164,-96.136
561.932,283.528,-98.088
500.932,348.676,-99.552
468.724,335.988,-61.0
684.664,319.64,-98.576
694.424,372.588,-161.528
590.48,438.468,-152.256
567.3,448.716,-122.244
580.232,431.148,-99.796
726.876,393.816,-100.528
888.16,421.876,-150.548
844.728,467.016,-169.092
901.092,475.068,-110.044
854.976,431.88,-87.352
837.164,433.1,-78.08
843.02,470.432,-70.76
806.42,474.092,-53.436
951.112,493.368,-71.98
1061.4,529.236,-141.032
1028.948,594.628,-216.672
991.372,551.196,-119.316
909.388,514.84,-30.5
963.556,496.54,50.508
979.66,482.632,73.932
1017.48,570.96,-46.848
1043.832,649.772,-128.344
1002.84,656.36,-73.688
789.584,575.352,28.06
800.076,635.62,-45.628
924.76,650.504,-77.836
556.076,518.256,13.908
157.38,640.5,30.744
51.24,874.984,-179.096
-115.9,793.488,-49.288
27.084,803.248,90.28
178.608,928.176,10.248
-159.332,979.66,-3.904
-408.944,925.492,31.476
-154.94,872.3,18.788
-0.976,938.18,-3.66
-76.372,1060.18,-48.8
-152.5,1068.232,-50.264
-249.368,983.076,30.744
-204.96,974.048,2.44
-132.492,1015.528,-4.148
-166.408,1061.888,-10.004
-244.732,1026.508,28.792
-235.46,990.884,42.212
-19.276,980.392,-12.2
68.564,1027.728,-2.928
-24.156,1060.668,53.436
-136.152,1014.308,108.58
-182.512,984.54,82.96
-169.092,1004.06,-6.344
9.516,1023.824,-50.02
83.448,1023.336,13.664
0.488,1001.62,73.688
-66.856,1007.72,60.756
-97.6,993.812,34.16
-23.18,968.924,23.912
98.82,983.564,1.952
50.02,964.776,60.512
-51.972,958.188,78.812
-106.384,964.532,49.044
-83.936,991.86,-5.612
29.036,1010.16,-55.876
30.012,996.74,5.124
-0.488,969.412,63.196
14.64,958.92,62.952
-50.264,992.348,7.32
-84.668,1001.864,-10.492
-26.108,1014.552,6.344
-4.636,992.592,61.244
40.992,988.688,97.356
30.5,989.176,118.828
43.92,996.008,111.508
50.264,1008.696,109.8
-6.1,996.252,137.86
-17.568,974.536,183.976
11.468,981.612,209.596
78.812,980.88,230.58
64.172,972.34,235.948
16.836,1000.644,203.252
13.176,1021.628,193.492
58.56,1010.648,201.788
81.252,980.148,225.7
61.976,978.928,218.136
67.832,978.928,190.808
68.32,978.44,172.508
45.14,991.86,111.264
25.132,1004.06,58.316
52.216,991.86,60.756
81.252,978.44,41.968
65.392,978.928,-8.784
25.132,999.424,-78.324
-46.36,993.812,-104.432
-26.108,986.492,-113.216
0.244,978.44,-133.712
32.696,976.488,-138.104
27.328,985.76,-158.356
3.66,1007.232,-217.16
-24.644,1047.004,-275.476
-74.42,1038.22,-267.912
-35.868,994.788,-211.548
26.84,978.684,-190.564
50.508,988.932,-175.68
50.02,977.708,-162.504
27.572,975.268,-164.7
3.172,968.924,-125.416
-42.7,986.004,-119.56
-25.376,998.204,-128.832
35.868,1001.132,-122.488
35.624,999.424,-82.716
41.236,1009.672,-61.976
61.732,1016.016,-45.872
30.5,1012.6,-28.548
-0.732,1010.892,-34.892
-51.728,1003.328,-20.984
-9.76,978.684,3.904
73.444,999.424,-8.296
106.872,1009.184,-24.644
11.468,1019.188,-37.576
-103.456,1080.676,-79.788
-389.424,1069.208,-18.3
-393.572,803.004,236.68
193.248,469.944,367.22
691.74,523.868,141.764
669.78,709.796,-76.128
825.208,844.972,-117.608
674.66,624.396,143.228
446.032,436.516,380.396
550.952,415.044,226.676
1070.916,430.66,81.008
948.428,363.804,197.884
647.576,285.48,248.392
436.76,256.2,257.176
431.636,238.144,120.292
679.296,216.428,77.348
861.32,186.416,155.916
815.692,216.916,83.204
923.296,142.252,92.232
1022.604,78.08,170.8
1033.34,50.02,93.208
993.812,17.568,89.792
1008.696,32.208,62.952
1075.308,29.768,40.016
1073.844,-81.74,111.02
994.544,-198.616,140.788
897.188,-213.256,109.556
737.124,-187.636,55.388
542.656,-176.168,40.992
418.46,-175.192,41.968
467.504,-188.368,32.94
597.556,-156.404,-59.536
686.128,-131.516,-190.564
667.096,-142.496,-243.024
682.956,-140.056,-274.012
714.676,-249.612,-209.352
1012.356,-310.612,-296.704
1330.532,-353.556,-446.52
1461.072,-446.032,-469.944
1422.276,-500.932,-389.424
1253.184,-522.892,-360.632
1543.3,-521.428,-478.972
1827.56,-560.224,-531.676
1845.128,-607.316,-482.144
1731.424,-662.704,-374.54
1569.896,-688.568,-319.64
1623.82,-641.72,-326.228
1588.928,-673.928,-235.46
1653.588,-684.176,-188.856
1677.744,-675.88,-181.78
1592.832,-616.1,-231.8
1439.112,-581.94,-204.96
1237.568,-616.832,-92.964
1255.38,-658.556,20.984
1383.724,-628.788,-11.468
1357.372,-595.36,11.956
1262.7,-595.848,103.212
1161.196,-579.988,106.628
1124.84,-515.816,102.724
1122.888,-446.764,85.4
1200.48,-392.108,70.516
1217.56,-406.26,111.264
1108.98,-406.748,156.16
1011.624,-381.86,195.444
972.828,-335.5,202.276
1096.292,-221.308,113.46
1153.632,-197.152,56.608
983.32,-200.812,67.588
1031.144,-146.156,101.748
1052.372,-156.648,129.564
1093.364,-125.172,24.4
848.144,-28.304,-17.812
706.38,9.76,81.984
708.576,69.784,28.304
724.68,115.168,-60.268
581.452,137.616,-47.58
451.644,230.58,-44.164
346.968,306.464,-30.5
379.664,387.716,-85.4
402.112,385.52,-71.004
452.376,371.368,-38.552
508.252,379.176,-41.48
555.344,402.356,-50.02
610.0,442.616,-48.556
731.512,463.6,-53.68
788.608,486.048,-104.188
860.344,513.864,-120.048
865.224,502.64,-8.052
830.576,469.944,77.104
802.76,501.42,18.544
747.128,590.724,-119.072
887.672,648.796,-77.104
1116.3,612.928,52.216
1128.988,585.356,133.712
1002.84,529.236,76.616
714.676,502.64,93.94
452.62,665.144,-55.632
563.884,957.456,-293.532
199.836,870.592,-184.708
101.26,811.3,-30.5
-60.756,844.484,13.42
-305.244,999.912,-134.932
-492.88,973.56,-151.768
-255.712,877.668,-59.536
-110.044,938.18,-35.38
-249.856,1024.312,-82.96
-268.156,994.056,-86.864
-171.532,988.688,-71.248
-85.888,961.848,-32.208
-126.88,976.488,-4.636
-159.82,997.96,-2.928
-265.228,976.488,27.084
-220.576,945.5,16.592
25.62,1011.38,-69.784
49.044,1021.384,-14.152
-29.036,998.204,61.732
-83.692,974.536,70.272
-163.968,942.572,59.048
-68.564,996.008,-2.196
129.076,1058.472,-61.0
40.748,1039.928,11.468
-69.052,975.268,104.432
-129.564,897.92,149.572
-40.016,908.656,97.844
102.48,971.364,21.472
96.868,1028.46,2.684
-1.952,1016.26,52.216
-39.528,999.18,70.028
-13.664,1007.476,30.5
7.32,1040.904,5.856
57.096,1059.448,14.396
30.744,1063.352,28.304
9.028,1020.896,65.392
27.084,979.172,89.06
42.7,967.216,93.208
50.02,1024.312,49.776
39.528,1041.636,59.536
64.66,1018.7,85.888
51.24,1001.864,87.84
19.276,998.448,103.212
-10.004,1003.328,110.532
47.58,1013.82,111.02
76.128,1007.964,122.732
86.132,1008.696,119.072
25.62,991.86,126.88
-11.224,988.444,129.564
18.3,987.224,135.42
54.9,990.884,147.62
71.004,984.296,160.552
5.368,952.576,156.648
-44.408,952.088,114.924
-30.5,966.972,92.72
0.244,978.44,76.86
35.136,968.924,81.74
27.572,938.912,97.356
-12.932,925.98,92.476
-19.032,942.816,68.808
-15.128,949.404,74.664
18.788,937.448,86.62
47.824,938.18,88.084
70.516,964.288,67.1
94.916,1024.8,0.244
114.68,1040.904,-42.7
86.864,988.932,0.244
119.804,963.556,-8.54
77.348,950.38,-45.872
58.316,962.58,-122.488
28.06,994.788,-165.92
9.028,1026.02,-185.684
38.552,1030.168,-198.128
58.56,1001.62,-197.152
46.848,999.424,-240.828
-14.884,1000.156,-263.276
-64.66,998.692,-233.752
-69.296,979.416,-196.176
35.136,958.432,-158.844
92.964,976.244,-165.188
100.284,1006.5,-181.536
11.468,1030.412,-172.752
-11.468,1022.604,-154.452
3.172,985.76,-82.472
45.384,963.556,-27.328
104.188,988.932,-40.016
88.328,1034.804,-79.788
62.708,1040.172,-64.904
26.84,1009.916,-12.688
20.74,986.98,1.464
71.98,1001.132,-26.84
82.228,1013.82,-25.376
85.888,1014.796,-25.376
75.152,986.492,15.128
44.408,964.044,40.26
61.0,967.948,32.452
74.908,978.196,20.008
128.344,1009.428,-0.488
111.996,982.832,48.8
77.348,969.9,63.44
-24.4,991.86,44.652
-36.844,1036.512,1.952
-49.044,1006.256,48.312
-57.34,931.348,130.052
46.848,950.624,44.164
222.772,986.248,-107.848
159.82,939.644,-33.916
43.188,847.412,21.472
84.424,745.42,2.196
336.232,555.1,27.328
812.276,374.052,205.204
961.36,391.376,254.248
1038.22,320.128,222.284
990.396,193.736,326.96
970.144,153.964,325.74
1213.168,265.716,134.932
1361.276,289.628,96.624
1174.372,224.968,144.448
1025.776,161.284,192.516
819.596,135.664,202.032
761.28,171.288,134.444
721.508,147.864,152.988
732.0,173.484,73.932
803.248,159.82,119.072
733.952,146.156,90.768
750.544,116.144,88.816
708.332,83.936,94.184
695.644,59.536,75.152
764.208,25.864,68.32
699.548,-14.884,84.424
747.128,69.784,-3.66
705.404,81.74,-45.872
659.044,25.864,-9.028
703.94,-50.508,-2.44
773.968,-30.012,-53.192
832.528,-50.996,-36.844
863.028,-119.804,-71.492
835.456,-227.652,-61.244
916.22,-269.62,-59.048
960.628,-257.42,-87.108
960.628,-244.488,-163.724
912.56,-305.0,-186.416
974.292,-338.184,-215.696
1047.492,-379.664,-257.42
1194.38,-358.924,-283.528
1244.888,-383.812,-309.148
1253.184,-457.256,-287.92
1187.304,-521.916,-274.256
1161.928,-510.692,-250.588
1206.092,-500.688,-247.904
1225.612,-501.42,-222.528
1267.58,-533.384,-191.54
1273.924,-552.172,-125.416
1303.692,-584.868,-113.948
1358.348,-602.436,-164.7
1497.672,-544.12,-243.756
1528.416,-569.984,-223.992
1590.88,-647.088,-126.392
1542.08,-751.276,-61.976
1586.0,-755.18,-29.524
1698.728,-626.104,-107.116
1649.44,-594.384,-81.252
1588.44,-622.444,-0.976
1606.252,-649.284,32.208
1551.596,-597.8,20.984
1473.516,-485.316,14.884
1422.276,-441.152,-36.112
1385.92,-454.084,-9.028
1288.076,-476.776,64.66
1190.232,-468.968,155.184
1078.724,-385.52,161.284
1028.704,-314.516,139.08
1031.876,-273.768,144.692
1061.156,-277.916,190.808
1029.192,-292.556,232.044
930.128,-255.956,228.384
876.936,-194.468,189.832
913.292,-111.264,116.632
904.508,-88.084,87.352
805.688,-82.96,123.952
696.62,-55.876,117.608
727.12,42.212,28.304
743.712,106.628,-45.872
624.396,115.656,-29.768
492.392,145.668,-8.54
434.076,177.144,-23.912
375.516,244.976,-73.444
412.604,329.888,-113.216
467.504,419.68,-132.736
546.316,440.664,-158.112
464.332,411.14,-172.264
465.552,408.944,-128.344
596.824,464.332,-115.656
703.208,481.9,-152.012
756.156,455.792,-172.264
734.928,468.48,-157.624
672.708,445.3,-81.252
686.86,429.684,-47.336
722.972,470.188,-112.24
823.988,481.168,-93.452
891.332,471.652,-66.368
970.876,464.82,-69.296
994.3,481.412,-86.132
1072.624,587.796,-164.7
1173.884,693.204,-216.428
1177.544,686.372,-168.116
897.432,549.732,-23.18
984.052,608.048,-23.912
1139.236,572.18,0.0
1033.584,396.5,14.396
550.464,464.576,17.568
352.336,739.564,-20.74
205.204,762.988,40.016
-10.248,785.924,167.384
-207.4,860.832,206.912
-279.624,938.424,118.34
-312.564,903.776,155.184
-279.38,817.888,221.064
-195.2,829.844,193.004
-242.048,939.644,77.348
-378.688,1085.556,-36.844
-318.908,1099.22,-73.444
-259.128,1049.688,-53.192
-177.388,1076.528,-78.324
-126.392,1084.824,-73.2
-155.184,1043.832,35.624
-153.232,982.832,124.196
-132.004,903.532,197.396
-66.124,868.884,183.976
20.74,941.596,95.16
-14.64,989.176,107.36
-74.664,1005.28,126.392
-89.06,998.692,118.584
-46.848,1011.136,96.868
6.344,1005.524,79.056
-52.216,998.448,83.204
-111.264,991.128,78.812
-159.088,990.152,75.396
-55.388,1015.528,63.928
17.324,1001.132,99.796
19.52,988.932,126.148
-18.544,973.56,163.724
-33.184,979.66,153.232
-23.668,977.464,165.92
41.724,980.392,157.136
64.416,1000.156,119.072
13.176,1001.864,103.944
20.984,1006.012,97.6
33.184,994.544,105.408
-0.732,997.228,105.652
2.196,998.448,91.012
38.308,1010.648,71.98
47.58,1014.796,100.284
41.236,1013.576,136.64
10.736,996.74,166.652
-34.648,985.76,197.396
-25.376,964.288,209.84
88.816,969.168,187.88
165.188,1004.06,157.136
115.168,1008.208,168.116
36.112,978.684,180.804
-30.5,947.94,158.844
-10.98,947.94,135.908
70.272,945.744,109.556
95.404,958.188,115.168
119.072,982.832,98.82
74.42,988.2,66.124
4.88,998.204,32.452
19.764,1011.624,-13.908
73.688,991.86,-29.524
133.956,1005.28,-67.344
116.876,1003.572,-98.576
147.62,999.668,-131.028
79.544,986.98,-124.44
-5.856,979.416,-103.7
52.46,987.468,-134.688
106.384,996.496,-160.064
70.516,1035.536,-167.384
33.184,1077.748,-198.86
72.956,1057.74,-178.364
45.14,1004.304,-106.14
33.428,984.296,-87.108
17.324,959.164,-60.268
57.828,954.772,-58.316
77.104,980.88,-80.52
39.772,998.692,-78.324
73.444,1001.132,-61.488
26.596,983.32,-17.324
-9.028,959.408,31.476
12.688,962.58,29.768
63.44,998.204,2.196
77.348,992.348,22.936
-12.688,976.488,41.236
-80.764,1024.8,6.1
-26.108,1052.128,19.52
-57.34,1007.476,53.68
-213.744,983.564,20.984
-305.0,1010.16,-20.008
-202.764,908.412,-53.436
-7.32,644.648,-39.528
394.548,488.488,-17.324
855.708,418.948,105.408
1092.876,316.712,209.84
1018.456,220.332,309.88
1261.48,242.78,205.448
1417.884,358.924,88.816
1203.652,332.084,112.24
981.368,312.32,116.144
903.044,357.704,90.28
892.552,331.352,114.924
1002.84,285.724,129.076
1001.864,243.024,112.484
939.4,229.604,72.224
950.38,234.728,59.536
810.08,242.78,44.164
750.788,269.864,13.664
763.232,280.6,16.836
778.848,229.848,35.868
713.456,116.144,116.876
536.556,26.596,164.456
514.84,4.636,133.468
577.792,0.976,111.996
615.856,6.588,118.828
557.54,0.976,85.156
544.364,-11.468,52.704
559.004,-5.612,-24.156
563.64,-26.352,-49.532
515.328,-7.076,-77.592
549.488,15.86,-156.16
634.644,-31.232,-228.628
807.396,-79.544,-274.744
868.152,-159.332,-264.252
868.152,-260.348,-293.532
1113.372,-305.244,-375.028
1350.784,-277.184,-460.916
1417.152,-344.772,-469.456
1383.236,-453.352,-418.948
1396.656,-508.252,-396.5
1592.1,-513.62,-417.728
1772.416,-529.236,-427.244
1748.748,-502.884,-402.844
1566.236,-513.132,-349.896
1564.772,-524.844,-323.3
1641.388,-531.92,-288.896
1630.652,-581.208,-190.076
1514.264,-594.384,-170.312
1500.356,-580.476,-152.988
1436.184,-534.604,-142.008
1436.184,-566.08,-38.552
1412.272,-611.22,50.996
1403.732,-651.724,82.716
1303.936,-609.512,109.312
1324.188,-520.94,91.5
1377.624,-536.312,132.248
1495.476,-541.924,125.904
1509.628,-498.98,90.28
1293.932,-449.692,78.324
1067.744,-419.192,102.236
958.92,-362.584,135.664
1072.624,-290.116,105.652
1124.596,-287.188,105.896
1033.096,-268.4,82.96
965.264,-229.36,86.864
936.228,-200.324,46.848
982.832,-127.612,18.788
849.608,-100.284,43.188
859.612,-55.144,-28.548
1006.744,-4.148,-126.636
1010.648,-20.496,-87.108
849.852,-4.392,-41.236
769.82,30.5,-42.7
809.348,90.768,-64.172
911.34,162.26,-99.796
897.676,185.684,-126.88
767.868,176.9,-83.204
724.436,196.908,-94.916
782.996,202.032,-131.272
595.604,247.904,-81.74
379.908,339.892,-21.472
309.148,399.184,-38.552
417.728,441.64,-111.264
574.376,443.348,-109.068
537.532,401.136,-30.988
578.28,406.748,-27.328
651.48,395.036,-94.916
738.1,412.116,-89.792
782.752,413.092,-38.552
817.644,428.952,-16.348
850.34,428.464,-42.7
830.088,452.864,-130.296
845.704,496.54,-165.188
945.744,534.848,-107.848
923.296,521.916,-87.596
984.54,471.896,-42.7
1017.968,442.86,-13.908
985.272,485.804,-75.396
946.476,518.5,-86.132
891.088,526.308,-64.904
978.44,569.252,-61.244
1024.312,623.176,-50.02
951.356,612.684,-55.144
980.148,641.964,-75.64
1009.428,650.504,-61.488
886.696,607.316,12.2
764.696,549.732,40.748
788.12,655.628,-103.7
634.644,606.096,-62.22
431.88,670.512,-10.492
347.212,897.92,-208.62
-304.268,707.112,9.272
-554.612,762.256,229.116
-411.628,777.872,229.116
-457.256,854.488,117.12
-325.008,980.148,-106.628
-372.1,966.24,-63.928
-505.812,891.82,40.992
-517.036,910.852,29.524
-378.688,1000.888,-82.472
-222.284,1004.792,-154.696
-246.196,986.004,-95.16
-300.852,996.496,-54.9
-350.384,985.516,-31.964
-201.3,992.592,-66.856
-106.628,982.344,-54.412
-123.708,965.752,-3.416
-125.172,964.532,28.06
-196.908,960.872,36.112
-195.932,998.448,-17.812
-135.176,1014.308,-81.008
-102.236,989.664,-59.048
-98.576,976.732,-21.472
-148.596,957.212,19.032
-182.512,935.74,28.548
-171.776,932.568,36.112
-63.44,935.984,29.28
-5.124,961.36,30.012
-21.228,1017.48,10.98
-36.112,1034.072,-6.588
-72.712,998.692,13.908
-121.512,991.372,17.568
-18.056,1041.636,-22.692
61.244,1047.492,-16.592
-2.684,999.424,64.416
10.492,973.56,87.108
23.18,973.56,74.908
31.964,976.0,77.592
26.596,969.168,69.052
-22.692,1011.868,18.544
-65.88,1026.752,7.564
-125.172,1024.556,-11.956
0.732,1062.376,-61.0
63.928,1026.508,-24.4
6.588,987.468,31.964
-18.544,970.144,71.248
-23.18,953.796,94.428
31.964,950.868,86.62
73.2,965.752,66.612
38.308,970.632,71.98
25.132,971.12,68.076
30.744,996.252,31.232
10.736,998.936,42.456
-5.612,1003.084,56.12
-13.176,1015.04,47.824
-22.936,1015.528,39.284
4.148,1017.48,8.54
27.084,1022.604,2.196
34.16,1024.068,8.052
25.376,1013.088,21.716
16.592,992.836,61.244
18.056,970.144,71.98
4.636,972.34,52.704
15.128,997.96,18.544
25.864,1008.208,-9.516
15.372,997.716,-5.124
44.408,987.468,-2.44
40.504,970.876,29.036
