acc_x[mg],acc_y[mg],acc_z[mg]
61.0,993.324,-83.692
119.56,1028.46,-112.484
107.604,1044.564,-97.112
60.756,1037.488,-88.084
30.988,1021.384,-104.676
43.92,1004.304,-103.212
46.116,996.008,-95.892
54.9,995.764,-82.716
80.52,1000.644,-68.076
81.252,1004.548,-79.056
74.42,1004.792,-99.552
86.376,997.228,-125.904
99.064,1005.036,-151.768
98.82,1011.38,-162.016
80.764,1014.064,-173.24
2.684,1030.412,-160.064
-21.472,1045.54,-127.124
-22.692,1042.612,-107.604
-20.496,1034.316,-93.208
9.028,1006.744,-92.232
26.84,977.22,-68.32
29.768,951.6,-55.144
-16.348,937.448,-53.436
-35.868,929.64,-44.408
-31.232,924.516,-41.48
-15.86,935.984,-60.512
-19.52,940.864,-59.292
-16.104,938.424,-57.096
-12.688,940.62,-62.952
-17.812,946.72,-63.684
-5.856,955.504,-63.44
-12.932,965.996,-70.76
-34.404,981.612,-69.052
-50.752,982.1,-63.44
-82.96,992.348,-67.1
-81.496,1000.644,-85.644
-63.928,1005.28,-92.72
-60.268,1013.576,-93.94
-27.084,1024.556,-110.532
-26.84,1036.024,-112.728
-30.744,1036.268,-109.556
-23.912,1044.32,-105.652
-3.416,1062.864,-107.848
16.348,1078.724,-110.532
34.404,1083.848,-93.94
56.852,1084.58,-94.916
76.372,1072.136,-116.632
63.196,1043.832,-96.38
10.248,1019.92,-55.388
36.844,990.884,-19.52
47.824,979.904,-16.104
28.548,978.44,6.588
41.236,968.924,26.352
21.716,965.752,51.484
33.428,962.336,59.78
28.548,955.504,71.004
-17.812,959.164,77.836
-14.884,969.412,73.444
9.028,990.884,48.556
-61.488,1032.608,57.584
3.66,1073.112,44.896
74.42,1108.98,17.568
56.364,1119.472,13.42
-20.252,1105.076,23.912
-208.62,1105.076,-15.372
-61.488,1124.352,-32.208
-1.464,1091.656,-20.008
-8.296,1067.256,0.0
6.832,1035.78,-23.424
-38.552,1016.26,-23.18
-5.856,985.76,-35.624
12.2,958.92,-46.36
-19.276,941.352,-41.724
-57.096,929.396,-38.308
-70.516,921.832,-27.572
-48.8,902.8,-32.208
-62.952,888.892,-43.188
-65.88,877.424,-54.168
-105.408,870.592,-22.204
-176.656,861.32,7.32
-196.908,872.788,10.004
-158.356,893.772,18.056
-147.864,913.78,41.968
-139.568,934.276,37.332
-105.408,954.528,22.692
-156.16,955.504,16.104
-152.256,953.308,16.104
-151.036,964.532,10.736
-158.6,973.804,-7.808
-220.088,986.492,-3.172
-237.168,996.984,-14.884
-273.524,1004.792,-11.468
-265.472,1026.996,-6.1
-286.944,1043.588,-17.568
-331.108,1081.896,-58.804
-429.196,1108.492,-18.788
-472.384,1143.872,-12.688
-465.796,1174.86,-15.616
-523.868,1197.308,-59.78
-500.688,1240.984,-88.084
-388.936,1229.028,-76.128
-229.116,1219.024,-88.572
-67.1,1188.28,-141.032
-86.62,1072.868,-122.0
22.448,906.216,-3.66
435.54,688.324,117.364
512.4,365.024,242.292
810.568,67.832,225.212
1133.868,25.62,119.56
1022.116,-164.212,261.568
1004.548,-135.176,188.612
884.988,-124.928,156.16
915.732,-155.184,143.96
1107.76,-197.152,191.296
1137.04,-292.556,241.316
1117.276,-371.368,219.356
1094.584,-358.68,144.448
997.716,-252.052,115.412
923.052,-138.592,142.74
847.656,-61.0,109.068
843.752,19.52,51.24
862.052,79.3,31.72
930.128,95.892,7.076
934.276,92.232,29.28
824.72,68.808,21.228
765.428,91.744,6.588
834.236,147.62,10.004
853.268,148.352,10.492
767.624,91.256,30.012
642.696,60.756,33.672
488.732,67.344,46.604
399.428,83.448,53.924
313.784,51.728,74.42
344.772,50.264,85.4
329.156,50.752,63.196
436.028,58.56,-31.232
633.18,31.72,-156.16
849.852,33.916,-216.428
791.536,-14.396,-212.524
782.02,2.196,-243.756
900.604,-44.652,-340.136
986.98,-57.584,-367.22
956.724,-102.48,-353.068
1026.264,-163.236,-377.956
1133.38,-229.848,-419.436
1290.028,-227.896,-471.408
1367.132,-220.088,-446.032
1395.924,-259.86,-432.124
1541.104,-328.424,-488.488
1671.888,-356.24,-515.816
1745.82,-432.368,-412.848
1745.82,-506.788,-294.996
1698.728,-603.168,-240.096
1637.728,-681.736,-136.884
1612.108,-693.204,-3.172
1634.312,-680.272,77.348
1627.236,-703.452,170.556
1604.3,-767.136,273.768
1539.884,-816.912,336.72
1533.052,-799.1,364.292
1460.096,-696.864,384.544
1317.356,-582.428,391.376
1180.472,-503.372,381.616
1204.14,-456.768,362.34
1209.508,-433.832,321.592
1095.56,-390.156,306.708
1015.284,-318.42,306.464
973.804,-290.848,309.148
1003.816,-284.992,257.664
1026.02,-220.332,191.052
927.444,-162.26,182.512
868.152,-105.896,142.984
833.016,-76.616,110.288
830.576,-8.296,88.084
702.964,49.532,65.392
649.04,137.616,0.244
572.424,222.528,-23.668
478.728,300.852,-17.08
395.524,368.44,-31.476
313.784,402.6,-46.848
311.1,481.9,-101.016
307.196,573.888,-119.804
350.14,617.076,-129.564
331.108,609.024,-138.348
389.668,617.076,-143.96
472.628,616.832,-156.892
555.832,612.44,-155.916
624.884,576.328,-135.42
667.096,543.632,-101.992
735.66,518.5,-70.028
789.34,490.44,-43.432
865.224,483.852,-11.224
924.272,469.7,43.432
944.036,455.304,69.54
899.384,465.308,58.56
897.676,492.148,45.872
995.52,558.76,28.304
994.788,596.092,65.636
986.004,658.068,41.48
1027.972,711.504,1.464
777.384,695.644,-3.416
420.412,734.44,71.492
373.808,793.0,70.028
297.68,854.244,12.444
173.728,821.548,114.68
-15.86,756.888,98.088
-198.86,725.656,125.66
-225.212,755.18,178.364
-588.284,732.732,233.508
-986.98,768.356,200.324
-841.312,866.932,101.016
-713.944,928.664,55.144
-594.384,974.78,17.08
-552.66,1001.864,-4.636
-570.472,998.936,-15.372
-496.052,1011.868,-39.04
-404.552,1019.676,-36.844
-342.576,1013.576,7.808
-368.928,991.616,44.652
-374.54,984.052,35.38
-329.644,979.172,63.684
-274.012,983.808,70.272
-243.512,986.004,58.56
-274.012,980.148,70.516
-310.856,973.072,70.028
-295.24,962.58,70.028
-244.244,967.46,60.512
-242.78,964.776,65.88
-230.58,971.12,71.004
-249.856,949.892,94.916
-289.384,951.112,84.424
-262.544,950.624,86.376
-256.932,945.744,101.26
-250.344,948.916,93.452
-258.396,943.548,104.432
-230.092,934.52,110.532
-234.728,914.268,123.708
-233.508,907.924,122.732
-226.92,919.148,111.996
-242.78,932.812,112.24
-243.756,955.26,87.108
-239.852,961.36,101.26
-241.316,955.016,109.068
-250.588,943.06,133.224
-243.024,938.668,144.936
-241.804,933.544,159.576
-223.748,935.496,179.828
-200.324,937.692,213.256
-194.468,950.38,220.82
-170.312,977.464,225.944
-194.224,984.784,266.204
-197.396,977.708,299.632
-197.64,955.504,329.888
-79.056,958.676,307.684
25.132,984.296,273.28
-44.408,995.764,255.712
-66.612,992.348,235.948
-58.072,986.98,196.176
0.976,991.128,176.412
1.708,980.636,159.576
-27.328,994.544,91.744
-105.652,1007.476,55.876
-60.024,1010.892,57.828
-31.72,995.764,24.4
-36.112,999.18,-23.668
-51.24,1001.132,-19.032
-121.268,985.516,-19.764
-143.472,981.856,-65.148
-93.94,981.612,-89.792
-62.22,979.66,-79.3
-126.392,978.196,-25.132
-157.868,949.892,-12.444
-168.848,911.584,-32.94
-216.428,899.384,-60.512
-149.328,923.54,-88.572
-150.548,945.5,-106.628
-191.296,971.608,-157.624
-198.86,985.516,-181.78
-224.236,979.66,-156.648
-241.804,985.272,-138.104
-210.084,999.912,-137.372
-162.748,1014.064,-113.948
-126.392,1007.476,-56.12
-133.956,981.368,-6.1
-152.5,968.192,-12.444
-109.312,974.536,2.44
-40.748,1001.132,34.404
-28.792,1024.8,60.756
8.296,1049.932,58.56
10.98,1064.816,85.4
-10.004,1062.864,102.968
20.496,1057.496,101.504
26.108,1065.06,93.696
16.104,1063.84,89.548
32.94,1053.592,78.812
61.732,1039.44,94.916
45.384,1015.528,102.236
1.464,985.516,87.596
-17.568,983.32,70.028
-32.452,988.2,62.708
-41.968,983.808,49.044
-56.12,979.904,44.408
-73.932,971.12,17.324
-81.252,980.392,-17.568
-69.052,987.468,-20.74
-90.524,986.248,22.692
-98.332,996.008,11.224
-154.696,1023.336,-35.624
-142.252,1029.436,-17.812
-149.816,1021.14,42.456
-75.64,971.852,44.652
71.004,892.552,-18.3
143.96,823.256,-80.032
173.972,724.192,-10.004
475.8,637.328,8.052
758.352,536.312,79.3
627.568,407.236,119.072
646.6,236.924,77.836
871.568,130.54,125.904
1038.952,179.096,43.188
1354.688,298.168,-14.884
1311.012,302.804,-79.3
1222.44,271.572,-62.22
1218.048,239.12,-36.112
1141.676,200.324,28.548
1154.852,192.028,82.96
1141.188,206.424,79.3
1059.204,201.056,76.128
1040.172,194.468,47.58
1002.352,204.472,44.896
1034.316,202.764,89.06
996.74,189.344,78.324
965.996,183.0,53.192
859.368,178.852,46.36
789.828,206.424,6.344
813.984,198.128,29.036
761.524,165.432,-3.172
677.1,147.132,-19.032
616.1,140.544,-16.836
607.804,102.48,-30.5
599.508,76.616,-59.292
550.952,112.24,-13.176
512.156,120.78,-2.684
620.736,106.628,-115.168
832.772,89.304,-201.3
940.132,39.04,-224.48
879.132,5.856,-181.536
854.976,-28.792,-143.716
894.992,-53.436,-162.748
1115.08,-85.888,-217.892
1219.512,-142.252,-224.48
1126.548,-212.524,-178.364
1145.336,-252.296,-188.124
1249.28,-228.384,-197.64
1371.28,-209.596,-203.984
1392.264,-256.444,-170.068
1443.016,-325.984,-186.416
1529.392,-316.468,-182.756
1559.16,-300.364,-156.16
1562.332,-353.068,-94.672
1572.824,-484.584,-26.596
1500.112,-571.936,33.184
1504.504,-580.964,60.756
1571.848,-539.484,61.976
1608.204,-487.024,91.012
1598.444,-475.556,122.488
1541.348,-504.592,158.112
1550.62,-520.452,194.224
1529.148,-546.072,278.16
1403.732,-551.684,305.976
1306.62,-498.248,287.92
1221.708,-402.356,283.284
1164.368,-312.808,295.728
1142.164,-278.404,276.94
1091.168,-274.988,246.684
1036.268,-242.78,225.456
979.172,-200.568,205.936
882.304,-103.212,187.636
834.968,-1.952,164.944
695.156,64.904,160.552
630.984,119.804,117.852
579.5,159.82,118.828
508.496,210.816,99.064
476.044,269.376,68.076
411.384,320.372,40.016
318.42,417.728,10.248
354.288,492.392,9.028
387.228,534.604,-24.644
324.52,542.412,-37.82
305.732,557.784,-51.484
357.704,596.58,-107.848
473.116,634.4,-103.944
473.36,626.836,-68.076
456.524,619.028,-65.148
506.788,618.296,-80.52
622.444,626.836,-76.86
728.584,620.736,-71.492
780.312,606.828,-82.96
813.008,606.828,-72.468
845.948,607.316,-45.384
865.712,605.364,-17.324
920.856,621.712,-31.476
906.46,638.792,-33.672
815.936,655.872,-49.044
782.752,696.864,-54.9
919.392,732.732,-62.464
1023.092,742.492,-59.78
866.932,704.428,-49.044
603.656,719.556,-28.304
403.332,726.144,37.576
318.908,778.36,14.64
327.448,849.852,-24.156
279.38,841.312,-3.416
96.136,869.372,17.324
66.368,912.316,20.252
-2.196,941.108,33.916
-138.836,957.212,15.86
-256.444,974.048,32.696
-299.144,1006.988,-52.216
-342.576,1027.728,-67.588
-375.272,1043.832,-74.664
-319.152,1052.128,-67.588
-328.912,1022.116,-65.88
-374.052,1008.696,-92.72
-383.568,1000.644,-133.224
-324.764,1021.628,-139.324
-212.768,1037.488,-136.396
-188.612,1044.076,-140.788
-237.412,1033.096,-129.808
-269.376,1017.236,-124.196
-274.012,1027.728,-118.34
-187.636,1024.8,-106.872
-138.592,1022.116,-98.088
-159.576,1006.256,-75.64
-171.776,988.932,-76.86
-204.716,966.728,-52.704
-197.396,948.428,-31.72
-193.004,936.472,-10.98
-183.976,939.156,-25.62
-179.584,970.144,-57.828
-157.136,988.932,-61.976
-152.988,986.736,-44.164
-189.1,980.88,-42.7
-193.736,967.46,-34.16
-195.444,961.604,-23.912
-182.024,977.464,-37.088
-155.916,981.612,-16.104
-166.896,969.9,-3.904
-192.76,956.236,1.464
-192.272,942.572,11.468
-177.388,943.06,23.424
-170.312,950.136,22.448
-166.164,963.068,1.464
-164.456,973.56,1.708
-173.24,981.856,-2.196
-177.876,985.028,0.488
-162.748,985.516,5.612
-154.94,986.736,27.572
-141.032,992.104,27.084
-137.616,1000.888,21.228
-136.884,1004.792,27.328
-145.424,1003.084,52.216
-140.788,999.18,78.568
-149.328,1008.94,99.064
-96.624,1024.312,94.672
-95.404,1044.808,114.68
-117.12,1068.964,150.06
-100.04,1088.728,184.22
-48.8,1093.12,203.496
-11.712,1086.776,205.692
-3.66,1056.032,211.06
-61.976,1017.236,207.4
-34.404,979.904,231.068
-34.16,943.548,244.0
-59.78,908.168,227.408
-87.596,880.84,202.276
-147.376,868.396,159.088
-146.888,886.208,112.728
-127.124,896.944,94.916
-125.172,890.6,84.424
-151.524,874.74,51.484
-188.124,868.64,16.104
-233.996,879.376,-2.44
-179.34,881.572,-18.544
-134.444,895.724,-71.492
-136.64,912.072,-98.576
-169.092,913.292,-91.012
-164.7,898.652,-115.656
-144.936,905.972,-167.14
-162.504,935.008,-200.324
-176.168,953.308,-205.448
-186.172,959.652,-203.008
-179.096,968.436,-220.82
-183.244,971.852,-204.716
-192.76,966.728,-164.456
-197.884,984.54,-166.896
-147.132,1021.872,-152.5
-137.372,1054.568,-133.468
-90.768,1079.456,-118.584
-83.448,1078.48,-81.252
-61.244,1068.232,-54.656
-32.208,1065.304,-24.4
-15.86,1056.032,21.716
-5.124,1055.056,21.716
10.248,1058.716,19.764
13.42,1064.328,22.692
17.568,1062.376,17.812
23.668,1047.736,33.916
16.104,1019.188,42.456
1.464,999.424,27.572
-11.956,997.228,3.416
-20.984,1002.84,10.248
-11.956,1011.136,5.124
-20.984,1012.844,4.148
-28.304,1011.868,-4.88
-56.12,1011.136,-21.228
-175.192,1027.728,-21.96
-265.716,1070.672,27.328
-213.988,1098.488,-10.248
-116.144,1078.236,-102.236
-23.18,1012.356,-91.256
4.88,881.816,-111.996
212.036,709.552,-68.32
589.016,478.484,92.72
817.644,296.704,216.672
1272.704,175.924,32.94
1147.044,309.88,48.556
765.672,418.704,100.528
807.884,427.0,135.908
969.412,339.404,166.652
1090.68,182.024,155.428
1129.232,158.6,128.344
1113.372,216.184,145.912
1070.916,262.056,162.016
1044.564,240.584,194.224
1095.56,190.808,190.32
1028.948,183.0,193.736
970.632,204.472,214.72
990.152,204.96,212.768
1025.044,170.8,195.444
1056.764,136.64,181.536
969.168,120.292,169.336
888.892,139.324,159.088
867.42,166.408,146.156
847.412,182.024,124.44
813.008,186.904,105.408
756.644,179.096,87.596
715.164,159.088,96.868
656.604,158.844,97.356
631.716,166.652,86.376
643.916,161.772,54.9
596.58,145.18,40.016
595.116,103.7,46.116
581.696,60.024,29.28
632.204,22.448,27.572
657.824,12.2,-2.44
808.128,1.464,-95.404
944.768,19.52,-171.288
973.804,17.324,-145.668
1047.98,-24.888,-214.964
1262.456,-43.92,-307.196
1301.252,-61.0,-333.792
1202.92,-71.248,-320.128
1112.396,-112.972,-329.156
1146.312,-173.972,-400.648
1278.56,-197.884,-378.444
1225.856,-231.312,-385.52
1299.788,-223.504,-426.268
1346.392,-167.384,-418.46
1466.44,-98.82,-392.352
1534.028,-110.044,-296.704
1527.44,-214.476,-211.792
1580.388,-355.996,-135.908
1640.412,-464.332,-47.092
1648.22,-499.468,11.224
1634.068,-479.46,72.224
1551.108,-462.624,110.776
1480.592,-443.348,156.648
1381.04,-408.456,210.816
1312.964,-366.488,267.18
1291.98,-335.5,294.264
1292.712,-312.32,277.916
1280.268,-297.192,245.22
1228.784,-280.6,244.976
1183.4,-257.42,250.1
1152.412,-220.576,226.188
1220.244,-154.94,159.82
1182.668,-112.484,121.756
1066.768,-63.196,95.648
1006.988,-20.984,89.792
962.58,11.956,94.428
894.992,28.792,88.084
810.324,79.544,69.784
810.812,135.42,58.316
755.912,163.236,40.26
656.848,202.52,-1.22
606.096,288.652,11.712
590.236,348.432,1.952
620.98,401.868,-48.312
597.312,430.172,-52.948
426.268,447.74,-60.512
376.98,469.944,-21.472
416.752,487.512,-3.904
410.164,510.692,-2.928
317.932,560.956,-6.344
322.812,603.656,0.244
372.832,660.508,-62.22
454.816,731.024,-86.62
493.124,778.116,-67.344
506.788,768.356,-71.98
589.26,754.204,-95.892
684.176,730.78,-98.576
742.004,714.676,-82.472
793.0,717.36,-91.988
804.712,705.16,-82.472
868.396,692.716,-71.736
882.792,663.924,-46.36
851.804,645.136,-45.872
875.716,631.716,-7.076
874.008,609.268,25.864
864.736,611.952,35.624
834.236,637.084,43.92
739.32,650.748,62.952
686.86,710.772,6.344
699.304,754.204,-31.72
823.744,824.232,-26.84
870.592,810.324,-5.124
600.728,771.04,39.772
499.468,797.88,11.956
432.124,796.416,20.252
237.9,794.22,89.548
214.232,813.252,49.776
209.596,874.008,-7.808
66.124,891.82,39.528
-144.448,874.74,140.788
-266.204,887.428,148.596
-274.988,920.124,51.24
-282.064,969.168,29.28
-368.44,985.028,36.112
-413.824,978.44,17.08
-371.124,950.38,-28.548
-336.232,953.796,-64.904
-333.548,972.34,-51.728
-316.956,992.836,-39.04
-285.724,998.448,-28.304
-245.952,1006.012,-45.628
-238.876,1013.82,-56.608
-257.664,1019.432,-31.72
-257.42,1013.088,-29.036
-249.124,1008.696,-44.164
-218.136,1012.356,-45.872
-184.952,1011.136,-42.456
-167.384,1015.528,-63.44
-204.472,1007.476,-46.36
-215.696,991.86,-40.016
-217.404,978.928,-29.524
-224.48,973.316,-32.452
-181.292,972.584,-32.696
-183.0,975.268,-17.568
-178.608,976.732,-28.304
-171.044,965.508,-8.784
-166.652,954.04,3.66
-182.756,957.7,8.54
-193.98,971.12,12.2
-160.796,976.732,35.868
-151.28,963.068,64.416
-146.644,946.476,82.228
-170.8,945.5,122.976
-168.36,962.336,168.116
-148.84,976.732,214.964
-109.8,976.732,267.18
-38.308,954.284,315.736
-25.864,925.492,312.564
-9.272,909.876,283.284
9.516,889.136,248.392
-16.104,879.864,183.488
-75.64,885.232,102.968
-117.364,910.608,52.704
-136.396,936.716,3.66
-125.904,949.404,-57.34
-127.124,951.112,-98.332
-136.64,948.428,-134.2
-149.084,939.156,-131.272
-147.62,939.644,-144.936
-115.9,948.672,-137.86
-98.332,965.264,-134.688
-86.62,977.464,-126.392
-55.144,989.664,-113.704
-33.184,1004.792,-106.384
-14.64,1028.948,-96.868
-14.884,1058.472,-93.94
-11.956,1082.628,-85.888
6.588,1095.804,-64.66
-3.416,1099.464,-39.284
8.296,1111.176,-45.14
59.78,1144.36,-50.508
65.88,1150.216,-22.936
78.812,1139.48,-15.86
74.664,1113.372,-16.836
78.568,1096.536,-15.372
71.736,1073.6,13.908
58.316,1049.932,27.084
40.504,1024.312,22.692
10.98,1010.16,10.492
21.96,1000.4,5.368
34.648,991.128,3.904
3.904,977.464,-7.808
-11.712,970.876,-8.296
-19.032,959.652,11.956
-40.504,952.332,35.136
-29.036,942.328,30.256
-39.772,962.824,4.88
-78.568,994.788,-45.14
-226.188,1026.996,-13.176
-213.744,1095.804,14.884
-267.912,1047.736,12.932
-124.928,935.008,-36.112
44.896,803.98,-68.808
439.444,654.652,18.788
682.468,521.916,74.664
615.124,331.596,152.012
838.384,245.22,57.828
1005.768,307.684,84.424
909.144,307.684,34.648
1097.024,305.488,-22.448
1234.396,226.676,-124.928
1216.34,124.928,-128.588
1289.052,26.84,-56.852
1238.056,-23.912,4.636
1177.788,-9.028,58.072
1116.3,39.284,53.192
1093.608,82.716,64.416
1077.26,114.436,48.8
1014.308,132.004,40.504
994.3,166.408,13.176
969.412,156.648,21.716
884.988,139.324,21.716
864.98,133.956,33.672
775.92,142.984,35.868
720.044,138.592,18.544
781.532,138.348,8.296
748.104,86.376,14.152
679.784,22.448,30.744
559.492,-18.544,44.164
563.884,8.54,34.404
627.324,24.644,14.152
665.876,-1.464,-35.136
742.98,-50.02,-75.64
789.34,-101.016,-122.732
879.376,-75.152,-130.296
889.38,-96.868,-113.948
984.784,-98.088,-173.484
1185.84,-135.42,-253.028
1270.02,-170.068,-302.072
1225.856,-159.82,-306.952
1238.3,-139.324,-283.04
1239.764,-144.204,-286.456
1361.52,-183.976,-303.536
1360.3,-222.772,-300.364
1285.88,-233.752,-245.708
1248.304,-231.8,-203.496
1291.492,-229.848,-192.516
1312.232,-249.368,-127.368
1278.072,-285.48,-60.268
1303.448,-350.628,-21.472
1405.196,-380.64,-47.092
1491.816,-348.188,-89.548
1478.64,-294.508,-73.2
1443.504,-265.472,-60.512
1460.34,-290.116,-16.592
1466.44,-349.896,10.248
1513.288,-428.708,33.428
1598.932,-475.068,39.04
1572.336,-467.992,49.044
1478.64,-434.808,68.076
1389.58,-387.96,91.5
1338.34,-350.14,76.372
1285.88,-323.056,63.928
1222.928,-292.556,65.636
1115.812,-243.268,62.952
1041.636,-156.404,62.952
925.004,-79.056,67.344
865.712,-20.252,27.328
829.112,28.792,28.792
786.9,53.924,29.28
752.984,81.252,0.488
716.872,114.924,-6.1
704.916,157.38,-33.672
578.524,179.828,-14.884
529.724,223.992,21.716
429.684,264.008,33.672
408.212,332.328,13.42
355.508,400.648,16.104
313.54,457.988,28.548
357.704,471.652,8.052
400.892,479.46,-12.688
476.288,484.096,-50.264
579.744,497.76,-97.112
669.292,513.864,-104.432
763.72,519.964,-117.852
783.728,504.104,-122.244
842.288,505.568,-119.56
883.524,500.932,-104.92
910.852,483.852,-93.94
930.372,466.528,-78.08
975.756,473.604,-84.668
1001.62,473.116,-73.932
982.344,463.356,-80.032
1023.824,467.748,-84.18
1038.708,461.16,-78.08
1043.1,453.84,-75.64
1061.156,433.832,-51.484
1051.64,421.144,-34.16
976.976,411.872,-42.212
1005.524,425.536,-26.352
1064.084,462.38,-23.424
1041.636,467.748,-0.244
1011.136,496.54,6.588
1006.012,523.38,17.08
919.88,499.468,50.996
830.088,540.46,53.924
874.008,589.748,8.784
623.908,514.596,45.384
198.128,582.184,140.544
175.436,736.636,92.964
349.408,841.8,106.384
181.048,910.608,135.664
-94.428,936.96,108.336
-278.404,974.536,81.74
-242.048,983.32,87.108
-234.972,990.396,10.492
-259.128,1009.428,-26.108
-234.972,1015.772,3.416
-264.496,996.984,-2.196
-277.428,972.34,0.488
-239.852,941.596,12.932
-193.98,941.84,8.54
-195.444,972.096,-15.616
-196.176,1003.328,-38.796
-196.176,1025.776,-63.684
-146.156,1028.216,-52.704
-113.216,1026.264,-41.968
-129.32,1012.844,-21.228
-166.652,986.492,1.22
-176.656,976.244,-17.08
-141.764,982.832,-31.476
-106.872,988.2,14.152
-119.56,991.616,11.468
-117.608,990.64,14.64
-151.036,980.636,51.972
-149.328,995.276,37.82
-62.22,1006.012,33.672
-55.632,1010.648,40.016
-67.588,1003.572,52.704
-69.052,984.296,69.296
-75.152,975.756,67.588
-55.388,970.144,76.372
-59.048,970.632,74.908
-46.848,978.928,55.388
-58.804,989.176,50.264
-45.872,1003.328,36.844
-60.756,1004.304,47.092
-76.128,996.496,49.044
-87.108,991.86,46.116
-78.08,1004.792,11.468
-39.772,1020.652,5.612
-50.996,1022.848,26.596
-32.94,1015.772,17.08
-55.388,1001.864,26.352
-76.128,990.396,25.132
-72.712,986.248,18.544
-48.8,1001.62,-9.028
-46.848,1000.156,1.952
-59.536,991.372,-11.956
-67.588,981.368,-13.664
-97.356,974.78,-13.908
-81.984,982.344,-28.304
-87.84,989.176,-26.596
-98.088,996.252,-15.128
-98.332,995.032,-7.808
-88.084,993.568,5.368
-63.684,994.056,11.468
-37.576,1004.792,24.644
-40.016,1003.084,53.192
-43.92,997.228,80.764
-40.26,996.008,89.304
-32.696,996.008,156.404
-48.556,985.272,196.176
-43.432,994.544,205.204
-67.588,994.056,261.568
-18.544,996.496,265.716
42.944,1035.536,210.084
50.752,1045.54,219.844
18.788,1040.904,214.232
36.844,1020.408,195.444
48.312,1004.06,172.508
57.584,998.448,122.488
21.472,979.904,117.852
3.416,950.38,109.8
-43.676,931.348,77.348
-12.932,918.904,38.796
-37.088,915.732,10.004
-42.212,918.66,-33.672
-26.108,917.684,-66.368
-14.884,912.072,-87.84
-27.816,917.44,-115.656
-1.464,943.548,-184.952
0.732,969.656,-200.08
-13.42,980.636,-187.392
-50.508,976.732,-179.096
-86.62,971.12,-181.536
-73.688,968.436,-171.532
-81.74,966.24,-126.392
-70.272,980.88,-106.384
-65.392,1014.064,-95.648
-39.284,1045.784,-66.368
-11.224,1059.448,-34.648
2.928,1057.984,-13.42
38.308,1050.908,-12.932
73.932,1048.468,-18.544
58.56,1041.148,11.956
50.996,1034.316,22.936
35.38,1032.12,5.368
38.308,1035.292,1.708
35.624,1040.172,2.44
42.456,1042.612,-15.128
37.576,1036.756,-29.524
-15.128,1027.24,-26.352
-56.852,1012.356,-28.06
-61.0,1028.948,-23.18
-41.236,1042.612,-32.452
-56.608,1063.108,-39.284
-20.984,1078.48,-52.948
-26.84,1084.336,-42.944
-41.48,1083.604,-86.376
80.032,1094.584,-51.484
124.44,1069.452,3.66
239.608,1014.552,-27.572
376.736,990.152,-72.224
244.244,1017.968,-90.768
246.684,1024.556,-71.736
270.108,970.144,0.976
315.004,856.196,-8.296
694.668,781.532,-172.996
572.424,683.2,-134.932
464.088,512.644,60.756
463.6,289.628,204.96
585.844,115.412,233.264
1155.828,111.752,54.168
1076.772,159.576,112.484
783.484,159.82,148.84
923.54,200.08,75.64
1091.656,218.868,50.264
1158.268,195.444,34.648
1101.904,152.012,73.688
1092.876,163.724,52.46
1124.596,204.228,54.412
1045.784,232.532,88.572
1038.464,238.632,73.2
1054.08,183.244,67.1
1046.516,147.864,76.372
1059.692,140.544,110.044
1000.888,147.864,102.236
983.32,173.728,92.232
1008.696,192.76,68.808
1023.824,163.724,30.744
950.38,159.82,22.204
896.212,170.8,13.664
766.648,178.12,24.888
767.868,204.472,34.892
716.384,193.98,24.644
614.392,149.328,30.988
550.708,107.116,4.636
444.568,76.128,19.276
405.772,97.844,38.796
465.796,87.84,46.116
432.368,64.416,20.984
537.044,17.812,-24.156
767.624,-14.396,-150.304
925.98,-31.72,-220.576
916.952,-45.872,-163.236
892.064,-83.204,-132.248
991.86,-111.508,-209.108
1132.648,-87.108,-275.72
1170.712,-69.54,-303.536
1121.424,-122.488,-281.82
1291.248,-194.224,-374.052
1467.66,-206.18,-473.848
1463.024,-179.584,-384.788
1358.348,-185.684,-273.524
1377.136,-250.1,-271.328
1541.348,-314.516,-293.044
1677.744,-380.396,-289.628
1604.056,-391.132,-236.436
1499.136,-404.552,-142.008
1494.5,-393.328,-132.492
1519.388,-388.448,-112.728
1527.684,-396.256,-65.636
1565.016,-460.672,-44.408
1509.628,-546.804,-1.952
1395.68,-576.328,50.02
1371.036,-506.3,55.388
1376.404,-445.056,46.848
1462.048,-425.536,37.82
1343.464,-425.78,61.488
1204.628,-412.848,137.372
1118.008,-364.048,156.404
1127.524,-301.828,162.016
1139.724,-268.156,150.06
1091.656,-242.78,113.704
1014.064,-198.128,113.216
971.608,-121.268,118.096
977.22,-99.308,140.788
979.66,-108.092,105.896
994.788,-99.308,78.812
940.376,-46.116,91.988
914.268,-12.444,91.744
880.352,26.596,58.072
847.412,80.032,30.256
823.012,121.024,20.252
772.504,153.232,17.568
704.184,177.876,-7.808
623.176,233.02,-34.892
546.072,316.224,-41.724
512.644,364.048,-20.74
465.064,362.828,-18.788
410.164,349.408,-31.964
344.772,375.76,-40.992
405.04,424.072,-47.58
407.48,482.144,-61.732
485.804,517.28,-86.132
627.324,533.872,-119.56
680.76,502.396,-103.944
775.188,481.412,-114.68
806.42,466.528,-94.672
801.54,479.216,-81.984
894.016,501.908,-72.468
962.336,508.984,-44.652
1025.044,486.048,-30.988
988.2,477.508,-43.92
935.008,476.288,-53.436
1022.36,530.456,-62.464
1169.492,595.848,-34.16
970.144,557.54,38.796
745.176,567.056,58.56
672.464,616.832,40.016
519.964,614.88,59.048
334.28,649.284,69.784
272.792,742.736,40.016
209.596,836.92,53.924
84.668,871.08,130.784
-123.22,879.376,79.544
-241.804,929.152,50.508
-348.188,940.376,132.98
-218.624,977.952,81.74
-227.164,983.32,31.232
-372.344,980.148,72.224
-404.552,966.972,66.612
-324.276,976.0,0.732
-265.96,1002.108,-1.22
-309.392,1011.38,-1.464
-380.152,1024.8,-22.936
-427.732,1050.176,-39.04
-345.748,1053.592,-14.152
-254.004,1074.332,-91.256
-238.144,1094.34,-117.364
-293.044,1081.896,-64.416
-304.268,1080.432,-88.328
-239.12,1077.504,-92.232
-239.12,1058.228,-62.22
-226.676,1039.928,-50.264
-228.872,1011.868,-37.82
-255.712,999.18,-39.528
-197.64,1000.644,-46.848
-171.288,995.032,-24.156
-192.028,976.244,-2.928
-195.932,952.82,-2.196
-207.156,943.548,-5.612
-196.908,939.888,9.028
-188.368,936.228,30.256
-193.98,934.764,38.064
-192.516,935.984,30.012
-186.172,945.988,25.376
-172.264,948.916,60.756
-181.048,943.304,60.756
-185.928,951.844,30.5
-190.076,977.464,22.448
-138.104,1006.5,13.42
-139.812,1008.208,24.888
-163.724,993.324,29.524
-205.692,979.904,27.816
-220.576,965.752,46.848
-202.764,964.288,56.364
-174.216,967.704,41.968
-152.744,976.0,28.548
-159.088,973.56,31.72
-161.04,969.9,18.3
-167.872,971.12,45.14
-177.144,969.412,63.928
-181.292,984.784,33.428
-141.52,1001.62,23.668
-117.364,1006.988,39.528
-124.44,996.008,54.9
-143.472,976.488,73.688
-163.968,961.848,88.328
-139.324,973.804,94.184
-122.976,985.272,100.772
-104.188,993.568,115.9
-110.532,997.716,147.132
-135.176,989.176,197.64
-142.74,986.492,239.608
-117.608,994.3,264.252
-35.868,1007.72,267.424
26.108,1010.648,297.924
-3.172,988.688,329.156
-7.076,947.94,334.28
-46.116,904.508,330.62
-35.624,900.36,274.5
2.928,904.02,252.296
-51.24,898.164,219.6
-72.468,894.504,155.672
-102.236,903.044,63.684
-89.792,935.008,-8.54
-127.612,958.432,-63.196
-127.856,973.072,-125.416
-120.292,971.608,-177.144
-124.928,980.88,-203.496
-181.048,968.192,-211.548
-184.952,958.676,-226.676
-151.524,946.964,-250.344
-132.736,952.82,-290.604
-131.516,973.804,-300.12
-168.604,996.74,-310.124
-174.46,1010.648,-287.432
-191.296,1010.16,-240.34
-184.708,1003.328,-205.692
-165.432,998.448,-170.068
-119.316,995.032,-140.056
-95.404,1008.94,-84.912
-106.628,1022.36,-50.02
-90.036,1032.608,-19.764
-80.52,1032.608,4.636
-59.536,1038.708,18.056
-36.6,1036.268,38.308
-26.596,1021.384,53.436
-33.916,1007.232,59.292
-59.292,988.2,62.708
-44.164,974.78,47.336
-76.128,957.212,46.116
-117.608,964.532,5.856
-96.624,982.588,-28.548
-64.172,1001.864,-28.06
-42.212,1005.036,-28.06
-42.7,1011.38,-34.892
-30.5,1020.896,-50.752
-11.956,1032.12,-67.832
-36.6,1055.544,-19.276
-35.38,1085.556,-31.72
-161.528,1056.764,23.912
-406.26,1045.296,47.092
-186.172,899.872,-87.84
312.076,705.892,-157.868
727.852,692.96,-311.588
817.156,595.116,-66.124
651.236,414.8,22.936
591.212,180.804,91.744
888.648,171.044,-103.456
1194.38,300.852,28.06
1274.412,353.8,-59.292
1119.228,280.844,-104.432
988.444,198.372,-105.652
988.2,151.036,-27.816
1104.1,121.268,27.328
1204.628,140.544,-3.416
1130.208,124.684,2.196
963.556,71.248,-30.256
1021.628,78.08,17.324
1093.608,57.828,68.808
1098.976,33.428,74.664
1043.344,38.796,57.584
1014.064,69.296,41.236
1035.048,81.496,47.336
1002.352,81.74,55.388
928.664,97.112,13.664
862.296,102.724,40.748
788.852,90.28,68.076
781.532,50.996,60.512
599.996,-11.712,64.416
509.472,-38.308,82.96
427.732,-63.928,61.244
503.86,-65.148,-2.44
477.752,-29.768,-93.208
545.828,61.732,-172.02
673.928,77.348,-226.188
838.872,36.112,-349.896
989.664,-11.712,-437.248
1079.7,-59.048,-407.968
1055.788,-96.624,-336.232
1052.86,-130.54,-357.216
1285.88,-154.94,-422.608
1463.268,-208.864,-449.692
1427.156,-269.376,-432.856
1444.236,-317.444,-336.476
1437.892,-372.1,-265.228
1426.424,-424.56,-230.092
1437.16,-426.756,-201.056
1431.548,-381.372,-186.416
1435.208,-371.612,-146.4
1458.144,-425.292,-76.128
1404.464,-507.276,-24.644
1372.5,-511.424,-8.296
1363.96,-492.88,30.5
1325.408,-504.348,71.98
1273.192,-498.736,84.424
1246.108,-458.72,103.944
1249.28,-419.924,115.412
1239.032,-404.552,128.832
1309.304,-396.5,132.004
1272.216,-411.872,148.84
1250.256,-410.896,165.676
1245.132,-378.932,146.644
1222.928,-330.376,136.152
1189.256,-260.104,163.236
1181.692,-223.992,137.616
1182.18,-230.336,91.744
1139.48,-225.7,83.204
1111.664,-206.668,67.832
1103.124,-158.112,49.776
1011.624,-107.604,24.644
916.22,-43.676,37.332
892.064,-0.732,30.744
886.208,48.068,-18.3
850.584,103.7,-21.228
770.796,147.376,-7.076
735.416,195.932,-35.38
705.648,224.968,-65.88
677.344,274.012,-87.596
674.416,316.224,-50.996
644.648,333.548,-42.944
584.868,355.752,-65.148
455.792,419.68,-38.552
357.46,518.988,29.524
277.916,578.036,70.272
228.384,617.076,61.976
309.148,649.284,10.736
432.124,694.668,-40.992
495.564,717.848,-77.592
588.284,703.452,-91.012
671.488,640.256,-87.596
741.028,597.8,-91.5
803.248,569.252,-83.936
848.876,557.052,-68.564
892.064,544.852,-47.336
925.98,538.508,-41.48
920.124,528.748,-26.596
955.748,534.36,-10.736
943.06,534.604,-0.976
961.36,537.776,11.224
968.68,527.772,29.036
946.964,520.452,40.016
914.024,506.3,64.416
857.66,494.344,42.212
856.684,505.568,12.932
919.392,532.408,28.06
932.812,544.12,49.044
943.792,552.66,63.928
950.136,590.236,54.656
802.76,586.576,54.656
598.532,613.66,67.588
519.72,737.124,-40.992
601.704,831.308,-66.368
647.82,851.804,-40.016
551.928,874.74,-42.456
503.128,815.448,-60.268
207.156,787.388,60.024
-68.076,797.392,161.284
-54.9,903.532,107.36
118.096,986.004,19.764
23.18,1048.224,6.344
-108.336,1051.64,10.248
-133.224,1019.188,2.684
-95.404,988.932,-5.368
-11.224,1009.428,-35.624
-39.528,1025.288,32.452
-91.988,1017.236,66.856
-94.672,1013.088,23.668
-66.856,1002.596,37.332
-43.676,1007.964,64.172
-58.072,1031.388,54.9
-49.288,1047.98,37.576
-87.108,1040.416,70.516
-125.416,1030.656,68.32
-104.92,1030.656,41.968
-41.724,1039.928,30.744
-25.62,1039.928,32.94
-20.496,1029.924,29.28
-21.96,1024.8,-2.928
-36.356,1026.752,16.348
2.928,1027.972,18.788
6.1,1009.916,45.14
9.028,995.276,45.628
5.368,989.908,34.648
25.864,1006.012,17.812
18.3,1015.284,9.76
1.22,1005.768,23.18
-41.724,985.76,37.576
-65.392,974.78,59.292
-59.78,968.436,53.68
-72.956,985.028,40.26
-28.548,1009.184,-4.392
-22.936,1019.188,14.884
-31.476,1007.964,9.76
-33.428,997.228,24.4
-43.92,993.08,38.308
-20.008,1001.864,39.04
9.272,1005.768,32.452
22.204,997.228,34.892
22.204,984.54,39.284
19.276,967.46,52.704
9.028,962.58,66.368
1.22,970.632,63.928
16.348,991.616,43.432
3.416,998.692,51.24
-9.028,997.716,46.848
-14.884,985.516,49.044
-18.788,971.608,62.708
-9.516,970.632,49.776
16.104,985.028,39.284
28.792,996.984,42.456
33.672,995.032,39.284
18.3,994.788,35.136
0.732,991.86,32.452
-4.636,986.98,35.38
4.148,988.444,26.596
19.276,988.444,20.496
8.296,993.568,32.696
3.172,987.956,37.332
4.636,984.784,40.016
8.54,984.54,42.456
26.596,1000.156,27.084
47.092,1013.576,32.452
45.628,1015.528,46.36
34.648,1007.964,41.236
29.524,1001.864,44.652
20.984,995.764,67.832
22.936,991.372,87.352
39.04,992.348,93.696
39.284,999.912,106.14
51.484,1018.7,103.456
46.116,1023.336,131.516
47.336,1016.992,163.724
49.288,1005.28,174.948
61.244,1013.088,192.272
102.968,1025.776,200.08
139.812,1017.48,216.916
131.516,1014.064,228.628
132.98,999.18,242.536
130.54,971.608,260.836
120.048,960.384,234.728
110.532,958.432,209.84
127.124,950.38,180.56
113.46,951.112,130.784
92.476,965.508,72.468
102.236,961.116,45.384
72.712,951.112,5.124
78.324,943.304,-50.02
65.636,950.136,-97.112
39.772,958.432,-141.032
8.54,967.46,-173.24
-12.688,974.78,-195.688
-58.316,980.636,-218.868
-53.924,989.42,-198.616
-62.708,985.272,-186.66
-50.02,979.416,-184.464
-45.872,975.512,-159.576
-52.704,989.42,-117.12
-0.244,992.104,-80.276
31.232,991.86,-54.656
46.848,994.3,-41.236
56.852,997.716,-33.672
34.892,1010.16,-40.26
46.604,1018.944,-32.208
49.776,1017.724,-5.124
55.388,1014.552,0.732
49.776,1020.164,-15.616
59.536,1023.58,-10.736
81.74,1023.336,-20.008
89.792,1016.26,-11.224
75.884,1014.064,-19.764
67.1,1021.628,-31.476
74.176,1019.188,-11.468
75.884,1007.476,-9.272
63.684,1001.62,-25.132
69.784,1006.012,-26.84
71.492,1008.94,-27.328
75.152,1003.328,-21.228
68.076,986.736,-3.416
49.044,983.564,-9.76
43.188,986.736,-4.636
42.456,986.004,21.96
50.508,985.76,6.344
79.3,983.564,-11.224
62.952,981.368,-2.44
47.824,986.736,-12.444
41.968,996.74,2.196
42.7,997.472,15.372
50.752,999.912,21.472
73.688,1007.476,14.152
139.568,1025.044,3.416
253.272,1042.856,-21.96
195.688,1038.952,19.032
122.976,1028.948,43.432
58.072,1022.604,80.032
41.236,1024.068,89.548
-13.908,1043.832,66.124
-77.592,1065.792,46.36
-127.612,1064.328,65.392
-145.18,1038.952,53.192
-131.028,1024.556,-8.296
-72.468,1022.116,-40.26
-16.348,1023.336,-61.0
-27.328,996.984,-68.564
-82.228,965.996,-38.064
-153.232,980.88,-60.268
-184.464,986.492,-40.016
-320.616,1036.024,6.832
-379.176,1062.864,24.156
-241.316,997.472,10.492
-263.032,879.376,-91.256
273.524,716.872,-185.44
1169.004,751.276,-276.208
689.056,632.936,-20.984
382.348,277.184,232.044
451.156,9.272,239.12
737.856,-24.644,178.12
1460.828,253.028,34.892
1220.732,305.0,64.904
1021.872,283.284,-45.628
1004.06,277.428,-74.664
1148.508,317.932,-7.808
1131.672,309.636,13.42
1094.096,289.628,0.976
1004.304,267.424,41.48
960.384,248.88,27.084
941.352,270.108,29.036
1061.644,268.4,-10.248
1128.744,263.032,-22.448
1060.424,200.324,37.332
963.312,95.16,99.796
958.188,79.788,81.008
1045.784,143.716,40.748
1011.624,202.276,53.68
959.896,212.036,50.02
957.944,163.724,43.92
985.028,153.964,50.02
947.452,214.964,-19.032
979.416,319.64,-48.068
958.92,330.132,-2.196
929.396,246.44,33.184
907.436,168.604,14.64
852.048,223.016,-32.452
946.72,301.096,-4.636
871.324,282.796,-30.256
827.648,209.84,-66.124
790.072,180.804,-40.992
761.28,167.872,-25.376
618.784,124.196,-31.72
498.248,110.532,-58.804
408.944,96.868,0.0
390.888,38.064,15.372
496.54,-42.212,16.592
576.328,-59.292,-97.844
715.652,21.472,-197.884
757.376,70.76,-138.836
746.64,-17.812,-67.344
909.144,-81.984,-155.428
1106.052,-141.276,-147.864
1030.9,-205.448,-30.744
1119.472,-216.672,-83.204
1234.396,-214.72,-156.892
1357.86,-235.704,-197.396
1281.732,-230.824,-236.192
1288.32,-173.728,-345.016
1416.908,-95.404,-472.14
1576.24,-0.488,-491.416
1548.668,-67.832,-382.836
1517.192,-200.324,-359.168
1570.628,-321.592,-276.452
1586.976,-409.188,-211.548
1548.424,-479.46,-160.064
1495.476,-478.24,-127.612
1449.116,-511.912,-34.892
1413.736,-545.828,34.892
1509.628,-562.42,77.104
1533.784,-558.516,79.544
1502.552,-534.848,94.184
1460.828,-522.16,115.168
1404.708,-545.34,139.812
1341.024,-550.464,170.068
1272.216,-526.796,194.468
1207.312,-445.3,178.12
1183.888,-371.124,135.42
1140.7,-307.684,114.68
1115.324,-279.38,86.376
1071.892,-268.156,91.012
1016.26,-234.24,91.744
977.952,-167.628,47.58
928.664,-93.208,40.992
929.152,-71.004,51.728
816.912,-68.564,43.92
763.232,-32.208,34.648
802.516,25.132,-10.98
802.272,74.908,-41.968
753.716,121.512,-23.668
720.288,126.88,-21.96
697.84,167.872,-23.424
566.324,217.892,14.396
471.164,262.788,43.188
448.228,305.488,35.868
428.464,342.088,17.812
459.452,381.616,30.012
441.152,398.696,37.82
475.556,412.848,38.308
558.028,421.876,10.492
612.44,463.356,-27.572
655.14,520.94,-50.508
688.08,525.576,-33.428
825.208,513.62,-55.876
895.968,489.464,-82.716
914.268,466.528,-58.804
888.648,437.248,-35.868
891.088,420.412,-25.376
956.724,414.068,-38.308
1019.188,421.632,-47.58
1021.384,423.828,-59.048
990.64,445.788,-55.144
1034.316,508.984,-38.064
1007.72,526.796,-27.816
1002.596,604.144,-71.492
912.804,663.924,-102.724
719.8,639.524,-99.308
685.64,740.052,-160.552
507.52,723.216,-167.384
472.14,723.948,-63.684
497.028,737.124,-43.676
167.628,753.472,144.204
-181.78,843.996,186.66
-191.296,951.112,130.296
-296.704,967.948,148.352
-393.084,963.8,133.224
-360.144,968.436,76.616
-323.056,976.0,60.512
-287.676,996.252,60.268
-249.124,1038.464,12.932
-256.932,1057.984,1.464
-228.14,1073.356,9.516
-225.7,1069.208,25.132
-193.248,1056.52,36.844
-190.076,1056.276,37.82
-156.648,1060.18,54.412
-119.804,1046.272,76.372
-143.716,1023.092,72.468
-144.448,1013.576,70.516
-125.172,1009.916,50.264
-71.736,1009.672,46.604
-48.068,1011.624,62.464
-86.376,1004.06,68.076
-120.536,995.276,65.148
-116.388,1000.888,48.8
-116.876,1010.16,46.604
-78.568,1008.452,33.428
-97.844,990.396,24.888
-133.956,973.316,37.576
-111.752,968.192,70.028
-123.952,958.676,103.456
-136.152,943.548,102.48
-129.808,951.844,83.204
-92.964,967.704,55.876
-71.98,987.224,41.968
-62.708,992.836,45.872
-84.424,982.344,70.028
-117.852,973.56,90.036
-120.292,964.288,99.796
-83.448,969.9,76.86
-38.552,981.368,68.076
-39.528,982.344,70.272
-46.36,965.752,94.184
-66.124,948.428,109.068
-66.124,948.672,116.632
-49.532,965.02,112.972
-28.06,988.932,84.912
-21.472,1004.304,72.224
-23.668,1010.16,62.708
-33.428,1006.256,81.984
-35.38,1003.572,87.352
-30.5,1009.184,85.888
-19.276,1008.696,117.12
3.416,1016.748,125.416
4.636,1007.964,143.472
4.88,1004.792,180.804
1.952,1014.796,228.872
30.256,1022.116,253.028
75.884,1033.828,242.536
77.348,1030.656,254.248
90.28,1016.748,234.728
45.872,1003.572,212.036
29.524,992.836,210.084
38.796,977.952,188.368
72.712,982.588,128.832
56.608,978.928,97.112
29.524,971.608,68.564
31.232,951.356,40.016
2.44,928.664,31.72
-14.152,922.32,-1.708
-20.74,941.352,-38.796
-27.572,955.748,-37.576
-29.768,942.572,-26.84
-36.6,921.1,-52.46
-48.068,923.052,-86.132
-31.232,949.16,-104.92
-41.236,972.828,-126.636
-26.108,981.856,-133.468
-39.04,972.096,-133.224
-77.592,968.924,-134.932
-89.304,984.54,-180.804
-84.912,1001.62,-171.776
-79.3,1012.844,-153.232
-51.24,1010.892,-135.664
-43.188,1016.26,-138.592
-24.644,1027.728,-116.144
-7.32,1040.66,-83.448
23.912,1051.884,-80.032
33.916,1054.08,-61.244
30.5,1058.472,-42.456
38.064,1056.276,-28.548
38.796,1041.392,-12.688
44.896,1035.048,-12.2
44.896,1026.996,-11.712
36.112,1021.14,-2.44
19.032,1009.916,20.008
20.984,1001.62,11.468
28.548,994.788,5.124
30.5,986.492,15.616
28.792,981.856,10.492
25.864,980.392,8.784
3.66,988.444,0.488
9.516,997.472,-10.736
3.172,1004.06,-8.296
-9.516,985.516,3.904
-6.344,954.528,20.984
21.716,955.504,0.732
20.008,969.168,-31.476
19.52,1009.184,-37.576
-40.748,1034.072,-37.82
-72.956,1050.664,-42.944
-53.436,1047.004,-46.848
-32.94,1031.876,-56.608
-11.712,999.18,-60.512
10.736,995.032,-46.36
27.328,994.788,-34.892
29.768,989.908,-14.152
46.36,1003.816,-27.084
57.584,1034.072,-36.356
-28.548,1038.708,-25.132
-80.52,1029.192,-25.376
-124.44,1017.724,4.392
-133.224,1025.288,39.04
55.144,985.76,-0.488
232.532,905.24,-37.576
372.344,892.552,-157.868
452.62,796.904,-98.332
609.024,662.216,-43.432
813.496,563.64,19.764
780.068,447.496,95.892
658.312,305.244,172.752
614.148,244.488,167.384
778.36,239.608,151.524
1233.908,276.452,-24.644
1320.528,314.272,-22.204
878.888,275.232,24.888
923.296,254.248,1.22
1155.34,261.812,52.46
1281.976,217.892,-0.488
1198.772,160.796,-14.884
1094.584,78.568,74.176
986.736,15.616,147.864
966.484,43.92,131.516
1104.832,98.576,120.292
1128.988,136.396,74.908
1062.864,138.104,44.652
1042.124,119.316,71.736
983.076,121.268,96.38
1002.84,155.916,68.564
999.18,174.704,58.072
964.776,167.872,54.9
916.708,151.28,24.888
884.012,141.032,46.36
868.884,144.692,61.244
749.568,140.788,32.208
665.144,170.312,16.592
640.744,146.4,51.728
543.876,90.28,67.344
473.848,29.036,49.044
445.544,2.196,54.656
438.712,7.564,-1.708
586.088,71.492,-101.26
686.616,83.936,-167.628
785.192,24.156,-189.588
913.78,-93.94,-204.96
1087.996,-177.632,-199.348
1128.5,-238.388,-163.724
1138.504,-261.568,-172.996
1200.48,-270.352,-171.776
1227.564,-296.704,-189.588
1232.932,-308.416,-202.032
1288.808,-336.72,-198.86
1309.06,-358.436,-201.3
1328.336,-348.676,-263.764
1382.504,-297.436,-260.836
1322.724,-301.096,-230.58
1296.372,-327.692,-239.364
1304.912,-335.012,-233.752
1261.48,-326.228,-202.52
1185.596,-344.772,-158.356
1192.672,-375.272,-116.144
1225.368,-404.796,-94.672
1183.4,-390.156,-71.248
1230.492,-389.18,-38.308
1314.184,-427.732,-44.408
1361.276,-463.112,-34.892
1362.496,-478.728,-14.152
1378.112,-482.144,14.64
1391.044,-474.58,55.144
1368.596,-484.34,91.012
1328.824,-517.524,142.496
1270.264,-515.084,188.368
1216.828,-489.464,240.096
1218.048,-467.992,247.904
1201.7,-449.692,237.9
1169.98,-412.604,216.916
1198.284,-374.296,211.792
1102.392,-340.624,199.348
1053.348,-294.02,165.188
1086.288,-223.748,128.588
1041.392,-190.32,125.904
993.08,-166.408,97.356
970.144,-125.416,104.188
986.248,-52.216,60.268
981.612,9.76,44.408
907.68,35.624,42.944
780.8,58.316,66.612
663.192,115.656,86.62
635.864,209.596,1.952
717.604,290.36,30.5
629.52,336.476,3.416
479.948,389.424,9.028
378.444,446.52,5.368
285.48,526.308,-7.808
299.632,563.152,56.364
349.896,566.812,43.92
347.212,558.272,4.636
439.444,579.012,-54.168
618.54,601.46,-34.16
629.52,581.208,-27.084
662.948,572.424,-38.552
732.244,563.884,-62.22
809.836,579.012,-86.376
870.348,590.48,-23.424
849.364,568.52,-8.784
870.836,534.36,-9.76
904.264,515.084,0.244
944.28,518.744,-10.98
974.292,519.232,26.108
974.292,501.908,29.768
1013.332,495.076,14.884
1074.332,493.124,45.872
1000.644,486.78,52.46
886.696,496.54,25.62
897.188,520.208,48.068
941.352,538.752,70.76
1078.236,557.784,51.24
1138.016,561.2,21.716
817.4,562.176,77.836
599.996,674.172,-8.54
545.34,775.432,-68.564
423.34,791.78,0.0
406.748,812.52,11.712
711.992,848.876,-117.12
365.756,728.34,95.16
-75.884,733.464,213.744
-77.348,808.128,111.996
-29.036,827.648,98.576
-165.188,857.904,145.18
-226.92,914.024,48.556
-397.964,941.84,50.996
-465.064,968.436,49.044
-399.184,972.584,18.788
-274.744,1015.528,-58.316
-156.16,1057.252,-130.54
-214.232,1060.668,-19.276
-257.664,1039.196,18.3
-224.968,1008.452,8.052
-140.056,1015.284,-28.06
-114.436,1045.296,-19.764
-119.804,1057.252,15.616
-111.752,1054.568,4.636
-101.504,1043.1,-10.248
-89.792,1020.652,-11.468
-48.312,1033.584,-49.044
-59.536,1046.76,-40.26
-92.964,1028.216,-7.32
-101.992,1004.792,-7.32
-95.648,988.444,-15.86
-54.168,991.616,-32.452
-49.288,1002.352,-34.892
-104.432,1002.84,-9.272
-106.628,988.688,-2.928
-116.632,966.972,19.032
-135.908,955.016,26.84
-107.604,961.848,12.444
-66.124,976.244,-4.88
-48.8,995.032,-9.272
-58.316,996.496,-22.448
-75.152,991.372,-2.196
-95.892,988.932,3.172
-87.352,994.3,2.684
-63.196,1004.06,3.172
-42.7,1014.552,-3.904
-36.356,1009.184,-5.124
-53.192,998.448,-0.244
-69.296,989.42,7.076
-88.084,990.884,18.3
-68.564,994.544,24.644
-53.68,996.496,26.108
-32.208,994.3,16.348
-42.7,992.592,14.884
-43.432,990.396,29.036
-40.26,988.2,31.476
-25.864,985.516,47.336
-11.712,981.856,46.116
-28.06,982.588,53.924
-16.592,991.372,27.816
-10.492,992.836,16.592
-9.76,986.004,18.3
-30.988,975.512,20.496
-37.088,979.904,-1.464
-47.824,998.448,-31.72
-51.484,1009.916,-19.764
-49.044,1012.6,-6.344
-63.44,999.18,2.196
-53.924,986.492,-1.22
-32.696,981.124,4.636
-16.592,979.904,9.272
-20.008,983.808,1.22
-37.576,982.344,22.692
-56.364,984.784,34.892
-55.632,993.324,24.888
-34.404,1000.156,36.356
-32.208,1001.864,44.896
-3.172,1002.84,29.036
-11.468,996.984,31.72
-20.74,987.712,44.896
-24.156,983.076,51.484
-20.984,985.76,47.092
-26.108,991.616,31.72
-0.488,991.616,17.324
2.684,987.468,9.76
-1.952,991.128,6.344
-10.248,995.764,34.648
-26.352,985.516,61.244
-44.408,978.196,62.708
-34.16,988.444,50.508
-22.448,1027.728,67.344
-18.056,1044.564,105.896
9.76,1039.684,141.52
14.64,1019.188,162.992
10.492,1006.012,177.632
2.196,1009.916,188.612
7.564,1025.288,194.956
45.628,1028.948,188.124
73.444,1016.504,184.22
54.412,991.616,174.948
75.152,997.96,176.168
93.208,976.488,187.636
115.168,951.356,140.056
111.752,943.792,81.008
90.28,952.332,50.508
62.22,959.164,15.86
51.484,951.6,-26.84
38.308,955.26,-78.324
18.788,957.212,-113.948
-6.588,974.78,-152.256
15.372,978.44,-164.212
32.696,964.776,-171.532
33.916,962.092,-214.72
9.516,976.732,-223.26
-29.524,994.544,-176.412
6.832,996.74,-187.88
23.912,975.024,-178.12
8.784,958.432,-157.868
-2.196,955.748,-157.136
-24.4,960.628,-132.248
-12.444,983.32,-126.392
-10.248,1001.132,-104.432
3.172,1011.868,-98.332
12.444,1021.872,-94.428
26.108,1016.016,-78.812
53.924,1007.232,-66.856
65.636,1002.352,-55.144
59.78,1004.06,-57.34
38.308,1013.82,-30.744
39.528,1012.844,-28.06
53.924,1013.576,-28.792
58.072,1015.528,-30.988
71.248,1023.092,-42.944
72.956,1024.312,-57.34
60.024,1014.552,-62.22
42.212,1013.576,-55.144
23.424,1019.432,-42.212
37.088,1025.776,-48.312
51.728,1030.168,-64.172
55.632,1033.096,-52.216
57.828,1032.852,-53.924
47.824,1034.072,-52.948
48.8,1057.74,-72.956
-40.016,1067.256,-48.312
-90.524,1062.132,-2.684
-37.576,1046.272,-19.276
-16.836,1003.084,-58.804
-73.688,970.144,-159.088
-40.016,958.92,-208.62
383.812,860.344,-129.32
675.88,667.828,-16.348
750.788,416.508,-45.628
728.34,136.64,24.156
1054.568,111.02,73.2
1237.568,245.708,72.468
1001.62,303.292,110.532
827.892,296.46,12.688
912.804,231.312,97.112
1000.888,85.156,68.076
1165.832,-21.716,20.252
1174.616,-131.272,109.556
1118.984,-186.66,125.66
1079.7,-206.18,152.5
1074.82,-200.08,164.7
1056.764,-157.38,168.848
1047.736,-104.432,164.456
1008.452,-73.2,155.428
1002.596,-74.664,153.72
959.896,-48.8,126.392
1027.484,-20.008,136.152
1012.844,-25.376,134.444
965.752,-32.696,107.116
961.848,-10.492,73.932
981.612,15.372,92.476
934.52,4.636,89.548
823.012,-0.732,65.636
756.644,25.376,68.808
753.472,57.828,66.368
734.44,42.7,86.864
639.524,-28.06,86.864
590.968,-41.724,51.24
593.652,-11.224,54.412
597.556,1.22,39.772
686.86,-22.692,-5.368
699.548,-63.44,-37.088
712.236,-83.204,-34.892
768.112,-122.732,-103.7
914.268,-138.592,-172.752
1031.388,-135.908,-176.168
1021.384,-155.428,-182.024
983.076,-209.84,-148.108
1045.052,-249.368,-192.76
1161.928,-273.28,-265.96
1324.92,-249.856,-328.668
1359.812,-234.972,-302.804
1373.232,-284.016,-335.744
1353.468,-334.768,-325.252
1380.308,-353.068,-314.76
1394.216,-380.64,-289.14
1414.712,-366.976,-287.676
1369.572,-354.776,-262.3
1371.524,-362.828,-228.872
1356.64,-395.768,-172.996
1317.6,-431.636,-124.44
1331.752,-450.18,-81.008
1305.156,-460.428,-58.316
1234.884,-464.332,-16.592
1234.64,-452.132,24.4
1193.648,-444.568,65.88
1224.392,-433.344,91.988
1225.612,-432.612,80.276
1284.172,-425.048,70.028
1291.736,-445.544,97.112
1235.128,-454.328,109.556
1224.636,-430.172,95.648
1233.176,-386.252,80.276
1285.88,-328.668,37.82
1266.36,-275.964,2.196
1217.804,-250.1,25.62
1146.312,-234.728,33.672
1095.56,-221.064,44.652
1069.208,-205.204,56.12
1065.304,-186.416,47.092
1017.236,-160.064,57.096
952.576,-124.928,76.128
876.204,-79.788,77.348
814.228,-11.224,41.48
778.848,64.172,48.556
725.412,141.764,27.084
587.796,205.448,52.216
477.264,262.544,70.028
425.048,317.2,59.78
416.996,363.804,54.9
389.424,397.476,41.48
393.084,416.996,48.068
423.584,427.732,20.496
485.316,421.876,-11.956
604.632,421.144,-7.076
680.76,397.72,-22.936
750.544,375.272,-32.452
855.708,363.804,-38.064
860.832,353.8,-51.972
911.34,368.196,-69.296
975.268,370.88,-47.092
999.668,376.736,-35.624
1048.468,386.008,-22.448
1101.904,382.348,-17.08
1066.036,368.928,-28.548
1035.292,373.32,-53.924
1114.104,419.192,-45.628
1171.932,449.448,-15.128
1115.568,430.66,13.664
1009.916,420.656,18.3
932.568,509.716,-52.46
732.488,564.616,-44.408
641.232,630.984,21.96
618.052,665.632,43.92
694.912,679.296,-22.936
653.92,727.12,-41.48
435.052,740.296,49.044
133.712,745.908,149.084
0.732,813.984,122.976
-7.076,899.384,100.04
-28.304,964.044,95.404
-91.012,991.128,98.576
-212.036,980.88,94.184
-229.36,977.22,50.996
-135.176,1009.184,6.344
-178.12,1033.096,-18.056
-301.34,1035.536,-30.988
-374.296,1025.288,-50.264
-328.668,1038.708,-67.588
-250.344,1033.828,-71.736
-209.596,1042.368,-55.632
-169.336,1054.08,-62.22
-148.596,1052.616,-56.608
-105.164,1061.4,-64.172
-68.808,1063.596,-47.092
-43.676,1038.708,19.52
-65.392,1010.892,43.92
-47.58,986.248,41.724
-61.732,973.072,53.436
-75.64,981.124,42.944
-54.412,1001.132,-3.172
-46.848,1015.528,13.176
-51.972,1016.26,10.98
-91.256,1005.036,19.276
-124.928,996.74,8.052
-75.64,1002.84,-15.86
-68.076,1003.328,-18.3
-68.564,999.424,-1.464
-79.056,984.296,9.272
-89.06,978.196,11.956
-69.54,972.828,20.74
-63.684,970.388,32.452
-42.456,981.612,3.904
-51.728,986.248,1.464
-71.004,983.076,18.788
-79.544,978.684,21.472
-96.624,974.536,30.744
-90.768,970.876,35.136
-68.32,984.784,14.64
-39.04,995.276,3.904
-35.868,999.912,21.96
-37.576,999.668,17.324
-65.88,998.936,15.128
-58.804,997.716,31.476
-68.564,988.932,37.82
-41.48,985.028,36.112
-65.636,997.716,2.196
-39.772,1020.164,-25.62
-89.792,1021.628,-2.196
-36.6,1036.512,17.568
-33.916,1019.676,103.944
-60.512,980.392,175.924
-30.256,956.724,192.028
14.396,953.552,211.06
69.784,984.784,242.78
86.376,999.424,308.904
116.388,998.692,342.332
119.316,988.2,331.596
68.076,992.104,292.8
102.968,1004.06,260.104
77.836,1008.208,230.58
45.384,1012.356,194.468
-0.976,1022.116,195.444
24.4,1005.28,199.592
36.112,968.192,167.872
21.228,947.208,122.976
3.172,954.528,74.908
-11.956,947.696,55.144
10.98,933.544,22.204
10.248,925.492,-25.376
-1.22,928.908,-61.976
-27.572,941.108,-93.452
-46.604,956.968,-130.296
-29.524,978.928,-140.056
-39.772,989.176,-138.104
-27.572,996.008,-154.452
-36.356,994.056,-171.776
-67.588,978.928,-172.02
-75.396,979.66,-191.296
-47.58,997.716,-179.34
-55.876,1001.864,-163.968
-61.732,999.912,-168.116
-89.548,996.984,-152.256
-86.62,995.52,-135.176
-61.0,999.18,-113.216
-21.472,1010.892,-83.204
-8.052,1017.48,-58.56
-4.88,1017.48,-38.552
3.172,1022.116,-17.08
40.748,1028.216,1.464
31.964,1025.288,28.304
34.648,1020.164,44.896
26.596,1014.552,48.8
34.16,1016.016,49.532
31.72,1029.192,48.068
31.964,1055.056,34.404
14.152,1071.648,9.272
21.716,1060.18,-0.244
35.624,1029.436,19.276
81.74,1014.064,34.16
148.108,986.736,27.572
118.828,971.608,48.312
103.944,982.344,55.388
57.34,967.46,84.668
39.284,960.872,65.392
35.38,960.384,33.672
24.888,979.416,3.172
20.252,993.568,3.66
44.408,1001.864,0.0
18.3,1040.416,20.984
-54.656,1024.556,43.432
-124.684,995.52,69.296
-250.344,967.948,-20.252
-131.028,1025.532,-30.988
-66.124,887.672,60.512
28.792,750.788,41.48
361.364,599.996,-154.696
688.324,479.216,-112.484
916.464,394.792,-0.976
795.196,231.312,172.02
699.548,65.392,104.188
972.584,94.428,46.848
1108.004,175.436,53.68
1112.396,220.82,-14.884
1164.856,140.056,-63.928
1149.972,23.912,-26.352
1120.936,-67.588,56.608
1090.68,-128.1,84.668
1114.592,-154.696,133.468
1214.388,-168.36,147.62
1180.96,-146.156,85.156
1147.776,-87.596,96.624
1101.172,-46.36,121.024
1080.676,-37.088,111.996
1140.456,-56.364,135.176
1096.536,-84.668,129.076
1020.896,-70.516,122.0
989.908,-41.968,114.192
951.112,-5.368,73.2
954.04,4.88,71.492
934.032,2.44,51.24
839.848,-7.808,50.02
755.424,-22.448,65.88
724.436,-26.596,81.74
657.336,-24.156,55.632
588.284,-19.032,36.112
632.936,-44.164,48.068
621.224,-91.256,30.256
621.468,-131.76,7.808
691.496,-126.636,-69.784
751.764,-98.576,-94.672
732.732,-118.096,-67.588
779.824,-171.532,-127.368
886.452,-189.344,-177.388
942.816,-201.056,-187.392
1061.644,-211.304,-223.992
1142.408,-252.784,-283.772
1257.82,-293.044,-337.452
1329.068,-356.24,-328.912
1367.132,-383.324,-352.58
1351.272,-352.336,-359.656
1352.736,-360.388,-287.432
1318.332,-398.94,-230.824
1308.816,-457.5,-202.032
1371.768,-479.704,-204.716
1420.812,-486.292,-218.624
1421.3,-460.428,-196.42
1379.332,-463.356,-132.248
1337.12,-508.496,-71.248
1342.0,-555.344,-42.7
1347.856,-555.1,-19.52
1389.092,-520.696,-31.476
1439.356,-522.892,15.128
1318.332,-568.276,106.872
1242.692,-602.68,168.36
1239.764,-591.456,166.652
1210.728,-543.144,154.696
1136.064,-474.092,160.796
1153.144,-409.676,124.684
1178.52,-384.3,106.628
1145.58,-380.396,95.404
1039.196,-362.096,122.732
1087.508,-304.512,82.96
1113.86,-300.364,91.012
1117.764,-305.976,108.336
1018.944,-262.788,108.336
894.992,-197.64,121.512
907.924,-80.276,90.768
912.56,16.592,55.144
823.012,72.468,39.284
766.16,134.688,5.124
728.584,210.572,-17.08
645.624,284.992,-26.352
565.592,346.724,-12.932
448.472,388.936,-30.256
353.068,436.272,-11.712
375.272,469.212,-14.64
453.596,465.064,-14.396
492.148,421.144,-9.516
499.468,405.04,-24.888
580.964,421.388,-39.772
600.972,441.64,-46.36
747.616,467.016,-75.64
841.8,447.008,-87.108
854.732,407.236,-45.384
894.26,369.904,-20.252
917.44,363.072,11.956
908.9,358.192,46.604
946.72,375.272,70.516
954.284,395.036,72.712
924.516,389.912,68.564
1012.112,404.552,54.168
1093.608,372.588,27.328
942.084,387.716,44.652
836.432,549.976,-38.796
785.68,643.428,-77.592
671.244,659.776,-17.568
547.048,658.8,-15.86
465.552,704.672,-36.844
439.444,661.728,-24.644
279.38,651.724,73.688
190.32,653.432,125.904
57.096,683.932,146.4
-269.62,670.268,236.192
-442.86,696.864,236.924
-428.952,743.956,158.844
-268.644,789.584,96.38
-152.256,831.796,55.876
-235.704,888.16,31.232
-435.54,927.444,94.428
-388.692,973.072,98.576
-349.164,1012.356,95.16
-309.88,1061.644,75.396
-233.264,1124.108,18.544
-269.376,1159.488,36.6
-334.768,1174.616,66.124
-352.092,1198.284,19.276
-310.368,1196.82,4.636
-199.836,1215.364,34.404
-131.76,1235.128,8.54
-153.232,1240.496,-23.18
-173.484,1217.56,-24.888
-118.584,1194.868,-20.984
-68.32,1172.176,-16.348
-46.848,1163.88,-23.912
-33.428,1143.384,-24.888
-49.044,1108.248,-9.272
-9.76,1077.504,-35.624
5.612,1036.512,-37.332
-8.54,1008.94,-22.448
-10.492,988.444,-6.832
-10.492,978.684,-25.864
5.612,978.196,-29.524
-44.896,981.368,-11.224
-84.18,974.78,-1.464
-72.712,962.092,4.148
-71.492,954.04,12.932
-47.336,966.484,2.928
-55.388,974.78,34.648
-69.784,975.024,66.368
-50.264,972.096,72.468
-53.192,977.708,86.132
-68.076,975.268,98.576
-80.032,952.088,118.096
-77.104,924.76,150.548
-59.536,909.632,157.624
-53.924,908.412,142.74
-30.744,935.496,138.348
-3.66,943.792,102.724
2.928,947.696,115.9
-21.716,954.528,127.368
-22.448,950.38,96.624
39.04,912.804,62.464
21.472,892.064,45.14
-9.028,866.688,35.38
12.932,855.952,19.764
53.924,856.44,-3.66
3.66,846.192,13.176
-52.216,857.172,10.736
-9.516,875.472,16.104
36.844,868.64,16.104
111.996,861.32,33.916
83.448,863.272,81.252
121.268,853.512,84.668
139.812,852.536,89.304
149.572,864.98,119.56
208.62,932.812,102.236
301.34,975.268,83.204
337.94,994.788,53.436
325.252,1051.64,122.244
307.44,1145.58,121.756
349.652,1191.696,104.676
375.272,1203.408,93.94
417.484,1217.316,143.472
523.624,1286.856,138.104
569.984,1299.056,53.924
549.488,1258.552,0.0
575.84,1280.756,30.988
610.732,1317.844,10.004
653.676,1328.824,-8.54
666.364,1334.924,12.444
674.416,1363.228,38.064
729.316,1362.008,26.108
733.22,1359.08,33.916
710.04,1327.36,13.176
733.708,1304.424,-35.868
695.888,1262.212,-27.816
681.248,1225.368,-7.076
657.58,1203.408,-30.012
589.504,1177.544,-34.16
581.696,1160.952,-59.048
559.004,1136.796,-56.12
515.084,1094.096,-26.84
515.328,1062.132,-84.668
