acc_x[mg],acc_y[mg],acc_z[mg]
73.688,951.356,159.332
69.784,953.064,159.576
62.708,948.428,170.068
87.108,959.652,168.848
126.636,984.052,141.52
148.108,1010.16,126.88
146.888,1011.136,137.128
153.476,999.668,136.152
153.72,988.2,125.416
137.86,967.46,104.676
100.284,951.112,120.536
95.16,934.764,107.36
104.432,943.304,97.356
94.184,944.036,106.628
99.308,956.236,111.752
137.372,977.708,91.744
143.472,996.984,91.744
142.74,1001.376,106.872
156.892,1003.572,109.068
140.056,990.64,105.408
104.188,965.752,110.532
75.884,936.472,130.784
47.092,925.004,147.62
50.996,947.696,135.176
63.684,974.536,130.052
76.616,996.984,133.956
81.496,1008.208,138.104
87.352,1007.72,134.932
132.004,1023.092,109.312
188.368,1048.712,84.424
204.716,1066.28,82.472
202.52,1061.4,109.556
187.88,1041.88,126.88
162.992,1018.456,133.468
148.108,995.032,143.472
124.684,970.632,170.312
113.704,953.064,187.88
139.324,946.476,184.952
174.46,946.476,186.416
193.98,940.62,200.08
200.812,932.812,222.04
217.404,944.768,211.06
194.712,939.4,211.06
151.28,933.788,224.236
142.008,944.28,221.064
145.18,964.776,208.62
146.644,972.584,204.716
138.104,988.444,209.108
138.104,992.836,220.332
169.092,1004.792,216.428
190.808,1011.868,218.136
172.264,1001.132,231.068
162.992,985.76,253.028
180.56,975.512,250.344
200.812,982.588,249.612
236.924,1006.744,235.46
244.0,1006.744,249.856
199.592,974.048,273.524
155.184,921.1,287.432
158.844,880.108,285.968
193.248,866.932,274.256
192.028,854.244,266.936
147.132,844.484,262.3
136.64,862.784,254.736
147.62,897.676,248.392
141.52,915.244,254.98
142.008,940.132,249.124
173.728,970.388,228.872
198.86,987.956,222.772
211.548,990.884,216.184
219.112,992.592,208.376
217.404,990.884,201.788
219.6,986.492,191.784
242.048,992.836,176.656
236.436,984.54,174.216
204.716,967.704,167.628
170.556,959.896,159.576
155.672,944.524,164.944
164.944,938.668,156.648
162.992,934.276,155.184
156.404,927.444,161.284
169.336,921.344,167.872
186.172,928.176,173.484
196.176,938.424,180.804
201.056,941.596,177.632
223.016,959.164,193.492
216.916,958.676,194.712
192.516,960.628,197.152
203.496,963.8,192.272
214.72,978.44,173.972
219.844,974.048,170.068
225.944,971.852,160.796
203.984,968.436,148.108
176.168,966.24,137.372
150.548,964.044,130.54
158.844,972.828,121.512
175.192,994.056,108.336
150.304,992.104,126.636
133.956,992.104,138.592
130.296,1003.084,133.224
133.468,1004.548,145.424
164.456,1019.676,153.232
189.832,1019.676,156.892
160.796,1014.308,148.108
131.272,1007.964,136.152
135.664,1001.62,158.112
157.38,992.104,179.096
153.72,987.712,179.584
140.3,991.616,164.456
122.732,1000.156,160.796
115.412,996.252,180.804
141.276,1000.4,188.368
146.644,1005.524,186.904
136.64,997.472,188.368
138.592,1005.524,193.248
145.912,1020.164,199.836
160.308,1027.972,225.212
165.676,1028.704,229.36
180.072,1038.708,175.68
178.852,1077.016,126.88
121.268,1064.328,138.592
86.376,1047.492,178.608
64.66,1047.248,225.944
39.04,1062.864,257.176
47.336,1122.644,236.192
70.028,1203.896,222.284
177.144,1240.252,244.732
165.188,1160.952,279.136
110.288,1094.828,216.916
24.644,1027.24,141.276
-98.576,967.46,83.448
-139.568,955.504,58.316
16.348,988.932,25.376
135.42,988.932,32.696
188.612,993.08,2.196
114.68,963.556,9.272
81.74,975.024,-11.712
161.04,1017.236,-92.964
254.98,1023.336,-139.812
191.784,1004.792,-93.208
74.664,940.62,-38.552
3.66,922.32,-13.908
31.476,944.28,26.108
-38.552,977.708,76.86
-53.68,991.616,62.22
-32.94,990.64,17.08
-82.472,981.856,30.012
-133.956,996.008,37.82
-176.412,1006.256,19.52
-120.536,999.668,-8.052
-69.784,983.32,-29.768
-88.084,969.412,-25.62
-81.74,954.284,9.272
8.296,983.076,-17.324
1.464,972.584,-13.42
-69.784,926.224,2.928
-103.456,911.34,-19.52
-142.74,892.552,-35.624
-193.004,861.076,-3.904
-148.596,833.992,11.224
-132.98,822.28,12.444
-179.828,804.956,36.844
-154.94,798.124,12.2
-123.22,821.06,-47.58
-242.536,782.02,-23.912
-278.892,795.684,-9.516
-177.876,829.356,10.98
-120.048,849.608,15.372
-71.492,926.712,-35.38
-18.544,958.432,-2.684
-40.016,919.636,62.22
-114.436,911.096,43.432
-113.216,955.016,20.252
-58.56,967.46,-13.42
-81.984,983.808,-19.276
-210.084,970.388,24.888
-180.804,1000.4,18.3
-45.628,1034.804,24.4
6.588,1037.976,41.236
-69.296,1026.02,45.628
-181.292,1005.524,50.508
-245.22,990.152,18.544
-215.696,1018.944,-18.788
-170.068,1008.94,-8.54
-167.628,1009.184,24.156
-199.348,1009.916,14.152
-221.796,979.66,60.268
-237.168,966.972,72.956
-228.14,1000.156,56.852
-172.02,987.224,41.968
-205.448,895.48,86.62
-232.044,869.128,207.156
32.208,895.236,110.288
108.58,1026.02,25.132
222.04,1098.244,33.428
295.972,1062.376,-110.044
578.524,873.276,-384.544
833.26,856.196,-304.268
794.952,663.68,144.692
645.868,167.872,500.932
844.24,-76.616,315.004
721.02,-82.228,164.212
577.06,-189.344,419.68
809.348,-246.44,508.008
1043.1,-234.24,403.576
1125.328,-268.888,320.86
1099.708,-362.584,326.228
1037.0,-315.98,325.252
911.584,-211.304,316.712
841.312,-162.504,325.252
711.26,-107.604,267.424
644.892,-84.668,244.244
561.932,-94.428,249.368
436.028,-119.804,222.284
319.884,-186.172,214.232
279.38,-190.808,166.652
327.204,-177.388,135.42
431.392,-196.664,96.624
458.232,-229.36,51.972
441.396,-249.124,24.888
590.968,-355.996,-36.112
885.232,-450.18,-181.048
1068.232,-445.544,-264.984
959.896,-456.768,-304.024
991.616,-635.864,-329.4
1343.464,-785.924,-445.056
1461.804,-824.476,-479.704
1366.644,-820.572,-452.132
1410.32,-930.616,-421.388
1460.096,-1040.172,-337.696
1423.252,-1030.412,-215.452
1441.796,-1118.008,-114.436
1509.14,-1287.344,37.332
1504.26,-1443.26,210.084
1372.5,-1486.204,352.824
1267.092,-1447.164,451.4
1217.072,-1453.508,533.628
1279.048,-1424.472,584.868
1240.008,-1396.9,555.344
1106.052,-1358.348,528.748
1168.028,-1286.368,492.148
1111.664,-1188.036,467.016
1082.872,-1073.844,426.024
1050.908,-994.3,349.164
920.368,-885.232,270.108
938.668,-805.2,269.376
996.252,-764.696,252.052
1008.208,-703.94,198.372
895.724,-657.336,124.684
877.18,-556.32,132.492
876.936,-466.528,115.9
892.308,-386.984,86.132
810.812,-310.612,13.176
697.596,-151.524,-17.812
651.236,-65.636,22.448
675.88,-25.864,-12.932
768.6,61.244,-68.564
676.856,109.556,-76.128
490.684,143.228,-71.492
387.716,197.884,-49.532
402.356,266.448,-80.764
500.932,334.036,-87.108
456.768,363.56,-88.084
365.512,454.572,-118.828
292.556,535.092,-111.264
234.24,569.496,-43.92
339.16,620.736,3.66
376.004,646.6,-16.592
302.56,673.196,-95.16
370.392,707.6,-56.852
435.54,756.156,-72.468
437.98,683.688,-26.352
545.584,648.552,6.1
630.008,667.828,-28.304
712.236,690.032,-68.808
766.648,715.652,-78.568
716.14,668.072,-28.792
662.46,625.616,1.952
714.432,616.1,-24.4
790.804,700.036,-58.56
527.04,735.904,-88.816
197.396,707.112,29.036
127.612,736.148,66.368
305.732,901.336,-76.616
509.472,1025.044,-113.948
355.996,1053.836,-57.828
80.52,1037.488,-77.836
-55.632,1066.28,-23.912
-21.472,1169.98,-57.584
71.98,1197.308,-6.344
-15.616,1146.312,-1.952
-72.712,1120.448,42.212
-113.216,1187.792,-56.608
-248.148,1170.712,-46.604
-383.812,1134.6,-77.104
-376.004,1186.084,-94.672
-212.768,1147.776,-10.004
-90.768,1092.144,51.728
-74.664,1121.18,20.984
-126.148,1093.12,4.148
-245.952,974.292,40.992
-368.44,898.896,11.468
-315.492,920.856,1.464
-167.384,963.556,36.6
-89.548,990.152,60.756
-96.624,1005.768,47.824
-139.568,974.048,76.86
-154.208,977.22,61.0
-154.696,981.368,54.9
-131.028,994.788,52.216
-96.868,1028.216,50.508
-122.244,983.076,79.056
-145.912,951.844,110.044
-111.264,950.136,118.34
-65.148,969.168,118.828
-46.604,966.24,135.908
-74.42,926.956,172.508
-90.524,906.948,198.616
-98.576,910.12,205.936
-82.96,915.0,212.524
-81.008,926.468,215.696
-93.94,925.004,239.852
-107.604,914.756,245.952
-66.612,937.204,215.94
-65.148,977.464,187.392
-77.348,1013.576,179.096
-76.616,1046.76,176.412
-64.416,1036.268,164.944
-41.236,1037.0,140.3
-35.38,1047.98,96.136
-66.856,997.716,68.808
-108.092,945.012,69.784
-97.356,940.864,90.28
-153.72,903.044,104.432
-185.684,875.96,104.188
-155.916,892.064,97.6
-161.04,972.828,132.736
-196.176,990.152,185.684
-133.956,991.128,239.608
-14.152,958.188,317.2
50.508,950.624,398.208
48.312,1004.548,359.9
30.988,1022.116,286.944
-12.932,980.392,261.324
-49.044,935.496,245.952
-44.164,952.332,188.856
-29.524,995.032,128.1
-34.648,1014.796,66.124
-58.316,1008.208,39.284
-58.804,1018.7,40.992
-19.764,1059.448,31.964
-3.416,1072.136,19.032
-29.768,1039.684,49.044
-89.548,1013.82,45.872
-125.904,1016.016,1.22
-91.256,1033.828,-10.736
-34.16,1056.52,8.54
-16.104,1063.108,21.716
-36.844,1040.416,13.42
-67.832,1009.672,5.612
-105.896,974.536,11.956
-77.836,950.136,10.736
-42.212,952.576,-6.344
-51.972,942.328,0.0
-71.736,942.084,2.684
-84.912,944.036,3.172
-87.108,954.772,-6.832
-74.908,964.532,-4.636
-106.628,956.48,-3.172
-97.112,955.748,3.172
-84.668,961.604,5.612
-92.964,973.804,2.928
-79.056,987.956,16.836
-45.628,984.296,53.436
-39.04,988.2,78.324
-55.632,1012.6,68.076
-70.516,1037.0,45.872
-53.192,1036.512,55.876
-32.94,1021.872,70.028
-32.208,1024.8,65.636
-41.236,1029.192,57.34
-34.648,1032.608,46.604
-54.656,998.692,67.1
-59.048,996.496,68.076
-51.24,986.004,75.64
-61.244,967.216,69.296
-74.176,991.616,25.132
-71.736,1022.604,18.544
-76.86,1023.092,53.436
-79.788,1016.016,55.144
-84.18,1002.596,39.284
-124.196,978.196,27.084
-134.932,986.492,15.372
-96.868,1009.672,20.008
-51.484,979.172,56.608
-37.088,956.724,63.684
-11.712,959.896,44.896
37.332,968.436,21.716
139.08,1060.912,-31.72
216.184,1072.38,-44.408
240.584,915.976,-131.272
159.82,1139.968,-183.732
241.804,1514.508,-204.228
-27.328,1285.636,-111.264
327.936,684.42,78.324
746.64,661.484,115.412
879.864,352.336,74.42
848.144,213.256,90.768
522.648,16.836,189.344
823.5,77.348,231.312
981.612,198.128,84.424
1253.916,226.432,35.624
1124.108,93.94,109.312
983.808,-40.504,168.848
939.644,-128.1,209.596
1043.344,-90.036,173.484
1130.452,-42.212,85.888
1075.308,-26.596,52.216
903.776,-76.372,103.456
816.912,-124.928,140.788
796.66,-112.728,78.324
766.892,-50.508,-1.464
778.848,4.88,-16.104
725.656,41.236,17.324
639.28,-9.76,53.924
693.692,-33.672,-22.204
771.772,-39.04,-138.836
949.16,48.312,-198.372
1173.884,77.348,-271.572
1280.268,67.1,-311.588
1294.176,-46.116,-340.38
1359.08,-155.672,-330.864
1274.9,-172.752,-274.012
1279.292,-162.748,-222.284
1368.84,-165.92,-171.044
1397.632,-204.472,-106.14
1394.46,-305.976,-21.716
1496.94,-304.268,66.368
1670.668,-383.568,176.9
1694.824,-520.94,309.392
1623.82,-590.724,427.244
1532.808,-640.988,493.368
1414.224,-616.344,545.34
1477.176,-511.424,475.312
1455.948,-403.088,379.908
1335.412,-304.512,283.284
1177.3,-222.04,181.292
1054.324,-117.852,109.556
959.408,-33.916,87.108
922.808,31.964,47.336
806.664,66.856,-3.904
736.392,85.156,-32.452
679.296,80.032,-26.108
516.792,118.584,-20.008
323.544,279.624,-10.492
315.736,401.624,-8.784
250.344,459.208,-14.152
182.756,471.896,22.204
263.276,496.54,-10.736
395.768,488.976,-39.284
543.388,501.176,-76.86
638.548,510.936,-117.852
866.932,527.528,-190.808
896.7,508.008,-154.696
880.596,503.86,-67.588
965.996,540.948,-37.088
947.94,505.568,-25.864
930.372,512.4,23.424
957.212,576.572,-13.176
865.956,588.528,30.256
719.068,627.08,-21.96
629.032,663.192,43.92
640.744,677.832,90.28
486.292,709.064,91.012
425.292,924.76,-99.308
430.904,1179.74,-187.88
410.164,1184.376,-142.74
323.3,1048.468,-6.832
260.104,1040.416,43.676
252.296,1113.86,17.568
108.092,1044.808,43.188
5.368,1037.0,39.772
-23.18,1061.156,102.48
-79.544,1025.532,120.78
-147.62,988.688,99.064
-102.724,989.908,81.74
-38.064,1064.328,56.364
-81.252,1076.04,66.612
-156.648,1010.404,125.172
-166.896,942.572,140.788
-123.464,980.88,95.404
-72.712,1053.836,54.9
-75.884,1020.408,84.912
-121.268,979.416,106.384
-137.128,943.06,103.212
-97.356,974.292,63.196
-109.8,977.464,53.924
-103.212,996.74,40.748
-120.292,988.444,39.284
-120.048,1020.408,26.352
-116.876,1007.232,40.26
-115.168,991.128,46.848
-117.12,976.488,60.512
-125.416,960.14,57.584
-125.66,946.476,52.46
-111.996,982.1,30.012
-127.368,963.068,47.336
-133.956,985.028,41.724
-132.98,961.36,70.272
-143.228,955.016,64.66
-137.616,952.088,57.828
-112.728,948.672,59.292
-81.984,980.392,43.676
-77.592,1007.232,53.924
-106.14,986.004,69.784
-116.388,975.512,83.692
-98.088,966.484,80.52
-80.764,981.612,60.512
-66.612,994.056,52.948
-76.128,993.324,60.756
-91.744,992.104,55.388
-80.032,1011.624,50.996
-66.856,1013.82,73.932
-79.056,989.908,79.788
-74.176,971.608,83.204
-76.372,989.664,69.296
-80.52,969.9,74.908
-90.28,967.948,73.444
-89.792,975.756,82.716
-85.156,961.604,98.332
-87.352,963.556,89.792
-76.86,969.656,90.036
-69.784,958.676,106.628
-59.292,980.392,97.356
-55.632,995.52,89.792
-68.32,997.228,99.064
-61.732,1005.036,98.332
-62.22,1003.572,107.36
-61.0,1011.868,125.172
-82.472,1008.452,152.012
-73.688,1006.988,157.868
-24.156,1004.548,177.144
7.076,999.424,185.196
-2.196,997.472,185.196
-13.42,1001.132,174.216
-27.572,998.692,154.208
-30.744,995.764,138.836
4.392,996.74,135.176
14.64,983.808,143.228
13.176,971.608,154.452
2.684,955.992,149.084
2.196,941.596,108.336
34.404,952.088,81.008
56.608,967.46,91.012
44.652,964.776,94.428
46.604,955.748,83.936
20.008,942.816,56.608
7.808,975.268,27.084
-5.612,1029.436,24.4
-24.644,1027.972,48.312
-59.048,994.788,80.52
-78.568,974.048,69.296
-33.184,986.736,36.6
-3.66,984.784,18.056
-30.988,986.004,-14.884
-76.128,1009.672,-30.5
-127.612,995.52,-57.34
-102.236,997.716,-58.804
-48.8,1009.428,-64.172
-23.912,996.74,-40.504
-37.82,969.168,-5.856
-77.104,962.58,9.516
-123.952,953.064,6.832
-75.884,992.104,-17.324
-37.088,1013.82,7.076
-32.452,1018.212,47.336
-26.84,1010.404,60.268
-35.136,1016.992,29.768
-26.352,1046.272,15.128
-22.448,1037.488,24.4
-16.104,1017.724,35.624
4.392,1019.676,31.964
14.64,1007.964,57.34
28.792,1003.816,67.588
7.564,979.904,62.22
-17.324,982.344,45.384
-44.164,976.244,51.484
-44.896,973.804,51.972
-29.768,1000.4,41.724
-54.9,996.252,38.308
-79.3,988.688,29.036
-72.956,1000.888,19.276
-39.528,1030.656,14.396
-3.904,1027.24,31.72
15.372,998.448,50.264
16.348,982.344,51.972
-13.908,979.904,43.676
-22.448,975.756,44.164
-31.476,986.004,29.524
-66.124,997.472,20.984
-107.848,980.88,31.232
-117.608,976.244,45.628
-111.02,962.092,40.016
-138.348,967.216,22.692
-175.68,959.896,29.28
-167.628,942.572,37.82
-121.756,971.608,40.748
-72.956,986.492,40.748
-57.096,998.448,80.032
-72.712,957.944,62.952
-47.092,1026.508,-104.676
126.636,1189.012,-102.48
186.172,1112.884,33.184
-77.592,917.684,45.872
1.22,863.272,-96.136
617.32,912.804,-32.452
773.724,731.512,125.66
712.724,425.536,206.912
756.888,203.008,335.012
891.82,57.096,245.22
784.46,169.824,103.212
894.992,86.132,162.748
1156.56,136.884,136.396
1206.092,83.204,181.048
1098.244,-33.184,208.376
986.98,-99.796,175.436
1037.732,-123.464,193.004
993.08,-100.284,185.684
942.816,-46.848,157.868
836.676,-5.368,142.008
684.664,25.62,143.228
543.876,29.28,169.336
418.46,62.464,161.528
323.056,72.712,174.948
334.28,53.436,164.456
362.828,42.456,128.588
314.272,20.984,94.184
329.888,-52.216,96.624
309.392,-171.044,80.764
449.692,-233.752,29.036
577.304,-162.504,-6.344
426.756,-172.02,-39.284
415.288,-233.02,-105.652
633.912,-320.372,-179.828
917.684,-439.2,-202.764
816.18,-613.416,-234.484
528.748,-740.54,-276.452
903.776,-709.064,-221.308
907.436,-695.888,-222.528
700.768,-761.28,-293.288
743.468,-785.436,-328.18
643.672,-804.712,-374.54
479.216,-833.504,-445.788
610.488,-807.152,-554.368
577.06,-828.136,-666.608
411.872,-1028.948,-611.464
470.92,-1123.376,-689.056
936.716,-1189.256,-843.02
1383.236,-1318.332,-791.048
1609.912,-1369.084,-841.8
1645.536,-1366.156,-816.668
1544.52,-1372.5,-857.416
1962.248,-1395.192,-755.912
2236.26,-1402.268,-767.868
2199.66,-1519.144,-605.364
1787.3,-1503.284,-585.112
1642.608,-1379.82,-571.692
1694.336,-1214.876,-548.268
1741.916,-1131.428,-591.212
1744.356,-1133.624,-630.984
1466.928,-1203.896,-623.664
1359.324,-1291.248,-490.684
1269.532,-1381.284,-390.4
1234.396,-1351.028,-390.888
1184.132,-1305.156,-311.1
1128.5,-1265.384,-255.712
1078.724,-1227.564,-210.084
1016.26,-1182.424,-165.432
971.608,-1125.328,-101.016
915.732,-1025.532,-90.28
910.12,-846.924,-109.068
612.928,-696.132,-90.036
490.196,-573.4,-32.452
691.74,-397.476,-92.232
674.416,-336.72,-94.672
562.176,-299.876,-74.176
590.48,-200.568,-134.688
568.52,-117.852,-127.368
544.608,-7.808,-114.68
481.168,56.852,-142.496
480.192,11.956,-87.84
473.36,2.928,-57.584
441.64,72.712,-64.416
471.408,155.672,-65.392
466.772,251.076,-70.516
390.4,321.836,-51.972
396.256,378.2,-57.828
356.972,345.992,-42.7
430.416,395.768,-40.992
407.968,413.092,-49.044
462.868,461.648,-91.988
438.224,467.748,-67.588
353.068,529.48,-37.576
178.852,502.396,23.668
76.86,486.78,47.58
63.928,546.804,-19.276
313.052,687.348,-85.888
310.856,734.684,-96.38
243.268,777.628,-113.46
294.752,843.508,-126.636
324.52,864.248,-131.516
423.34,870.836,-147.62
602.436,896.7,-177.876
652.212,870.348,-171.532
713.944,859.856,-164.7
786.168,825.208,-104.676
777.14,782.752,-51.972
630.496,743.956,-14.152
594.628,709.064,-2.196
611.708,741.028,-26.352
514.108,722.484,13.176
395.28,810.568,12.2
393.084,830.088,4.392
357.948,841.068,10.492
249.124,854.976,-59.536
145.668,921.344,-99.796
47.092,974.048,-172.752
37.332,1002.352,-119.804
19.032,909.144,-29.28
-32.696,947.208,-69.54
-55.876,1064.084,-160.552
-98.576,1053.104,-114.436
-124.44,997.228,-30.988
-182.512,1011.624,-40.26
-228.628,1029.192,-56.852
-268.644,1040.66,-76.372
-228.384,1016.748,-82.472
-131.028,1067.988,-61.488
-84.424,1117.52,-10.248
-215.208,1030.656,-0.244
-274.012,963.068,11.224
-140.544,1065.792,-20.496
-32.94,1106.784,3.904
-38.552,1106.54,20.496
-87.596,1082.14,-3.416
-140.788,1059.692,-29.036
-165.188,1070.916,-63.196
-174.216,1062.864,-52.704
-180.56,1047.736,-49.532
-155.672,1034.072,-29.768
-124.684,1051.152,-54.168
-142.74,1067.744,-71.248
-144.692,1043.344,-29.524
-140.788,1022.604,-12.932
-161.284,999.668,-19.032
-140.788,991.372,-21.472
-113.948,1014.796,-25.376
-99.796,982.832,12.444
-112.972,976.244,25.376
-104.432,950.624,61.488
-78.324,968.192,72.956
-73.932,954.528,121.756
-72.712,960.628,130.784
-51.484,960.628,137.372
-46.604,948.672,156.404
-50.02,909.144,200.324
-39.04,880.596,230.092
-26.596,875.96,222.528
-1.952,914.512,186.416
-8.784,953.552,176.656
-87.108,936.96,194.468
-153.964,935.252,169.336
-142.252,963.068,144.204
-67.588,1051.152,105.164
-35.868,1102.148,113.216
-54.412,1083.36,139.324
-78.812,1071.892,163.48
-108.824,1110.444,212.28
-71.248,1109.712,229.36
43.432,1073.356,234.972
101.992,1053.836,230.336
38.796,1039.196,208.864
-41.724,985.272,182.268
23.668,944.524,155.916
99.064,940.864,109.8
87.352,931.592,61.244
81.496,931.348,31.232
38.552,893.772,0.244
-23.668,882.06,-50.996
-38.552,914.024,-121.512
-39.284,947.696,-127.612
-36.844,963.8,-106.384
-39.284,956.968,-92.72
-53.924,959.652,-98.82
-90.28,990.64,-108.58
-54.168,1012.844,-87.596
2.44,1004.548,-58.56
22.448,1022.36,-63.196
17.08,1067.5,-100.528
-13.176,1071.404,-118.584
-57.584,1079.212,-143.96
-53.192,1081.164,-124.44
-40.748,1061.156,-103.7
-1.464,1051.884,-101.992
3.172,1051.884,-99.064
-43.92,1009.916,-88.084
-56.364,994.056,-103.212
-60.756,1019.432,-109.556
-75.396,1013.088,-92.72
-45.14,990.152,-47.824
6.1,982.588,-25.132
21.716,1001.132,0.244
-1.708,992.836,24.156
-6.344,969.412,41.968
1.22,959.164,37.82
2.196,955.26,49.044
11.468,965.996,51.484
24.4,996.74,38.308
17.812,987.956,46.116
10.98,980.392,53.436
13.176,988.444,57.34
16.836,1008.208,40.992
12.932,998.448,61.732
4.392,969.168,80.52
16.836,967.948,60.756
47.336,995.276,44.408
37.576,990.152,58.072
15.372,980.636,54.9
17.568,999.18,40.992
32.94,994.544,39.04
31.476,984.296,54.168
8.296,976.732,47.336
-21.472,987.712,30.012
-9.272,976.488,52.704
34.16,985.028,59.048
59.048,998.448,58.804
47.824,998.692,63.196
32.94,994.3,62.708
34.404,996.008,51.972
35.38,1001.62,43.92
13.176,988.444,44.652
0.976,998.448,28.304
11.956,1001.864,22.204
25.62,996.252,30.5
44.652,996.008,36.844
58.072,1004.304,34.892
72.224,1000.4,28.06
48.312,991.86,32.452
9.028,965.996,49.532
-35.624,968.192,22.936
-58.804,973.316,4.148
-19.032,1001.132,-4.148
11.468,990.152,22.204
31.964,995.764,33.672
24.644,981.612,44.652
18.788,974.78,39.772
24.888,976.244,23.912
26.108,1001.864,1.708
20.252,1008.94,4.392
24.4,999.424,27.084
39.284,997.716,27.572
37.088,1006.988,18.788
20.496,1009.428,22.692
19.276,994.544,32.94
46.604,990.884,29.768
41.968,995.276,25.132
8.296,982.344,25.376
15.372,959.652,38.308
29.28,959.164,29.524
48.8,979.66,14.152
45.14,998.936,3.904
40.016,977.952,18.3
20.496,1005.524,44.896
35.868,971.852,31.232
37.82,987.468,15.616
64.416,1008.452,0.976
74.908,982.344,34.892
103.7,988.2,75.884
74.42,977.22,59.292
-1.952,991.616,96.868
333.06,961.116,-72.468
666.364,996.008,-68.564
691.496,1148.264,-71.98
553.636,1248.792,-162.016
225.212,1291.492,-207.644
227.896,1006.744,-63.196
503.86,511.18,259.128
812.276,322.812,239.12
960.384,183.976,101.016
958.92,207.4,106.872
1003.328,243.756,190.32
1095.56,284.504,175.68
1043.588,330.62,94.672
1008.696,273.036,116.876
975.024,215.94,149.572
956.724,213.012,141.032
955.26,185.44,126.636
986.492,198.372,107.36
923.54,213.256,92.232
825.208,225.212,96.38
818.62,198.128,112.24
765.184,166.408,120.048
689.788,129.32,134.2
602.924,102.968,151.28
516.792,81.496,174.216
401.868,60.024,192.516
266.936,-4.88,176.412
245.464,-36.112,158.356
396.256,-115.9,119.56
564.128,-145.18,28.548
552.416,-193.736,-39.528
522.892,-283.284,-58.316
736.88,-348.676,-182.512
984.296,-317.2,-288.164
1192.428,-209.352,-378.932
1236.592,-263.032,-374.052
1293.932,-432.612,-391.376
1319.552,-607.804,-381.616
1226.1,-659.776,-362.34
1159.0,-555.344,-303.292
1279.048,-521.428,-320.86
1441.308,-599.264,-376.004
1521.34,-681.736,-301.096
1580.876,-633.912,-141.032
1727.032,-758.352,-48.068
1900.028,-991.86,30.744
1857.328,-1183.156,86.132
1748.016,-1235.86,180.804
1599.908,-1204.14,247.904
1566.48,-1089.948,277.184
1656.516,-980.392,264.984
1620.16,-925.248,264.984
1485.472,-926.468,293.044
1290.028,-922.076,344.04
1099.952,-857.66,370.636
1094.584,-730.292,328.18
1149.24,-610.488,238.632
1158.756,-541.192,148.84
1048.712,-512.888,147.132
965.264,-469.456,113.216
919.148,-405.772,66.124
770.064,-328.18,40.748
634.888,-207.888,-12.688
587.064,-61.244,-39.772
405.772,80.764,-65.148
255.712,175.924,-48.312
195.932,280.6,-73.444
196.908,394.548,-61.732
167.14,448.96,-37.82
212.524,488.244,-54.656
274.256,510.204,-56.852
332.816,527.528,-15.372
359.168,517.768,24.888
558.028,525.332,-20.984
684.664,521.916,-28.792
749.08,493.612,15.86
906.704,528.016,9.272
737.124,501.176,77.104
516.304,509.228,139.568
508.008,666.608,107.604
588.04,756.156,17.812
537.532,880.352,-7.564
333.792,1012.356,-16.836
269.62,932.324,21.472
512.644,1098.732,-53.924
595.36,1286.124,-111.508
389.18,1207.312,-36.112
223.504,1116.3,13.176
144.936,1173.396,-88.816
121.024,1202.188,-107.848
179.34,1142.652,-77.592
197.884,1064.816,-3.172
159.82,997.228,30.5
126.88,1004.06,-8.54
78.568,992.836,-13.176
73.444,990.64,-9.272
54.168,971.852,37.332
26.84,949.16,54.168
3.904,986.736,12.932
-26.84,1045.296,-35.136
-18.056,1039.196,8.052
-1.952,992.104,46.36
-1.22,979.904,15.372
-17.08,973.56,-10.736
-3.172,983.32,-29.036
37.576,987.468,15.616
72.712,968.924,57.584
54.9,965.752,55.876
54.9,945.988,50.508
79.3,970.144,42.7
86.132,978.684,43.92
50.02,984.296,22.692
36.112,1024.312,-0.976
69.54,998.448,41.724
86.864,1007.476,27.572
91.5,996.984,34.16
72.468,1011.136,8.296
55.876,997.96,13.42
31.476,999.424,-12.444
27.572,998.448,-0.488
48.8,1001.376,4.636
33.184,1009.916,-7.564
49.532,983.564,27.816
72.468,1000.888,20.496
68.32,980.88,37.82
53.436,972.096,39.772
52.46,971.608,41.48
64.904,956.236,63.684
61.732,973.072,39.04
84.424,971.608,53.436
101.748,958.92,58.072
126.392,942.572,62.708
132.492,950.624,51.728
93.208,957.212,37.576
72.224,971.364,18.544
84.668,1017.724,-10.98
78.568,1040.416,-11.224
77.104,1012.112,18.544
95.16,989.664,23.424
106.872,998.204,-0.976
118.828,998.692,0.976
107.116,1003.084,4.148
99.308,996.984,18.3
81.008,1005.28,3.416
95.892,1006.744,17.812
99.308,976.0,40.016
100.04,958.92,37.576
107.848,955.992,31.72
101.26,952.82,34.16
111.264,953.064,48.312
123.708,978.684,43.432
115.656,965.508,52.216
128.1,975.268,62.952
150.06,987.468,72.956
159.332,984.296,78.324
153.964,990.152,77.348
152.988,995.764,75.64
149.084,1004.548,62.952
141.276,1033.584,22.448
166.164,1056.52,5.124
179.584,1049.444,15.128
172.508,1029.68,12.444
187.88,1021.872,5.856
189.344,1012.112,7.076
161.04,1007.964,0.976
113.704,988.2,12.932
96.38,969.412,16.592
97.356,970.632,10.736
106.384,967.216,24.4
124.196,977.708,36.356
126.148,982.588,48.312
117.608,969.168,53.436
123.952,969.656,65.148
128.832,982.832,59.536
144.204,1002.352,52.46
147.132,994.3,64.904
127.856,971.12,75.64
108.092,968.192,86.62
111.996,967.704,94.184
114.436,962.092,104.676
131.272,969.168,110.288
131.272,971.852,114.192
129.564,984.296,110.532
143.472,999.912,92.232
143.472,1006.012,94.428
144.204,1013.332,99.796
145.424,1026.996,107.116
149.328,1023.092,122.976
148.352,1037.244,140.788
146.156,1037.732,166.652
137.372,1030.656,203.984
137.86,1047.736,245.708
154.208,1086.288,295.24
201.056,1087.264,321.104
265.96,1022.36,303.78
275.964,975.268,250.832
240.584,952.576,204.96
173.24,932.08,153.476
142.74,913.536,102.48
103.944,891.088,58.316
89.548,911.096,8.784
109.556,932.08,3.904
101.26,917.684,10.98
92.232,924.272,-43.188
93.696,950.38,-87.84
128.344,965.264,-90.524
141.52,964.776,-81.74
122.0,954.04,-78.324
101.748,955.992,-92.232
84.668,961.36,-106.14
53.924,949.648,-118.096
73.444,955.992,-126.88
94.672,974.78,-129.564
71.248,1012.844,-133.712
39.772,1022.848,-131.028
0.244,1008.208,-116.632
-5.124,992.104,-80.032
25.62,1000.156,-40.26
49.532,1007.72,-17.324
55.876,999.424,-8.052
88.572,1006.012,10.248
111.996,1021.872,28.06
123.952,1026.508,39.772
142.252,1033.584,48.312
148.108,1032.852,57.096
136.64,999.18,70.272
138.348,986.492,75.396
138.104,989.42,69.54
135.664,995.764,63.928
127.368,991.372,49.288
105.164,973.804,39.04
90.036,982.832,26.352
82.716,977.952,33.184
80.764,968.924,25.864
88.084,974.292,12.932
91.256,1005.524,9.516
74.176,1002.108,16.348
58.56,985.516,34.16
55.144,975.512,34.404
67.832,985.272,23.912
71.98,984.54,42.456
50.02,968.192,58.072
39.284,961.848,62.952
58.804,978.684,50.264
82.228,1012.356,33.428
81.984,1007.476,49.288
123.22,1027.24,53.68
121.268,1033.828,26.352
79.544,1030.168,62.952
33.916,1003.328,74.908
34.404,994.788,86.62
38.308,985.516,83.692
46.848,983.808,73.932
25.62,1019.92,2.684
41.968,1015.284,29.524
50.752,1007.964,53.436
21.472,985.028,65.636
-15.128,966.484,57.34
30.988,987.224,41.236
35.38,960.628,33.184
48.8,914.024,30.988
114.924,976.732,40.504
95.16,989.664,71.248
73.2,888.648,32.208
314.76,967.704,-71.248
514.108,1268.556,-221.308
292.312,1232.2,-182.024
215.94,1105.808,-104.92
117.12,900.36,52.704
486.536,635.864,179.828
978.928,476.288,125.416
1036.268,485.316,49.288
726.876,394.06,52.216
642.208,227.408,225.212
865.712,241.072,197.64
1008.208,253.76,137.372
926.712,152.256,234.484
923.296,-6.832,313.052
1079.212,-111.996,281.576
1118.74,-123.708,229.116
1155.584,-126.636,237.412
1062.132,-71.492,267.18
1024.8,-33.672,270.108
1053.592,14.64,245.708
1007.72,31.476,226.676
930.616,39.528,220.088
904.264,62.708,211.304
890.844,73.2,195.2
822.036,74.176,189.344
675.148,69.052,216.916
516.304,20.008,241.804
467.748,-22.936,220.088
447.496,-98.82,192.76
439.2,-132.98,164.7
414.068,-150.548,145.668
397.232,-176.412,139.324
405.772,-219.6,132.736
575.84,-291.58,90.768
823.012,-337.452,-43.432
860.588,-420.412,-122.732
948.916,-391.62,-200.812
1149.972,-276.452,-331.352
1294.42,-205.448,-415.776
1306.376,-234.24,-457.256
1172.176,-307.928,-410.896
1128.012,-407.724,-357.704
1150.216,-524.844,-337.208
1199.992,-562.42,-330.864
1146.8,-537.044,-238.144
1197.308,-563.64,-175.924
1274.656,-656.848,-137.616
1195.356,-813.008,-36.6
1118.984,-972.828,101.992
1223.416,-1038.464,177.876
1467.416,-1070.916,170.8
1616.744,-1076.04,169.58
1603.568,-1091.412,210.084
1501.088,-1100.44,274.988
1427.644,-1108.492,305.244
1450.58,-1113.128,304.024
1690.676,-1119.472,278.892
1644.316,-1115.324,259.86
1484.74,-1064.572,236.192
1407.636,-1007.72,255.712
1268.312,-984.54,293.044
1173.396,-875.716,309.148
1117.764,-767.136,277.672
1190.72,-655.384,201.544
1244.888,-613.416,143.228
1249.28,-615.856,143.472
1150.216,-633.18,158.844
1096.78,-562.908,111.508
1017.724,-436.76,56.12
839.848,-352.58,85.156
747.128,-256.2,57.584
648.064,-96.38,-25.376
390.644,30.012,-10.492
345.016,164.456,-11.712
283.284,323.3,-27.816
143.228,421.388,-28.06
-123.708,490.44,-2.928
-359.168,544.608,93.208
-386.984,586.576,158.112
-163.724,619.76,112.24
93.208,699.792,-17.568
248.636,729.316,-43.432
225.944,701.012,56.852
203.74,676.368,93.208
258.64,685.884,31.964
476.288,702.72,-35.136
661.484,783.484,-101.016
747.86,858.148,-110.288
667.34,866.932,-55.388
599.264,853.024,-30.012
657.58,832.04,-20.008
714.676,822.768,-10.98
694.912,796.172,-26.352
690.276,815.936,-34.892
634.888,807.152,-4.88
614.148,845.216,18.544
597.8,809.836,39.04
531.432,806.176,21.472
436.272,792.268,6.1
311.344,864.492,8.54
163.968,948.916,-32.452
72.956,1024.068,-42.944
-11.224,1012.356,-18.544
6.588,1003.328,-43.432
-68.564,997.472,-5.124
-68.076,1049.444,-6.1
-10.248,1055.056,36.356
-24.888,993.08,70.272
-136.884,968.68,93.452
-284.748,960.14,82.472
-465.552,1000.4,30.012
-596.092,995.52,-4.88
-561.2,993.324,-6.832
-512.888,1029.436,1.708
-509.716,999.912,16.836
-457.256,989.664,5.612
-442.86,967.948,11.468
-435.784,934.764,19.764
-349.408,965.02,34.404
-323.056,957.212,52.948
-322.568,908.9,76.616
-319.152,940.376,22.692
-335.012,935.496,21.472
-366.488,964.532,-23.424
-369.172,966.484,-16.348
-362.584,935.008,0.732
-362.34,914.512,13.176
-335.744,906.948,3.904
-325.984,879.376,17.812
-349.896,901.824,-25.132
-349.408,922.808,-20.984
-340.136,909.388,9.76
-324.52,917.928,10.736
-322.324,923.54,10.736
-314.76,916.22,17.08
-295.972,907.436,26.352
-283.528,931.348,15.372
-282.796,942.816,8.784
-289.14,995.032,-17.324
-295.972,985.272,6.588
-293.044,975.512,20.74
-267.912,973.804,19.52
-265.96,980.88,15.616
-278.404,955.016,25.62
-286.456,951.844,21.96
-262.3,973.072,18.3
-252.784,969.412,32.208
-250.588,957.212,44.408
-252.296,961.604,25.132
-279.624,948.916,14.396
-265.716,936.96,17.568
-262.3,942.328,16.104
-254.004,951.6,14.884
-238.388,957.944,31.72
-223.26,963.312,29.524
-228.14,965.02,36.112
-244.244,953.308,35.868
-241.56,947.208,47.824
-246.928,959.896,41.724
-271.328,942.328,51.728
-277.672,927.2,59.78
-264.984,940.864,49.776
-248.636,955.26,32.452
-241.56,969.9,30.744
-243.756,971.852,40.016
-215.696,977.708,45.628
-210.816,973.072,49.288
-227.652,961.848,55.632
-223.26,959.896,85.888
-208.132,949.648,117.608
-188.124,935.252,147.864
-193.736,922.076,170.556
-198.86,939.888,179.828
-192.272,965.264,193.004
-199.836,955.016,201.3
-192.76,966.972,195.688
-189.588,976.976,215.94
-185.196,980.148,247.416
-154.452,984.54,235.216
-128.1,998.448,248.148
-93.208,984.784,323.544
-40.504,920.856,371.124
-41.968,873.52,345.748
-30.256,874.984,271.816
-35.38,872.3,186.172
-44.408,920.368,116.632
-25.376,1027.728,42.944
-24.644,1068.964,30.012
-23.424,1089.216,-9.516
-37.82,1093.852,-23.424
-65.636,1094.828,-28.792
-70.516,1113.616,-68.32
-52.46,1138.992,-95.648
-68.076,1073.844,-55.876
-92.964,1035.536,-54.9
-98.82,1021.628,-71.736
-109.8,1011.868,-78.08
-96.38,989.42,-55.632
-66.856,984.54,-40.992
-105.896,972.828,-43.676
-151.036,954.528,-48.068
-161.04,936.96,-35.868
-164.7,912.072,-42.212
-178.364,900.604,-49.776
-189.588,910.364,-56.364
-203.496,897.676,-30.256
-204.228,916.464,-30.5
-184.22,936.472,-19.276
-161.284,929.884,6.832
-155.428,933.056,34.648
-172.264,938.424,43.92
-175.68,952.332,49.288
-164.944,965.02,53.436
-130.296,976.244,68.564
-95.404,988.688,98.576
-91.5,989.176,115.412
-81.252,986.98,114.436
-70.028,974.048,105.164
-90.036,973.56,85.4
-102.48,981.612,75.64
-84.18,988.444,80.764
-90.768,996.74,61.488
-100.284,983.564,53.68
-114.192,988.2,42.7
-123.22,980.88,41.48
-124.196,987.224,38.064
-133.224,984.052,42.944
-137.86,973.072,46.116
-142.984,981.368,37.576
-140.056,999.668,42.944
-119.804,1012.112,49.532
-119.072,1000.4,59.78
-138.104,997.96,50.02
-138.348,996.008,55.388
-142.984,983.32,59.292
-150.06,992.592,44.164
-132.98,1008.696,40.504
-127.856,994.544,53.68
-134.932,986.004,52.704
-132.492,995.032,39.528
-119.56,999.668,19.032
-108.824,1008.94,5.124
-96.38,1002.84,20.496
-112.24,986.004,43.432
-115.168,1003.328,32.696
-107.116,1009.672,17.08
-155.428,969.9,25.864
-191.296,957.944,33.428
-165.92,976.732,42.7
-138.104,978.684,50.508
-134.2,994.056,37.576
-142.984,984.296,50.02
-153.964,994.3,39.04
-166.408,993.324,40.992
-173.484,967.46,65.392
-169.824,962.58,61.732
-165.432,980.636,60.756
-172.508,944.28,78.568
-149.572,914.512,98.82
-105.652,915.732,82.228
-46.604,917.44,71.98
49.532,916.952,18.056
195.2,952.82,-34.648
294.508,945.012,-116.144
208.376,1396.656,-167.628
117.852,1612.84,-230.824
173.484,1190.476,-213.988
374.052,993.324,-203.984
399.184,652.212,42.212
585.844,311.588,103.944
774.7,11.468,230.336
978.196,59.78,77.104
946.964,187.88,98.332
977.952,301.828,91.256
1138.26,245.464,107.604
1106.784,128.832,120.292
1024.8,27.572,162.992
950.624,-61.976,227.652
922.32,-87.84,232.288
967.948,-32.696,230.58
1028.948,-3.172,216.672
1051.396,-6.1,182.268
1060.668,-1.464,145.912
1021.628,23.668,130.052
981.368,68.076,134.932
962.58,92.232,129.564
930.86,81.984,115.656
828.624,42.456,129.32
706.868,37.576,126.148
518.012,56.852,144.936
416.264,54.656,165.432
347.7,40.504,185.928
250.832,-12.2,220.332
25.376,-138.836,239.608
-56.364,-100.528,172.02
71.736,-162.992,116.388
243.756,-141.276,49.044
336.72,-182.512,-27.084
496.052,-253.76,-184.952
586.088,-339.16,-314.028
815.448,-393.572,-370.148
852.536,-537.776,-324.764
856.44,-826.672,-340.38
1030.656,-1148.752,-396.012
1188.036,-1321.016,-504.348
1478.884,-1227.076,-602.924
1715.32,-1179.984,-608.78
1764.608,-1321.016,-551.928
1702.144,-1418.86,-485.316
1654.32,-1414.224,-426.512
1716.052,-1357.372,-354.044
1809.748,-1327.36,-273.768
1867.82,-1392.996,-187.636
1657.248,-1455.704,-75.64
1261.48,-1445.7,54.9
1229.272,-1377.868,173.728
1467.416,-1350.296,204.716
1470.832,-1357.372,228.384
1282.952,-1332.972,277.184
1102.88,-1250.5,304.268
1087.508,-1163.148,313.784
1191.696,-1084.092,285.48
1071.16,-996.496,282.308
828.868,-903.044,287.188
691.74,-769.82,262.3
672.952,-601.948,211.792
783.484,-442.86,126.88
778.848,-333.06,66.612
621.468,-255.224,38.796
542.168,-157.624,-2.928
530.212,-83.936,-3.416
474.58,-29.768,19.764
396.988,36.844,8.052
414.8,99.552,-26.108
389.424,168.848,-49.776
323.056,243.756,-41.236
340.624,280.6,-14.64
321.104,276.94,1.22
207.156,406.504,-33.672
122.732,473.116,-6.1
102.48,452.376,113.216
271.572,492.148,73.444
303.78,610.976,-44.164
396.988,719.556,-73.2
605.608,696.376,-32.94
837.652,705.648,-73.2
992.836,640.988,-80.764
1065.548,583.892,-74.176
1112.64,586.332,-91.744
1086.044,574.62,-73.444
1040.66,598.776,-49.776
949.16,606.096,-10.492
906.948,627.324,9.76
787.876,620.736,40.016
582.428,638.792,60.756
447.74,728.584,30.744
471.408,781.288,33.916
546.316,867.664,13.908
491.904,874.252,-28.06
364.292,944.524,3.172
344.284,992.836,-21.96
276.696,985.76,5.856
216.672,1025.776,19.52
175.436,1087.508,11.712
120.536,1164.612,22.204
11.712,1116.544,40.992
-101.016,1028.948,63.928
-79.056,1017.236,76.86
-37.088,1033.584,50.508
-50.996,1042.124,33.672
-77.348,984.784,48.068
-55.876,955.992,72.224
-32.696,966.484,83.936
-45.628,998.204,78.324
-54.656,996.008,88.084
-81.984,1015.772,71.492
-109.556,980.148,70.76
-57.34,1006.256,72.224
-24.4,1026.264,60.512
-82.96,1033.828,14.64
-98.088,1061.156,6.832
-50.996,1082.872,23.668
-21.716,1046.76,40.992
-6.588,1021.628,35.624
-20.252,1015.528,15.128
-26.596,1006.744,13.908
-10.004,1001.62,26.84
-9.028,1006.012,36.112
-0.732,996.496,45.628
14.884,995.276,47.336
9.76,976.0,39.284
-9.272,965.752,36.356
-39.528,940.376,46.604
-53.924,925.736,48.068
-41.236,926.956,48.8
-38.552,949.404,30.256
-41.968,1019.676,0.732
-16.348,1015.528,13.664
-23.18,1028.948,-2.44
-8.54,1042.856,-7.564
-5.124,1039.928,6.832
-31.72,1016.504,21.472
-62.464,1015.284,22.204
-42.7,1030.412,29.768
-16.836,1034.072,47.58
10.492,1030.9,68.808
26.108,1022.604,76.616
38.796,1003.816,87.596
32.696,997.716,96.868
10.492,975.756,114.68
8.54,961.36,144.448
26.84,957.7,161.04
40.016,967.948,160.796
48.556,1004.792,162.748
31.964,996.008,180.804
3.904,996.496,214.232
28.548,1011.624,229.604
75.64,994.788,237.656
119.804,987.956,228.872
112.484,997.96,221.796
31.232,999.18,201.544
6.832,994.3,194.712
43.92,977.708,203.984
80.764,941.352,205.448
112.484,907.192,214.232
104.188,888.648,229.604
35.624,821.304,233.996
-6.344,730.292,241.804
14.64,739.076,218.624
31.232,819.596,167.14
13.42,859.368,126.636
-3.172,885.476,111.752
-32.208,909.144,71.248
-25.62,997.472,-7.808
-23.18,1086.776,-65.636
-57.584,1102.88,-112.24
-103.7,1087.752,-148.352
-121.268,1086.532,-173.24
-47.336,1129.964,-203.008
-12.2,1146.8,-218.868
-48.8,1093.364,-200.324
-78.568,1073.356,-189.1
-69.296,1052.372,-179.096
-40.016,1000.156,-148.84
-39.04,971.608,-103.7
-50.264,982.344,-74.176
-41.968,1016.26,-59.78
-48.556,1019.92,-38.064
-65.392,1026.02,-18.544
-63.684,1062.864,-5.612
-31.72,1065.792,0.0
14.396,1045.54,22.692
34.16,1039.44,47.336
39.528,1043.832,69.296
61.732,1051.884,72.956
54.656,1029.436,69.784
36.112,1035.292,48.068
-15.128,1012.112,47.58
-54.412,960.14,77.104
-35.38,950.136,91.012
-10.98,925.004,99.552
-5.856,930.616,96.624
-9.028,976.976,96.136
-43.676,957.944,111.752
-48.556,968.68,91.744
-47.092,996.252,74.176
-40.504,989.908,82.228
-14.152,985.028,87.352
17.08,1004.792,90.036
-1.464,1019.432,104.676
-99.796,1011.136,97.844
-113.46,1042.856,81.74
-50.264,1042.612,88.328
0.976,1023.092,92.232
4.636,1046.76,58.316
-24.156,1015.04,42.456
-80.52,990.396,7.564
-111.752,974.536,-18.056
-94.428,946.476,-19.032
-86.376,933.788,-17.812
-75.396,920.612,-16.104
-55.632,889.868,-6.588
-60.512,864.98,-0.244
-70.76,913.536,-50.752
-114.436,974.536,-73.932
-148.352,957.7,-58.072
-128.832,937.448,-37.088
-91.012,930.128,-37.088
-93.94,961.36,-52.216
-111.508,961.116,-40.016
-159.82,944.28,-38.552
-204.716,937.448,-19.276
-176.168,891.82,-39.284
48.8,937.692,-109.556
501.664,1014.552,-131.516
546.072,1024.8,-49.776
362.584,1242.936,-59.292
587.552,1545.984,-213.988
618.296,1295.884,-261.812
404.064,721.752,-81.984
315.736,103.7,293.532
547.536,-200.08,420.9
1070.428,-132.492,217.892
1115.812,61.976,189.344
813.984,50.752,266.448
905.972,1.464,274.744
1138.016,-23.668,213.744
1193.16,-180.804,169.58
1163.148,-257.176,210.084
1107.76,-274.988,203.252
1054.324,-209.596,205.448
1075.796,-209.352,208.864
1163.148,-166.164,158.112
1192.672,-74.42,125.172
1094.584,-41.236,126.636
886.94,-23.18,125.416
951.6,-11.956,133.224
948.672,-76.372,120.78
849.12,-93.208,111.264
762.744,-104.676,117.608
634.888,-71.248,106.628
543.632,10.492,141.764
504.348,-59.048,162.992
422.12,-83.692,156.16
323.3,-111.752,123.708
241.316,-127.856,101.504
66.368,-116.388,121.512
41.968,-165.432,94.916
255.712,-203.496,-29.768
446.52,-244.0,-170.312
575.84,-321.592,-259.372
760.06,-409.92,-328.424
884.012,-540.46,-429.196
1093.852,-639.036,-534.116
1214.144,-754.448,-591.7
1312.476,-862.784,-590.724
1298.568,-985.516,-547.048
1311.5,-1109.468,-501.908
1431.06,-1163.88,-491.172
1489.132,-1176.812,-449.692
1469.856,-1226.832,-353.068
1512.8,-1293.2,-267.424
1613.572,-1340.292,-209.108
1642.852,-1337.12,-172.752
1609.18,-1278.56,-90.524
1509.872,-1295.884,38.308
1471.564,-1293.688,125.904
1469.856,-1252.94,125.416
1410.32,-1216.828,117.852
1290.272,-1202.676,153.964
1262.212,-1239.764,221.308
1257.088,-1245.62,244.0
1095.316,-1182.912,214.964
939.644,-1083.848,197.64
829.356,-977.952,226.92
729.804,-921.588,291.824
759.328,-859.368,298.168
784.948,-756.644,253.272
619.028,-641.232,192.516
559.492,-507.276,190.564
557.54,-386.252,127.612
657.092,-193.248,4.148
634.156,-24.156,-6.1
489.22,46.116,50.752
390.156,160.064,27.328
397.232,284.504,-14.64
321.592,332.816,-7.808
286.944,406.016,11.468
334.768,486.292,9.272
287.676,508.74,33.428
183.732,534.36,58.804
151.524,573.888,81.252
205.204,631.472,73.932
258.396,655.872,88.572
271.084,655.384,114.192
256.932,692.228,70.76
307.928,821.548,-3.416
307.44,900.848,-31.964
262.788,895.236,-38.064
321.104,933.788,-44.408
443.836,976.976,-66.368
538.264,1032.364,-88.816
531.188,1024.068,-98.332
439.932,1048.468,-77.348
333.792,1028.216,-47.824
278.16,1011.624,-33.672
303.292,1054.08,-41.968
346.968,1023.58,-47.824
346.968,1001.132,-4.392
311.344,964.532,17.324
279.38,950.38,16.348
228.872,975.024,-21.716
212.768,1025.776,-63.684
250.832,1046.272,-22.204
248.636,1048.956,-7.808
224.968,1017.236,-4.636
212.524,1013.576,1.22
177.388,1023.58,-21.96
178.608,1006.256,-17.324
201.788,981.856,2.684
200.812,972.828,8.54
207.644,976.244,14.64
212.524,970.388,18.3
175.436,945.5,23.18
152.988,933.056,7.076
210.084,960.384,-7.808
223.992,994.788,-18.3
211.06,989.908,-2.928
222.528,993.568,5.368
198.128,981.856,7.32
181.78,963.8,1.708
201.056,977.22,-9.028
220.82,993.08,-15.128
225.212,1012.356,-19.032
204.716,1004.792,-7.564
193.98,995.52,3.172
206.668,980.636,9.272
224.48,979.66,1.464
247.416,978.928,2.928
246.196,997.96,12.932
233.508,1001.132,22.204
226.92,972.584,29.768
227.164,959.408,35.136
235.46,980.88,15.616
222.04,984.296,16.348
202.52,979.66,41.48
200.812,973.316,46.604
214.232,961.848,55.632
216.428,957.456,51.484
227.164,956.236,40.748
218.868,973.56,24.4
208.864,982.832,25.132
195.444,975.756,39.284
188.124,969.412,30.5
195.932,983.564,10.004
202.276,998.692,-2.196
203.984,993.08,7.564
204.716,975.024,30.256
194.956,966.24,30.012
185.196,956.48,23.18
192.272,968.436,-6.1
187.636,985.028,-11.712
185.196,965.752,20.252
193.248,947.452,38.796
197.64,938.424,44.896
193.736,944.28,43.676
191.54,953.308,43.676
178.12,974.536,39.528
181.78,997.472,34.648
193.004,997.228,53.436
187.392,993.812,51.24
185.196,994.056,39.772
215.452,1003.328,42.944
237.412,1013.332,45.384
228.14,1002.84,45.872
207.644,999.18,32.208
192.028,992.836,19.764
199.836,1002.596,0.732
226.432,1015.528,-4.148
236.68,1004.06,-8.54
237.412,989.664,-10.98
226.676,1001.864,-22.448
186.416,1015.528,-39.284
142.496,987.712,-11.956
119.072,944.524,15.86
117.852,929.396,29.768
139.812,927.444,57.34
154.696,904.996,86.376
201.3,910.852,104.188
223.504,930.128,128.588
217.648,954.528,151.036
231.556,980.148,172.508
266.204,1001.132,187.636
245.708,1012.112,204.228
222.772,1031.632,218.38
241.56,1043.588,244.0
282.796,1013.82,275.72
283.772,967.948,287.432
227.652,946.476,276.94
139.812,938.668,258.396
152.5,962.58,203.496
247.416,989.908,168.848
284.016,1029.924,131.516
239.852,1024.8,84.912
166.896,978.44,41.968
209.108,1004.304,0.976
346.236,1075.064,-43.432
370.148,1122.888,-122.488
272.06,1121.18,-205.204
171.288,1075.064,-201.3
99.064,1049.444,-168.604
87.352,1014.308,-142.008
110.288,974.048,-96.136
136.396,939.156,-40.26
149.816,964.776,-2.196
175.924,970.388,22.204
163.236,917.928,50.264
142.984,861.076,59.78
175.436,864.98,42.456
176.656,867.176,14.64
156.648,846.192,-23.18
110.288,829.112,-80.52
40.26,827.648,-125.172
15.372,898.652,-135.42
-1.952,940.62,-105.652
-11.224,981.124,-92.232
21.472,1027.972,-79.3
43.188,1037.0,-37.576
56.12,1039.684,-17.568
80.52,1034.56,0.976
105.408,1029.436,17.812
115.9,1010.648,32.696
122.976,986.736,50.508
126.88,983.076,64.172
132.492,985.272,61.732
143.716,982.832,54.656
150.06,1001.864,38.796
148.84,1018.456,39.772
141.764,1023.824,45.384
129.564,1009.672,44.408
132.004,1014.552,28.792
132.736,1022.36,21.96
109.556,1017.968,24.888
107.604,1013.332,33.672
123.952,998.936,32.696
162.748,1001.132,15.372
181.292,1016.748,4.148
137.128,1033.096,5.124
63.196,976.0,3.416
50.264,968.192,-10.736
79.3,975.756,2.684
80.032,940.864,32.94
55.632,920.856,36.112
44.164,959.408,-4.636
6.832,995.032,-48.312
52.704,1050.176,-32.452
116.144,1005.768,-0.244
151.524,998.936,3.172
159.332,990.884,6.1
126.392,942.084,11.712
121.756,930.86,-31.476
226.676,952.82,-68.564
376.98,902.556,-33.672
254.492,799.344,-62.952
241.072,900.36,-243.756
492.88,1096.536,-313.784
882.792,1367.376,-244.976
626.104,1290.272,315.004
423.096,881.084,377.956
439.932,659.288,382.348
617.808,433.1,-4.88
702.964,77.836,-115.168
724.68,-136.64,11.468
704.672,-324.764,149.816
772.504,-335.744,291.336
993.08,-330.132,311.344
1238.544,-258.152,138.592
1322.968,-206.424,62.952
1226.588,-217.16,68.808
1177.056,-228.872,25.376
1086.288,-235.704,45.872
976.244,-245.708,69.052
997.716,-230.58,47.824
980.148,-217.648,19.52
928.664,-162.748,36.6
852.292,-98.088,57.584
776.164,-65.636,50.996
686.86,-46.116,85.644
509.716,-57.828,92.72
441.64,-44.652,63.684
406.504,-99.308,91.744
362.828,-168.604,97.356
368.196,-208.864,23.912
505.568,-276.208,-68.564
684.42,-360.876,-223.016
732.732,-360.388,-243.512
573.4,-381.128,-74.908
544.364,-440.176,-12.932
717.604,-389.424,-46.36
834.48,-387.716,-67.588
951.6,-480.924,-121.024
1167.784,-642.696,-192.272
1287.832,-708.82,-278.404
1278.316,-739.808,-281.576
1198.04,-852.78,-158.356
1240.008,-945.012,-123.22
1246.352,-959.164,-124.928
1092.388,-987.468,-45.628
1075.064,-1060.668,15.372
1223.172,-1114.836,35.136
1419.592,-1146.068,-6.1
1502.552,-1123.62,6.1
1495.476,-1109.224,33.916
1489.62,-1140.212,74.176
1473.516,-1208.532,162.748
1471.076,-1254.16,267.912
1426.912,-1216.34,279.624
1389.336,-1186.816,274.012
1388.604,-1133.868,270.352
1268.556,-1063.596,275.476
1163.636,-988.2,289.628
1060.912,-859.612,244.244
927.444,-704.672,214.232
807.884,-612.44,242.048
780.068,-537.532,275.72
791.048,-399.672,206.912
764.208,-277.428,128.588
732.244,-249.856,121.268
700.036,-238.632,113.216
745.42,-183.488,100.04
740.54,-136.64,80.032
713.7,-76.372,48.556
744.932,-36.844,25.132
731.024,-43.676,35.624
724.436,-58.804,55.144
682.224,-23.424,34.404
714.188,42.212,1.22
678.32,75.152,-15.616
615.856,136.884,-25.376
595.604,243.024,-46.116
526.552,304.756,-27.572
455.06,330.864,-5.124
418.216,374.052,-3.904
458.476,402.844,-15.616
587.796,432.368,-63.44
638.792,480.192,-95.16
648.796,495.808,-80.52
733.952,488.976,-54.656
778.116,456.28,-12.444
850.584,422.12,19.764
914.512,393.084,5.856
846.924,387.716,11.468
749.324,455.792,4.88
721.996,553.636,21.716
775.432,607.316,33.916
765.916,646.112,13.176
702.232,709.308,14.152
653.676,885.964,-58.072
622.444,964.044,-44.408
572.668,1048.956,-5.856
485.804,1066.28,0.0
436.272,1011.38,40.504
402.112,1006.988,77.836
388.936,1012.6,61.732
342.576,1015.04,58.316
263.276,1031.388,46.36
156.16,1015.04,44.164
64.904,1012.6,26.84
23.668,1029.924,5.368
47.092,1056.764,-34.16
86.376,1087.508,-36.6
111.02,1129.476,-4.148
73.932,1119.228,-2.684
42.944,1076.772,-3.66
71.248,1072.136,-7.076
107.848,1069.208,10.492
100.772,1043.832,19.276
67.588,1019.92,26.352
65.148,1016.992,23.424
85.888,1012.844,28.304
123.952,998.204,47.092
150.304,972.584,53.436
144.448,976.732,38.796
117.608,997.96,14.396
96.868,994.788,9.516
86.132,1012.356,-7.808
80.276,1010.404,8.052
56.608,974.292,13.176
23.668,967.704,-16.104
27.572,987.224,-28.06
49.288,1008.208,-24.644
55.144,986.492,-12.444
46.604,974.048,-12.688
48.8,984.784,-12.2
25.62,990.396,0.732
15.616,999.424,21.472
12.2,1009.672,35.38
25.376,1001.864,66.368
71.248,968.68,115.412
110.776,971.852,126.148
118.096,958.432,137.616
112.728,967.46,134.444
85.156,963.556,128.1
108.824,957.456,131.272
149.572,981.856,142.984
172.996,1013.82,146.644
161.284,1033.828,147.132
130.54,1068.964,147.132
85.888,1073.6,162.748
71.004,1061.644,209.84
66.124,1069.94,220.332
65.392,1046.272,209.596
68.564,994.3,211.304
78.812,963.556,202.032
111.752,915.976,204.96
153.72,908.656,215.452
191.784,941.352,195.2
171.288,1013.576,152.5
144.936,992.836,153.72
152.256,944.768,151.768
200.568,960.14,124.44
246.196,992.348,82.228
233.508,1017.48,60.756
152.256,1013.576,52.704
79.3,1038.708,8.052
26.596,1044.808,-55.144
40.504,1040.904,-81.496
74.42,1064.572,-65.148
86.376,1094.828,-60.024
69.784,1070.428,-54.412
44.164,1021.14,-24.644
19.52,997.96,-4.88
22.204,963.312,-0.488
39.04,936.96,14.884
52.948,957.456,16.592
56.852,965.264,20.984
61.488,967.704,36.6
61.732,953.796,41.968
86.132,935.74,36.844
131.272,939.644,9.028
77.836,929.64,-11.224
-25.376,923.54,-45.872
-99.308,896.7,-45.872
-97.6,887.428,-74.664
-1.464,951.356,-58.316
20.984,976.244,-32.208
-4.636,956.48,-19.764
-39.772,952.088,-22.936
-63.196,951.6,-21.716
-51.728,955.26,-19.276
-19.52,986.736,-9.028
-12.2,991.128,15.372
-13.176,982.832,38.064
7.32,996.74,41.724
26.108,1009.184,39.04
27.816,1011.868,42.456
32.696,1006.012,53.192
43.92,1023.336,57.584
52.704,1049.2,52.948
78.08,1062.132,58.316
74.664,1014.796,67.588
58.804,994.788,60.512
52.704,999.424,42.944
58.072,996.74,47.092
44.896,989.664,44.164
34.404,981.368,44.652
40.992,981.124,47.336
55.388,991.128,44.652
48.556,1013.088,30.988
47.092,1026.996,25.62
35.136,1026.752,24.4
30.012,995.764,41.48
41.236,982.588,46.848
48.556,982.832,44.896
56.608,982.832,41.236
74.664,981.124,50.752
77.592,958.432,63.684
70.516,973.804,58.56
54.9,994.788,53.68
24.156,990.884,49.288
3.66,983.076,41.48
-7.32,994.544,32.452
7.564,1002.596,34.892
-0.244,989.176,42.944
0.976,978.928,39.284
-19.032,998.692,17.08
-29.524,999.18,23.424
-22.692,991.86,29.036
-8.784,999.668,14.64
30.012,1043.588,3.416
54.168,1045.052,19.764
35.868,1013.82,26.84
11.224,1003.328,20.984
1.464,985.76,22.692
-1.464,979.904,28.548
-40.016,957.944,23.668
-34.892,936.228,47.824
-46.848,906.216,81.74
-32.696,843.752,77.348
47.824,890.356,3.416
34.404,915.244,-183.976
-209.596,854.0,-103.456
-64.66,771.284,-145.18
513.62,755.668,-134.688
1221.464,772.504,7.808
1474.98,847.9,182.024
1114.836,629.764,27.328
712.968,271.572,-158.6
760.304,231.556,-229.116
897.188,190.808,-62.708
1049.932,67.588,137.372
1017.724,-47.824,203.984
934.032,-178.852,223.748
887.672,-379.664,255.468
1042.612,-423.096,218.38
1158.512,-390.4,196.664
1151.436,-334.036,219.112
1059.692,-287.188,222.284
1072.136,-263.276,211.304
1141.676,-223.26,173.24
1071.404,-192.028,148.596
1005.28,-188.856,167.384
941.352,-193.004,176.9
930.86,-162.992,152.988
963.068,-168.604,135.908
952.576,-153.476,110.532
885.72,-128.588,93.452
777.628,-127.124,117.852
721.508,-143.228,152.744
579.012,-147.62,180.56
354.288,-145.424,199.592
231.8,-235.948,232.776
283.284,-261.568,189.1
422.364,-253.76,89.792
456.524,-291.092,39.772
368.684,-335.012,-22.936
560.956,-414.068,-60.268
630.252,-487.756,-76.372
665.144,-577.792,-103.944
901.58,-598.776,-218.624
827.16,-497.272,-391.132
1080.432,-455.06,-443.592
1272.46,-474.824,-500.688
1195.112,-488.976,-467.26
1008.452,-468.724,-426.512
943.304,-570.96,-388.204
1227.564,-683.2,-441.396
1444.724,-762.988,-498.492
1396.412,-827.892,-457.5
1417.396,-850.096,-366.244
1435.94,-953.552,-295.728
1534.272,-1050.42,-257.42
1568.676,-1117.276,-202.032
1411.052,-1156.804,-107.604
1314.916,-1158.512,-11.956
1287.832,-1137.04,42.7
1359.324,-1117.032,55.632
1357.128,-1082.628,80.032
1226.344,-1056.032,112.972
1118.008,-1022.116,182.756
1088.484,-994.788,182.756
1103.612,-940.62,166.164
1013.82,-891.576,181.292
992.836,-834.724,194.956
1003.572,-821.548,180.072
976.244,-817.888,168.604
864.004,-813.252,181.78
879.62,-707.6,163.48
950.624,-617.808,122.732
932.324,-550.22,97.356
860.832,-470.676,61.488
824.476,-409.92,35.868
864.492,-330.864,-15.372
816.668,-241.804,-42.944
708.576,-173.728,-29.768
619.028,-72.956,-40.26
480.68,62.22,-80.52
350.384,188.856,-47.336
357.948,262.3,-61.488
360.876,427.488,-104.432
345.992,438.712,-59.78
342.332,376.492,66.368
213.012,378.932,103.7
145.668,425.78,91.012
277.672,581.696,-33.428
513.132,836.676,-117.12
507.276,863.028,-28.548
394.06,722.484,64.66
380.884,687.592,60.756
576.816,813.984,-21.228
692.472,850.34,-63.684
766.404,824.476,-56.852
752.252,706.868,-30.988
893.04,676.612,17.568
1038.22,748.836,-29.524
971.364,703.696,-28.548
875.472,647.576,-2.684
874.74,588.772,39.04
897.92,607.804,34.648
878.888,632.936,61.488
761.768,610.244,94.184
579.988,642.696,46.36
448.716,788.608,-5.612
379.664,934.52,-12.2
284.992,934.276,43.188
196.908,991.372,24.644
196.664,1031.632,12.444
137.616,995.032,13.176
89.792,1062.62,-55.632
39.772,1071.404,-102.968
15.372,1033.584,-77.836
68.808,1045.784,6.832
12.688,1016.016,-23.18
-0.244,1023.092,16.836
-83.204,1022.604,-0.244
-215.94,973.072,-43.676
-281.576,959.164,-27.084
-285.236,917.44,0.976
-252.54,916.464,6.832
-212.036,948.428,-12.932
-200.08,981.124,-13.664
-245.22,948.672,0.0
-272.548,951.356,4.636
-263.032,1015.528,-13.176
-241.56,1044.564,-17.08
-223.992,1043.1,-6.1
-225.7,1006.988,0.976
-254.736,982.1,-20.008
-260.836,978.684,-39.04
-222.528,1016.504,-40.748
-213.256,1018.456,-40.504
-203.984,990.396,-16.592
-203.74,961.604,-5.368
-233.264,945.988,-20.008
-266.448,944.768,-47.092
-246.684,946.476,-47.824
-203.496,929.884,-15.86
-192.516,907.192,8.54
-197.396,940.864,-17.08
-213.5,957.7,-35.136
-213.988,956.48,-25.376
-202.276,958.676,-19.032
-218.38,950.38,-33.428
-236.68,958.432,-57.828
-224.968,970.388,-44.408
-211.548,969.412,-28.06
-192.028,964.044,-1.464
-184.464,968.68,6.1
-169.092,965.508,14.64
-167.14,960.384,22.936
-182.756,956.48,10.98
-166.164,971.364,21.716
-142.496,975.268,44.896
-132.736,985.028,55.632
-129.808,972.828,61.244
-139.812,990.396,48.8
-142.74,1001.864,44.408
-163.968,996.984,48.556
-155.428,995.764,64.904
-137.616,1001.864,69.052
-137.128,992.104,74.42
-118.584,994.3,110.044
-134.932,1032.608,138.836
-158.6,1055.788,151.768
-129.076,1072.868,167.628
-77.104,1070.428,194.712
-58.804,1050.176,208.132
-54.656,1005.768,209.108
-61.488,990.884,196.664
-49.532,985.76,173.24
-51.972,998.448,132.98
-72.956,1041.148,118.828
-81.008,1038.708,111.02
-82.472,1025.288,110.044
-100.528,1028.216,99.796
-99.308,1037.244,119.316
-88.816,1046.76,145.668
-81.008,1031.144,152.5
-57.096,1000.644,132.736
-46.116,975.024,98.82
-72.956,959.164,72.712
-110.776,924.516,69.296
-110.288,877.912,78.08
-87.352,836.676,71.736
-51.728,850.828,54.412
-40.748,879.376,37.82
-71.736,873.032,41.724
-105.164,870.836,44.164
-115.168,890.112,23.912
-118.096,894.016,8.296
-128.1,874.984,5.856
-139.812,886.208,-9.76
-148.352,935.496,-39.04
-144.204,964.532,-62.952
-123.464,983.808,-71.492
-132.248,1000.156,-82.96
-152.256,1021.628,-93.94
-152.988,1009.916,-98.82
-145.668,1005.524,-102.236
-153.72,1021.628,-89.548
-163.236,1038.22,-60.756
-154.94,1039.196,-33.428
-131.76,1049.688,-12.444
-106.872,1056.764,8.54
-82.228,1067.5,20.008
-80.764,1062.864,16.592
-87.108,1040.172,17.324
-73.2,1017.724,49.776
-54.168,999.668,78.812
-48.312,1001.376,65.88
-55.632,1039.684,37.82
-59.048,1054.812,60.024
-66.856,997.228,84.668
-67.588,954.772,88.084
-68.808,939.888,81.496
-81.984,925.004,78.812
-121.512,909.144,65.636
-143.716,908.168,54.412
-130.296,936.96,62.22
-121.756,940.864,78.812
-123.708,942.816,72.468
-107.604,963.8,58.316
-90.768,978.684,47.092
-82.96,974.292,42.456
-69.052,980.636,69.296
-55.876,946.476,78.08
-69.784,943.548,80.764
-90.768,958.432,82.228
-91.256,981.612,71.736
-92.964,968.68,79.056
-103.212,959.408,89.548
-98.332,990.884,66.612
-76.128,1025.044,53.924
-58.316,1049.932,50.752
-63.684,1043.344,51.972
-78.08,1042.368,53.436
-85.4,1041.636,53.924
-69.052,1032.852,54.9
-50.752,1021.14,65.148
-45.628,1011.868,70.028
-42.944,1011.868,69.784
-23.912,1000.644,71.004
-26.352,1005.524,87.352
-71.492,981.856,75.396
-98.576,965.264,64.904
-109.068,935.984,63.44
-117.364,945.744,48.068
-92.232,990.396,48.556
-74.908,1000.156,60.512
-75.884,1001.376,54.9
-72.712,996.008,52.704
-94.916,977.464,49.532
-109.556,944.036,60.024
-172.752,894.504,43.92
-226.676,881.084,12.2
-199.592,961.848,-29.768
-150.792,964.532,-38.308
-120.292,958.432,-28.304
-96.868,978.684,-21.96
-114.436,958.676,-13.908
-143.228,924.516,-24.644
-145.668,919.636,-6.588
-173.728,814.472,-16.592
8.052,855.952,-119.56
227.896,1007.232,-217.404
230.58,1150.704,-281.088
315.736,1295.64,-484.828
528.26,1501.088,-370.636
732.732,1246.108,-367.464
711.748,853.512,-224.236
600.24,424.56,-88.816
517.524,124.44,-5.124
579.012,23.912,27.328
767.624,61.732,107.604
1033.828,55.388,141.52
1081.652,7.32,108.824
1005.28,-33.428,62.22
974.292,-123.708,49.044
1069.208,-219.844,65.88
1186.572,-294.996,47.824
1157.78,-234.972,46.116
1051.64,-154.208,56.608
1011.136,-119.316,82.96
970.144,-122.0,96.624
1015.284,-147.376,114.924
1003.816,-170.8,99.308
955.992,-146.644,70.028
929.64,-137.128,69.296
932.568,-125.172,74.664
1008.208,-124.928,82.472
902.556,-113.948,88.572
769.576,-73.444,100.04
729.072,-102.48,142.252
643.184,-179.096,193.736
567.3,-227.408,211.548
453.84,-251.564,208.62
280.6,-287.92,209.84
274.5,-354.288,211.304
336.72,-435.784,168.116
444.568,-464.088,52.948
624.64,-462.868,-79.788
660.264,-465.064,-173.24
848.876,-466.04,-301.096
1133.38,-454.328,-439.444
1091.168,-417.484,-472.14
905.24,-448.96,-415.532
930.128,-627.08,-419.192
1136.064,-795.196,-514.84
1265.14,-871.324,-585.356
1181.448,-867.176,-506.544
1137.772,-840.58,-426.024
1202.188,-928.176,-408.944
1247.816,-1042.856,-396.012
1164.612,-1144.848,-264.496
1164.612,-1144.848,-264.496
1159.732,-1146.312,-199.348
1227.808,-1143.872,-177.876
1283.684,-1158.756,-148.352
1368.596,-1187.548,-96.38
1315.404,-1202.188,-36.356
1236.592,-1208.532,51.728
1192.672,-1197.552,124.684
1223.66,-1168.272,161.772
1234.64,-1155.34,170.312
1211.948,-1130.208,172.996
1118.496,-1154.608,209.596
1095.804,-1133.38,202.764
1054.324,-1037.0,176.9
958.92,-903.288,168.36
882.548,-772.016,161.528
818.132,-660.996,153.964
784.216,-614.88,147.62
728.34,-524.844,112.24
718.58,-407.48,30.744
682.956,-325.008,12.2
551.684,-263.764,66.368
431.636,-176.9,73.444
404.552,-39.284,28.304
456.524,82.228,-46.36
495.808,181.292,-86.132
551.684,260.348,-93.696
459.696,279.38,-49.776
371.124,322.812,-28.548
403.82,332.572,-20.984
536.8,358.436,-29.28
612.684,371.612,-41.724
734.196,375.272,-91.744
810.812,368.196,-96.38
830.088,342.332,-73.688
915.0,300.364,-85.156
1040.904,260.592,-116.388
1063.84,249.368,-122.732
1039.44,219.6,-102.236
1065.06,201.788,-98.82
1123.864,204.472,-100.04
1129.232,189.588,-85.888
1133.136,188.612,-75.884
1103.368,157.868,-67.832
1081.164,145.912,-39.284
1019.92,161.772,-20.008
984.54,149.572,6.344
959.652,156.892,10.736
953.796,164.456,-3.66
982.832,154.696,-19.764
1009.184,173.484,-35.38
995.032,181.78,-52.216
980.148,198.86,-45.384
932.08,222.04,-10.004
806.664,233.264,48.556
783.484,229.36,102.48
850.828,313.296,77.104
814.228,348.676,70.76
734.196,453.108,32.452
650.748,622.932,23.424
596.824,642.94,30.744
553.148,678.808,54.656
579.012,762.744,-4.392
617.564,854.488,6.344
561.688,979.904,32.696
478.24,1053.348,-3.904
393.572,1162.66,-34.892
300.364,1171.688,-50.996
220.088,1151.68,-1.464
176.9,1155.828,10.98
129.564,1173.396,-12.2
51.728,1193.648,-46.36
-27.084,1132.404,-65.636
-107.116,1077.748,-83.936
-84.18,1058.228,-104.432
-40.748,1059.204,-102.48
-35.38,1016.26,-85.156
-57.584,988.688,-73.688
-96.624,960.14,-57.34
-93.696,928.908,-47.58
-61.0,944.524,-46.848
-46.116,966.24,-45.14
-56.852,967.948,-42.456
-45.872,978.44,-41.236
-14.64,1018.944,-40.748
-7.808,1023.824,-44.408
-34.648,1048.956,-59.292
-63.44,1029.924,-65.636
-73.932,997.228,-61.244
-67.1,975.756,-66.856
-56.608,991.128,-65.636
-63.196,975.268,-64.904
-70.516,945.5,-49.288
-45.628,951.6,-34.648
-13.908,950.136,-19.764
7.076,960.628,-14.884
-9.76,985.272,-25.376
-34.892,987.224,-45.384
-67.344,978.928,-77.104
-65.392,1006.744,-82.96
-46.36,1030.656,-83.448
-38.796,1030.168,-70.272
-44.164,1007.72,-53.192
-62.708,979.172,-50.752
-79.3,969.656,-59.048
-81.74,969.656,-70.76
-71.248,967.948,-71.004
-58.072,964.532,-65.88
-31.964,983.808,-67.588
-30.5,1006.988,-70.76
-40.504,1018.212,-74.176
-42.7,985.76,-60.268
-47.092,984.784,-71.492
-23.912,1003.572,-84.912
-27.572,1006.012,-86.62
-52.704,1001.376,-94.672
-66.368,1005.036,-87.84
-64.66,1023.092,-100.528
-31.964,1034.072,-93.696
-16.836,1031.144,-71.492
-29.768,1014.064,-66.856
-45.384,987.468,-62.22
-65.636,971.852,-47.58
-73.2,979.66,-35.136
-41.968,970.876,-0.488
-11.956,953.552,29.036
5.368,973.072,45.384
7.564,991.86,54.412
0.732,998.448,60.268
-0.244,994.788,76.128
14.396,993.568,79.3
3.904,1000.4,74.664
-24.888,995.276,60.512
-57.828,986.736,46.116
-62.952,972.34,50.02
-39.284,972.584,52.948
-22.204,1007.72,46.116
-17.08,1033.096,35.868
-16.592,1035.048,19.764
-10.248,1037.0,26.84
-0.244,1037.488,37.576
13.908,1042.856,44.408
17.568,1053.104,39.528
23.18,1030.412,38.064
7.32,1000.644,20.496
4.392,988.688,5.612
-4.148,1000.888,-12.2
-13.664,998.692,-35.868
-8.296,1006.012,-34.648
-13.908,1003.328,-34.404
-0.488,995.52,-55.632
1.952,978.928,-94.428
-14.152,969.168,-112.24
-69.54,995.276,-106.872
-87.108,991.86,-92.476
-42.456,964.532,-79.788
-25.376,968.924,-81.496
-21.96,1005.768,-91.744
-30.5,1014.308,-83.692
-38.796,993.568,-64.66
-40.504,999.424,-58.804
-19.52,1011.868,-56.852
5.124,993.812,-66.368
16.836,962.092,-119.804
-8.052,995.276,-190.32
-50.02,1042.856,-201.3
-77.592,1045.052,-161.04
-80.52,985.272,-118.34
-77.836,940.376,-105.896
-90.036,897.676,-116.632
-97.356,879.864,-121.756
-115.412,905.24,-122.244
-132.736,913.78,-100.528
-126.636,903.776,-87.108
-112.484,914.756,-79.3
-93.208,936.96,-84.668
-55.144,949.16,-85.4
-36.356,956.236,-71.98
-52.46,971.12,-54.656
-76.372,982.1,-54.656
-77.104,973.316,-51.972
-75.64,965.264,-65.392
-57.828,992.592,-48.068
-28.304,1025.532,-13.42
20.74,1019.92,15.616
70.272,987.712,38.796
114.192,943.548,53.924
189.344,1031.632,26.84
323.544,1159.0,23.912
419.924,1141.188,15.86
534.848,1101.416,23.912
605.364,1137.284,40.26
706.136,1051.396,-84.668
682.712,1015.04,-188.856
679.54,1007.964,-240.828
788.608,983.32,-294.264
705.16,896.456,-162.26
640.744,592.676,-57.34
628.056,329.156,69.296
623.908,99.796,172.02
683.444,-11.468,198.86
815.936,-40.992,129.564
884.5,-13.42,63.928
869.86,19.032,38.796
861.32,31.232,55.388
965.264,33.916,22.936
1071.404,15.616,-7.808
1081.896,7.564,-46.36
970.388,-3.66,-55.632
880.352,18.788,-64.416
922.076,17.812,-25.864
889.624,-15.616,-15.128
765.672,-36.844,0.0
727.852,-60.024,-5.856
742.248,-91.256,-45.872
631.228,-86.376,-41.48
510.204,-112.728,-10.004
553.148,-181.536,-53.924
776.896,-212.524,-178.12
1028.216,-183.0,-295.24
1221.22,-159.088,-364.292
1319.064,-164.944,-370.392
1360.544,-232.776,-317.688
1501.82,-300.852,-300.12
1604.056,-375.028,-319.884
1592.344,-451.156,-310.612
1557.452,-517.036,-217.648
1550.864,-571.204,-130.052
1576.24,-601.948,-71.736
1491.572,-625.86,-13.664
1340.78,-649.284,68.808
1264.896,-661.484,124.928
1272.948,-644.892,140.788
1285.392,-576.328,109.312
1212.924,-491.904,88.084
1061.888,-421.876,82.716
968.924,-338.672,84.668
981.856,-254.248,44.164
1018.456,-147.864,-1.464
931.348,-53.68,-17.568
774.7,-20.496,4.88
740.052,-8.54,28.792
723.216,50.508,4.88
624.64,138.836,-26.352
579.256,244.488,-41.48
549.732,296.948,-12.444
556.564,303.536,52.46
526.552,297.192,39.284
541.68,343.308,-27.816
645.624,384.3,-67.344
700.768,370.88,-62.22
803.004,358.436,-77.592
920.856,334.036,-94.916
925.736,331.84,-105.164
951.6,355.996,-138.104
994.056,333.06,-146.4
1082.628,306.952,-153.964
1142.408,286.944,-153.232
1156.56,299.876,-154.452
1119.716,333.548,-143.472
1046.272,342.332,-96.868
962.58,304.024,-35.38
911.828,283.04,-4.636
921.344,305.732,-20.496
917.196,357.704,-53.192
920.856,451.156,-75.152
883.524,488.976,-43.432
831.064,488.732,26.108
792.268,507.764,36.356
661.484,586.82,37.088
553.88,668.316,2.44
383.324,828.136,-16.348
286.944,1046.272,-106.14
351.848,1080.432,-69.052
344.528,1100.44,-55.876
214.72,1056.032,-18.544
127.612,1042.124,-32.94
100.04,1147.288,-102.48
197.884,1252.208,-61.976
160.308,1149.972,-26.84
-22.448,1046.028,-2.928
-142.496,1024.556,-3.904
-180.804,1072.38,-32.452
-157.868,1056.764,-29.28
-95.892,1023.824,-21.228
-54.412,981.124,1.22
-103.212,964.776,-24.156
-161.528,950.624,-34.892
-180.072,937.936,-24.888
-115.412,943.792,10.492
-39.772,975.756,47.824
-24.644,1006.988,38.796
-32.696,986.736,31.72
-31.476,961.36,44.408
-24.644,986.248,30.744
-24.644,1025.288,18.056
-58.56,1028.46,21.228
-85.888,1013.82,24.156
-93.696,1012.112,22.448
-56.608,970.388,39.528
-36.112,993.812,22.692
-56.608,968.436,30.5
-71.004,951.6,29.28
-96.136,976.976,9.028
-87.84,961.848,23.424
-86.864,980.88,11.956
-68.564,982.344,32.452
-66.856,998.692,39.528
-77.348,1001.864,35.624
-88.328,1011.868,34.16
-78.812,984.54,45.384
-71.736,975.756,39.528
-56.12,970.388,50.752
-58.804,974.048,41.724
-65.636,957.944,44.896
-56.608,980.392,50.752
-38.064,987.712,67.832
-39.528,980.636,75.396
-51.972,987.956,74.42
-52.948,1018.456,74.42
-42.944,1014.552,90.524
-41.236,1001.864,115.9
-48.8,999.912,144.692
-60.512,1004.792,187.148
-95.892,1024.312,228.384
-80.764,1017.236,255.468
-29.036,998.936,245.708
31.232,979.904,260.348
17.812,986.736,245.22
-16.592,975.512,220.332
-15.128,981.856,185.44
26.352,970.144,174.46
45.384,965.02,176.9
43.188,965.508,156.892
31.232,985.516,117.364
35.136,981.368,110.776
24.888,984.052,112.484
13.908,967.948,104.432
25.62,936.716,109.556
36.356,922.076,86.62
32.696,967.46,62.952
30.5,994.056,55.388
41.968,961.116,49.288
36.6,956.236,30.012
-9.516,996.008,7.32
-40.26,976.488,-8.54
-17.568,964.532,-13.664
3.66,994.056,-35.868
-14.152,1033.584,-65.392
-23.424,1047.736,-97.112
-49.776,1038.464,-115.168
-70.76,1011.624,-129.564
-80.764,1015.528,-151.28
-90.768,995.764,-148.108
-101.748,972.096,-147.376
-101.016,967.216,-138.348
-91.988,966.728,-111.996
-96.136,932.324,-73.2
-122.244,933.3,-57.096
-122.976,981.124,-49.776
-111.264,995.276,-29.28
-83.692,984.296,6.588
-70.028,1005.28,21.716
-59.048,1018.456,30.5
-36.844,998.936,42.944
-12.932,988.932,40.748
-1.22,1002.352,33.916
-0.488,1013.82,35.136
-3.904,989.42,43.432
0.0,963.8,51.972
9.76,965.752,57.096
12.2,981.368,40.748
14.64,965.996,46.116
5.124,986.736,35.868
-11.224,994.3,42.944
-40.016,988.688,34.404
-26.352,978.196,45.872
-4.148,997.228,40.504
0.244,997.716,46.116
10.492,995.276,55.388
15.86,999.668,53.192
-0.976,1005.768,45.872
-3.172,1006.744,39.772
-1.464,990.884,39.528
8.052,1000.156,40.748
18.056,1009.672,35.624
17.568,1004.06,35.624
26.84,995.276,45.872
32.452,1001.62,43.188
12.2,1016.504,35.38
-3.904,1002.352,45.14
-4.636,983.564,45.872
5.368,971.364,54.168
8.54,984.296,49.532
20.74,987.956,50.752
57.34,984.54,37.82
113.216,1018.7,20.984
156.648,1043.344,49.044
164.212,979.66,72.224
234.484,985.516,29.768
372.832,1061.888,-13.176
531.432,1086.044,-8.052
547.048,939.644,-5.856
509.716,878.644,-45.384
626.836,1017.48,-101.504
749.812,937.448,-82.716
941.108,768.844,-69.296
960.384,646.112,-54.412
707.6,431.636,32.94
625.616,247.904,99.064
775.432,22.936,149.328
826.916,-161.772,172.996
925.248,-146.644,106.872
1024.312,-89.548,66.368
960.628,-70.516,113.948
973.316,-75.152,139.324
1039.928,-86.62,112.972
1086.288,-92.964,61.244
1116.056,-98.576,20.252
1120.448,-77.104,27.328
1070.916,-62.22,54.412
1003.084,-45.628,64.66
1004.792,-33.428,81.984
971.364,-68.564,81.984
957.212,-93.94,79.056
960.384,-97.356,60.024
892.796,-83.936,40.26
908.656,-52.948,38.796
888.892,-93.696,47.824
803.736,-111.508,58.804
735.172,-141.52,49.532
689.056,-174.704,30.744
708.82,-205.692,-13.664
713.7,-190.808,-90.28
784.948,-120.78,-160.796
877.18,-88.816,-192.272
870.592,-141.276,-184.464
882.548,-180.316,-199.348
934.764,-148.108,-186.66
1033.828,-151.768,-168.604
1153.632,-203.984,-164.7
1224.88,-273.768,-192.028
1248.792,-352.58,-171.532
1276.12,-377.956,-139.08
1326.872,-443.104,-126.636
1407.148,-561.2,-97.844
1468.88,-657.824,-86.62
1435.94,-676.612,-85.644
1372.988,-708.332,-54.168
1329.312,-739.564,11.468
1298.568,-765.428,67.1
1294.42,-764.208,88.328
1275.388,-726.388,85.4
1236.104,-688.324,79.056
1248.548,-659.044,96.136
1252.208,-642.94,86.132
1231.956,-593.896,63.44
1138.504,-515.572,41.968
1071.892,-470.188,56.608
990.64,-430.172,78.812
958.188,-361.364,99.064
897.676,-313.54,82.716
906.216,-217.16,20.74
929.64,-80.032,-20.74
823.5,-36.844,21.228
681.248,9.76,73.2
633.668,-23.18,126.636
607.804,11.468,157.38
496.54,74.664,141.276
404.552,143.228,76.128
593.164,336.232,53.924
689.056,356.972,88.084
630.008,244.732,131.272
518.012,227.652,174.704
481.9,322.08,111.996
593.408,486.78,30.988
754.692,620.004,26.108
781.532,596.336,97.356
794.952,503.372,123.708
827.892,519.232,84.424
764.696,566.812,23.424
629.032,640.988,29.768
518.256,642.452,63.44
542.656,755.18,124.684
655.628,862.052,144.448
628.056,949.892,76.86
461.648,939.888,40.992
356.972,1026.02,-0.244
287.92,1150.46,-53.436
163.968,1248.792,-72.468
110.532,1247.572,-33.428
130.54,1223.66,17.568
136.884,1161.44,92.476
73.932,1129.476,78.812
-74.908,1187.548,-12.2
-238.144,1100.44,-3.172
-299.144,1037.0,-20.008
-221.552,1102.636,-27.572
-211.304,1056.032,-15.372
-233.752,1028.216,-8.052
-247.66,987.712,-1.708
-222.284,933.788,28.792
-176.656,942.084,48.556
-177.388,965.264,39.528
-185.928,962.824,39.284
-196.42,967.216,34.16
-177.876,954.04,36.844
-159.332,985.76,32.696
-173.484,972.828,33.428
-207.888,932.08,18.544
-234.24,942.816,-11.468
-191.784,942.572,-14.396
-167.628,952.576,-0.488
-129.076,954.284,19.764
-130.296,952.576,27.084
-162.748,936.96,30.5
-204.228,990.396,-2.196
-212.768,984.54,-2.684
-191.296,952.576,23.912
-149.816,980.392,25.132
-144.936,993.324,21.96
-143.228,1014.796,30.012
-144.936,1004.304,56.12
-133.224,990.884,63.44
-121.756,991.86,53.924
-120.048,1000.888,34.892
-133.956,986.98,36.112
-148.596,981.612,32.696
-128.588,992.592,39.284
-116.876,991.128,40.26
-133.468,970.388,27.084
-140.056,985.028,7.32
-144.448,973.804,8.784
-155.916,951.112,17.08
-148.352,941.596,16.836
-140.056,958.432,5.856
-172.752,964.532,-14.152
-162.016,951.356,0.976
-138.104,963.068,13.176
-129.808,963.8,17.08
-128.588,968.192,22.692
-134.688,968.436,27.328
-167.14,961.116,27.572
-178.608,961.116,46.36
-153.232,988.688,71.004
-142.252,996.74,91.256
-127.856,1007.964,105.164
-114.68,1035.536,123.464
-111.752,1048.956,148.596
-121.268,1046.272,150.792
-119.56,1025.288,152.744
-101.992,1014.552,161.04
-66.856,1058.472,161.04
-51.728,1082.384,167.14
-55.144,1025.288,202.52
-78.08,939.156,243.024
-72.468,869.372,240.096
12.688,889.38,221.796
65.392,943.06,218.136
10.736,958.92,238.876
-56.852,924.028,236.68
-68.32,863.76,219.112
-22.936,933.788,175.68
-11.468,1053.348,155.916
-36.844,1036.512,147.376
-68.076,992.348,107.116
-64.416,990.396,16.104
-41.724,1022.848,-60.512
-44.896,1050.42,-95.16
-89.304,1067.744,-110.288
-91.988,1030.9,-104.92
-117.608,1005.768,-130.784
-159.088,998.692,-174.46
-176.9,972.828,-179.584
-187.636,933.3,-163.968
-233.752,937.692,-172.752
-244.244,930.86,-161.528
-222.772,931.348,-141.52
-178.608,956.48,-118.34
-183.488,972.34,-111.508
-200.812,975.024,-108.824
-187.88,979.904,-91.012
-177.876,980.148,-70.516
-170.556,978.44,-52.216
-145.424,964.044,-23.18
-122.0,957.212,-3.904
-133.224,967.216,13.664
-124.44,961.116,45.14
-72.712,964.532,71.248
-8.784,996.008,81.008
100.04,984.296,104.676
356.728,896.7,171.532
483.12,1000.888,57.096
415.532,1286.124,-39.284
428.708,1345.904,-24.4
426.756,1351.516,-130.54
791.048,1238.544,-302.316
771.04,1144.604,-215.208
417.24,655.384,20.252
498.492,-31.476,217.404
756.156,-263.276,198.86
501.664,-220.576,147.376
691.496,-104.676,176.9
1014.308,-202.032,259.616
942.084,-341.6,255.224
973.072,-444.812,103.7
909.876,-509.228,19.276
897.676,-444.568,51.728
921.344,-422.12,117.12
919.636,-378.2,140.544
865.468,-450.668,128.1
827.16,-507.52,80.276
739.32,-514.84,45.384
733.952,-445.544,53.924
686.128,-388.204,67.588
633.18,-276.452,81.008
600.728,-252.784,79.788
465.064,-292.312,67.832
366.0,-295.972,30.988
366.0,-374.54,6.1
406.748,-397.964,-16.836
384.056,-344.528,-39.284
317.2,-322.568,-67.832
421.144,-296.704,-122.0
510.204,-296.704,-182.512
433.588,-315.736,-205.204
417.972,-472.872,-221.796
596.58,-606.828,-333.548
695.644,-654.896,-477.508
788.852,-665.876,-582.184
862.784,-864.248,-558.028
838.872,-1099.952,-556.32
881.816,-1196.576,-624.884
879.62,-1215.364,-634.4
938.668,-1236.592,-607.804
1023.824,-1326.384,-582.672
1000.156,-1498.892,-561.2
903.532,-1572.824,-559.004
1019.676,-1663.836,-514.84
1198.284,-1725.324,-447.008
1312.476,-1728.74,-387.228
1212.924,-1812.432,-274.988
1100.684,-1779.736,-164.456
1280.512,-1771.196,-67.588
1459.364,-1684.332,-57.584
1429.84,-1565.992,-168.604
1262.456,-1494.5,-167.384
1095.316,-1390.556,-84.912
1164.612,-1383.48,26.596
1111.908,-1283.684,3.66
952.088,-1135.088,-108.824
824.72,-1001.62,-107.116
752.496,-920.124,-61.488
848.144,-892.064,19.764
796.904,-797.88,-30.5
664.656,-671.0,-125.172
610.488,-493.856,-136.152
563.152,-354.288,-108.336
581.452,-273.036,-57.096
553.392,-255.712,-37.088
396.012,-162.504,-116.632
315.492,-1.708,-162.992
462.624,159.088,-168.848
544.364,247.66,-134.444
425.048,364.292,-137.86
236.436,486.78,-124.928
61.976,533.384,-72.956
70.028,564.128,-39.284
227.896,615.368,-55.632
376.004,663.68,-99.796
494.832,658.8,-103.7
479.46,585.844,-71.248
430.904,584.868,-31.232
465.064,581.208,-7.32
582.428,543.144,2.684
716.628,536.312,-31.964
733.708,593.164,-75.64
714.676,643.428,-88.572
697.596,649.284,-69.052
678.564,659.532,-25.864
666.608,620.492,27.816
664.412,638.06,4.148
565.592,725.168,-23.18
432.368,807.64,-20.984
424.56,954.04,-31.964
382.348,919.392,-25.62
299.632,999.912,-46.116
212.28,1161.684,-58.072
150.548,1163.392,-76.128
247.172,1157.78,-76.86
260.592,1136.796,-29.036
139.568,1025.532,43.92
-33.916,945.256,50.02
-186.172,948.672,21.472
-242.536,1046.76,-18.3
-188.612,1170.468,-54.412
-254.492,1146.068,-18.3
-403.332,945.256,31.72
-333.304,875.96,37.576
-127.368,972.584,20.496
-29.036,1067.5,43.676
-182.756,998.448,51.972
-356.972,946.964,44.896
-497.76,890.356,13.664
-437.98,879.62,10.492
-243.512,1014.796,15.372
-228.384,1038.22,26.352
-288.652,983.32,8.54
-326.228,1017.236,-0.732
-383.568,1023.336,7.564
-315.736,1036.512,30.988
-232.288,1082.384,68.564
-195.444,1024.8,98.332
-169.58,955.26,98.576
-127.368,980.88,65.392
-114.68,1012.844,57.828
-122.244,1011.868,90.28
-112.728,1044.32,117.852
-129.808,999.18,151.524
-93.452,1005.28,187.88
-84.18,1006.256,234.484
-94.916,910.608,282.064
-0.976,804.224,325.252
37.332,758.352,352.336
15.86,724.924,322.08
4.636,738.832,263.764
16.592,769.576,176.9
100.284,866.932,67.832
145.424,1013.088,1.22
80.276,1096.536,-35.624
14.396,1088.728,-50.264
-41.236,1024.312,-76.372
-38.552,1015.284,-134.932
10.248,1091.656,-198.128
0.732,1095.56,-212.28
-55.388,1026.02,-197.396
-93.94,1012.112,-195.444
-84.668,1003.816,-203.252
-45.628,1016.504,-215.94
-56.364,1028.948,-232.288
-120.048,1055.788,-244.732
-135.42,1108.736,-243.512
-142.74,1064.816,-197.396
-134.688,1019.676,-160.064
-130.54,1018.944,-162.992
-118.096,1015.284,-180.316
-109.556,1026.264,-165.92
-128.1,1030.9,-151.28
-110.288,1058.228,-135.664
-86.132,1054.324,-114.436
-67.832,1061.156,-106.14
-94.916,1037.976,-98.088
-120.292,985.272,-69.54
-87.352,986.248,-52.704
-9.272,1000.644,-38.308
54.9,1012.112,-1.22
30.988,987.224,10.492
-15.128,1009.184,-9.516
-134.932,1044.564,12.2
-124.684,989.664,-17.08
-86.132,993.08,3.66
-54.168,982.1,7.564
-41.48,969.168,17.812
-25.62,937.448,26.84
1.22,905.728,38.552
1.22,901.824,24.888
-3.172,939.644,9.516
-32.452,960.872,2.44
-81.008,948.184,9.272
-70.028,943.06,13.42
18.3,931.348,23.424
115.656,915.0,54.412
211.06,943.548,50.508
102.48,917.44,14.884
12.688,994.544,40.748
282.064,1119.472,-81.496
624.396,1319.552,-140.056
756.156,1417.64,-160.064
551.684,1308.084,-112.728
400.16,1077.016,-82.228
451.888,782.508,-102.968
572.18,442.128,-65.636
712.236,183.244,84.424
640.744,-140.544,71.98
703.696,-382.348,150.792
642.452,-484.828,203.984
528.748,-395.28,251.32
699.792,-324.52,234.728
847.656,-344.284,216.428
875.228,-422.608,189.832
875.716,-459.696,110.288
880.352,-502.396,71.492
889.136,-486.292,37.332
923.296,-420.168,53.924
820.816,-379.42,94.672
687.348,-347.212,113.704
552.904,-363.804,106.14
511.18,-374.052,69.296
496.784,-375.516,43.676
432.124,-388.692,18.788
488.0,-385.52,-1.952
458.476,-404.552,-61.976
538.508,-401.136,-130.052
624.64,-429.684,-203.984
754.448,-454.572,-295.484
754.936,-519.964,-279.136
616.588,-579.744,-275.964
646.844,-654.408,-291.336
756.644,-693.448,-398.452
922.32,-685.64,-481.168
937.936,-762.744,-459.696
954.04,-957.7,-418.704
1073.844,-1097.756,-470.676
1220.488,-1172.42,-524.6
1243.18,-1232.444,-511.668
1202.92,-1268.8,-405.04
1188.524,-1365.912,-258.152
1209.02,-1398.12,-222.04
1239.764,-1375.672,-230.58
1264.652,-1387.14,-214.232
1268.556,-1401.292,-155.672
1399.34,-1412.272,-98.088
1447.896,-1340.78,-95.892
1362.984,-1294.908,-82.96
1205.36,-1296.616,-16.348
1092.876,-1280.756,37.088
1031.632,-1240.008,54.412
1000.644,-1129.232,28.792
986.248,-1020.408,-1.708
986.98,-959.408,-1.952
974.048,-925.736,17.08
945.256,-868.884,31.476
892.064,-829.356,54.656
777.872,-781.044,53.924
765.184,-701.5,33.672
782.752,-556.808,-0.244
714.188,-402.844,11.224
574.864,-297.68,30.744
494.1,-210.572,60.756
436.028,-119.316,57.584
371.612,-22.692,37.576
357.704,24.644,40.016
323.056,95.892,44.652
277.672,236.68,13.664
241.072,359.656,-12.2
280.844,437.004,-27.328
412.604,489.708,-20.984
415.288,485.804,15.372
400.892,537.288,-16.836
474.58,592.676,-45.384
603.412,582.428,-64.66
760.548,558.76,-53.68
805.932,506.3,-19.52
756.644,512.4,-11.468
679.784,547.048,-51.484
783.484,613.416,-53.192
910.12,595.36,-58.316
938.18,556.808,-3.904
849.12,488.976,29.524
808.372,487.756,9.028
777.628,562.176,-10.248
703.452,625.128,5.612
623.664,684.176,27.328
570.96,793.244,36.6
559.736,867.176,22.692
557.54,888.16,7.32
522.892,964.288,4.148
417.728,1006.988,18.3
267.668,971.852,57.828
152.256,975.512,45.384
102.968,1011.624,16.836
42.944,1026.264,14.64
39.528,1010.16,37.332
27.816,980.392,41.236
19.764,1037.976,-19.764
5.368,1113.372,-32.452
-47.336,1110.2,-3.416
-111.752,1110.688,10.248
-181.78,1103.368,29.524
-280.844,1067.744,40.748
-274.744,1020.408,40.992
-139.08,1052.372,18.056
-81.008,1064.328,-4.392
-76.616,1041.148,-22.692
-135.176,1001.376,-22.204
-170.312,975.024,-13.908
-150.06,966.728,-12.2
-49.776,985.028,1.22
-18.788,964.044,23.424
-45.14,948.428,32.696
-63.44,1003.328,23.668
-110.776,1054.568,41.724
-111.752,1036.024,81.984
-49.776,1006.256,136.152
29.524,980.392,168.36
49.044,973.072,187.88
47.824,1006.744,193.492
35.624,1003.816,197.396
18.788,980.88,187.392
35.868,970.876,182.512
51.972,995.764,165.676
7.808,995.52,140.544
-26.84,991.372,127.612
-30.988,992.104,137.128
-7.564,1006.5,175.192
36.112,1057.496,207.644
7.32,1042.856,178.608
20.252,1037.976,126.88
111.996,1103.368,100.772
57.096,1022.116,79.056
87.84,1009.916,31.232
104.92,1047.248,-34.404
92.232,1054.324,-102.724
37.576,1007.964,-121.024
-81.74,928.908,-92.476
-125.66,898.896,-75.152
-109.8,891.088,-100.04
-58.316,896.212,-140.3
-60.512,924.272,-143.716
-108.336,902.312,-112.484
-148.352,899.872,-85.644
-139.08,911.096,-70.028
-98.332,947.94,-84.18
-76.372,963.068,-99.308
-73.2,959.408,-97.112
-83.204,964.532,-120.78
-71.004,977.464,-131.76
-40.26,955.26,-129.076
-20.984,966.24,-119.56
-4.88,976.976,-116.144
-31.232,955.26,-131.272
-87.84,964.532,-149.328
-106.872,1016.26,-152.744
-96.624,1033.096,-126.88
-82.472,1024.068,-87.352
-69.052,1025.532,-62.464
-60.268,1041.148,-53.436
-68.564,1029.192,-32.208
-55.388,1012.112,-27.572
-41.968,1019.432,-27.084
-44.896,1034.56,-19.764
-78.08,1042.856,-2.928
-71.736,1068.72,9.76
-49.776,1052.616,31.232
-9.028,1042.368,48.556
18.544,1018.212,56.364
-4.88,973.072,57.34
-31.72,958.432,40.992
-57.584,965.996,15.128
-86.376,946.232,10.004
-95.404,939.4,10.736
-88.328,944.036,1.952
-95.404,955.748,8.54
-128.1,966.728,20.496
-144.936,977.464,11.224
-147.864,976.244,-1.22
-132.248,993.568,-18.056
-118.34,1006.012,-9.028
-131.028,981.612,11.712
-132.98,954.04,36.6
-94.916,945.256,52.948
-56.364,971.364,45.384
-71.248,993.812,27.572
-129.076,982.344,-8.052
-165.188,962.092,5.856
-134.2,968.192,10.98
-123.708,964.532,17.324
-129.32,965.02,26.108
-118.096,957.212,28.548
-125.66,961.116,12.2
-141.276,974.292,9.272
-115.412,970.632,13.908
-99.308,965.508,15.616
-61.732,969.168,-7.564
-15.128,980.636,27.816
-135.908,939.156,26.596
-167.628,1019.432,31.232
41.968,1089.46,-51.24
388.936,1154.852,-76.86
625.86,1324.676,-118.096
479.46,1406.66,-91.5
356.728,1130.452,-126.636
518.744,622.932,-11.956
855.22,279.136,102.724
833.992,102.724,7.32
778.36,160.308,-24.888
707.844,140.3,91.744
677.1,54.168,274.988
701.5,-196.908,435.54
835.944,-319.64,395.768
999.18,-339.648,230.58
1012.356,-409.92,149.572
1116.3,-414.312,106.872
1141.432,-425.292,106.14
1067.744,-337.208,130.296
909.388,-255.956,158.6
799.344,-194.224,213.744
644.892,-163.236,232.044
601.948,-185.684,242.536
571.204,-185.684,212.036
523.136,-158.112,146.156
535.336,-167.872,114.68
531.188,-208.864,121.268
422.608,-204.96,135.176
220.088,-171.044,135.908
144.204,-213.988,106.14
205.204,-256.688,46.36
387.228,-285.968,-33.428
560.224,-205.692,-189.1
527.772,-161.04,-291.092
566.568,-261.812,-300.852
724.192,-523.136,-322.08
840.092,-718.336,-389.668
976.0,-842.776,-424.072
1156.072,-935.74,-401.38
1204.628,-1077.748,-396.012
1214.388,-1210.24,-436.516
1317.844,-1306.132,-522.892
1492.792,-1359.324,-553.88
1613.328,-1255.136,-561.932
1566.724,-1128.5,-551.684
1474.004,-1150.216,-488.244
1466.928,-1195.112,-434.32
1332.24,-1176.568,-427.976
1237.08,-1103.856,-388.204
1214.388,-1061.156,-362.828
1396.9,-1093.12,-315.004
1552.084,-1171.444,-246.44
1448.384,-1228.052,-215.696
1323.456,-1239.764,-164.944
1300.52,-1227.32,-125.66
1318.088,-1158.268,-103.212
1215.364,-1083.848,-78.568
999.668,-1017.724,-22.204
942.328,-925.492,22.448
969.412,-830.576,12.2
945.988,-726.632,-27.816
886.452,-612.196,-31.476
748.836,-552.172,6.832
658.068,-503.372,40.26
713.944,-414.8,26.596
695.888,-313.052,13.664
629.764,-139.08,-5.856
602.436,-1.952,-19.276
528.992,82.228,12.688
460.428,76.86,41.48
452.864,71.98,50.996
388.204,184.22,4.88
343.796,267.424,-10.004
382.836,326.96,-8.296
453.596,362.584,15.372
428.952,406.016,-7.32
426.024,455.06,-27.084
448.96,460.428,-43.432
500.932,450.424,-48.068
612.196,453.84,-76.372
706.624,479.948,-100.772
736.148,494.1,-90.524
699.304,509.96,-77.348
730.78,549.976,-103.456
865.468,568.032,-113.46
891.332,543.632,-105.164
892.308,511.424,-125.66
932.812,484.34,-135.908
958.432,478.484,-113.216
934.032,476.288,-75.396
839.36,484.096,-50.508
730.78,536.8,-36.6
645.868,639.768,-27.328
557.784,724.68,-16.348
520.94,854.976,-8.052
649.04,1004.548,-61.488
668.804,1054.08,-17.568
572.668,1001.62,13.664
440.664,1058.472,7.32
334.768,1085.8,-25.132
259.372,1062.62,-31.72
116.876,956.724,-9.516
28.304,966.484,28.304
0.0,1057.496,37.576
52.46,1107.76,50.508
38.796,1121.668,18.3
-225.212,1037.244,-41.48
-319.64,1057.252,-79.056
-241.316,1077.748,-76.86
-151.28,1063.352,-36.112
-102.48,1011.38,10.492
-124.196,961.604,26.352
-217.16,911.096,22.692
-282.308,903.776,1.464
-296.704,957.7,-22.448
-245.22,1056.032,-37.576
-184.22,1068.476,-14.396
-109.068,1029.68,29.036
-45.384,1016.016,40.504
-17.08,1020.896,4.636
-27.084,1000.4,-7.808
-74.176,957.456,12.688
-72.224,938.912,33.916
-34.648,959.652,44.164
-11.224,979.904,70.76
-44.652,965.264,87.352
-88.084,940.62,92.476
-118.34,910.852,97.844
-115.9,904.996,122.488
-119.56,898.408,186.172
-110.288,904.996,248.148
-96.624,954.04,274.012
-107.116,997.472,277.428
-112.484,980.392,279.624
-47.824,975.024,265.716
14.396,985.272,232.044
76.616,980.88,183.732
135.664,973.804,139.324
126.88,963.068,86.132
124.44,979.904,37.088
124.44,980.88,0.488
79.3,942.572,-50.02
64.904,941.596,-116.632
38.308,982.832,-197.396
-35.624,1005.768,-239.852
-107.604,994.788,-255.224
-177.388,994.544,-279.624
-202.276,1000.644,-287.676
-203.252,999.424,-282.308
-186.172,969.412,-282.308
-170.312,955.504,-289.628
-168.36,941.596,-276.452
-173.484,950.868,-264.252
-186.66,992.836,-255.224
-163.48,1002.352,-214.964
-132.004,986.492,-182.024
-134.2,967.216,-162.26
-107.848,994.3,-149.816
-64.416,1024.068,-122.732
-50.752,1019.676,-91.256
-50.02,1007.72,-66.612
-56.364,1009.428,-62.708
-59.048,1015.772,-77.592
-74.664,1023.092,-94.672
-51.24,1038.952,-70.272
-25.864,1029.192,-49.288
-6.344,1025.288,-41.724
-2.196,1024.068,-37.576
-28.06,1002.596,-23.668
-58.56,968.924,-15.128
-54.168,968.68,-14.396
-34.892,961.848,-15.616
-22.936,956.724,-19.276
-33.184,988.444,-29.524
-42.7,1009.916,-28.304
-47.58,995.52,-19.764
-48.8,966.972,-24.156
-37.332,968.192,-27.816
-38.064,988.932,-23.912
-67.344,983.076,-14.396
-91.988,966.24,-22.692
-86.62,963.068,-24.4
-62.22,951.844,-40.748
-68.564,956.236,-22.204
-26.108,982.1,-10.004
-4.392,985.028,-4.636
15.616,986.98,-0.976
14.152,1012.6,-16.348
-34.648,1039.684,-36.6
-5.124,1052.128,-20.74
91.744,1057.984,6.1
86.132,1054.08,1.708
131.516,1049.688,0.732
319.396,1054.324,14.884
607.804,1096.78,16.348
791.536,1233.664,-79.056
609.512,1472.54,-206.912
257.908,1537.444,-163.236
282.796,1442.04,-127.124
490.928,1248.792,-104.188
410.408,879.864,-79.544
57.096,386.252,192.516
-127.612,-167.628,362.34
61.0,-460.916,492.148
618.54,-425.292,407.968
1070.916,-239.364,259.616
1057.252,-189.588,205.936
1045.296,-241.316,151.036
1154.364,-262.3,54.9
1193.16,-308.66,9.76
1169.248,-354.776,29.036
1011.38,-283.772,61.732
861.564,-176.656,88.328
729.56,-124.44,125.904
670.512,-135.176,163.724
549.244,-198.128,144.936
420.656,-229.848,93.452
300.364,-247.172,54.656
441.152,-204.96,16.104
539.484,-171.288,4.88
424.804,-203.496,29.28
242.78,-264.252,48.8
126.392,-335.256,14.396
211.548,-419.924,-61.976
425.536,-502.152,-184.952
613.172,-533.628,-280.6
690.276,-609.268,-330.62
756.888,-713.7,-356.24
894.992,-851.56,-412.36
1058.472,-913.292,-461.892
1038.464,-996.008,-474.336
1030.9,-1082.384,-465.796
1141.432,-1185.108,-463.112
1275.632,-1293.444,-478.728
1337.12,-1340.292,-474.336
1328.58,-1411.052,-425.292
1337.852,-1418.372,-359.412
1317.844,-1377.136,-321.592
1393.484,-1415.932,-237.9
1511.336,-1461.56,-181.536
1403.732,-1445.7,-176.9
1228.052,-1379.088,-146.156
1085.312,-1334.192,-75.64
1143.14,-1302.472,-23.912
1174.372,-1221.464,-28.304
1092.144,-1160.952,-34.648
924.516,-1126.06,13.42
854.244,-1085.068,59.78
987.468,-1087.02,82.472
976.732,-1023.092,40.992
895.968,-963.8,2.684
841.312,-869.616,4.392
821.792,-831.064,69.296
891.82,-761.524,72.468
894.016,-633.18,-1.708
787.632,-517.768,-29.768
650.504,-389.912,-10.492
600.972,-279.868,23.18
664.656,-202.032,25.376
723.46,-124.196,-28.792
613.904,-78.08,-60.512
507.52,53.924,-100.772
496.54,221.308,-95.892
481.412,342.576,-68.32
444.568,380.152,-7.076
430.172,376.98,19.276
355.996,421.388,-20.496
291.336,458.476,-21.228
302.56,493.856,-32.208
408.944,514.352,-32.94
567.544,553.88,-52.46
630.252,611.708,-77.104
621.956,625.128,-84.424
609.268,605.608,-77.836
655.14,598.532,-98.576
823.012,577.548,-113.216
944.036,594.384,-116.876
912.072,581.208,-109.312
871.812,582.916,-98.576
912.804,568.276,-88.084
931.348,572.18,-85.644
911.584,564.372,-90.524
912.56,583.892,-89.304
872.544,598.288,-65.636
805.688,623.664,-46.116
768.6,651.968,-36.356
778.116,714.188,-39.528
796.416,801.784,-15.616
680.516,872.788,11.468
460.916,819.84,66.856
343.064,818.62,76.128
396.256,908.168,33.672
359.656,926.224,35.868
194.224,985.028,-2.196
74.42,1037.0,5.856
66.368,961.848,48.068
159.576,951.112,54.656
167.872,986.004,66.124
55.632,1044.808,72.224
-44.652,1102.636,53.192
-114.192,1058.96,51.484
-74.42,1046.516,30.744
-102.724,1041.636,-4.148
-164.456,988.932,-4.148
-194.224,1021.14,-20.496
-201.788,999.424,16.592
-181.048,955.748,53.924
-126.392,943.06,74.664
-98.82,950.868,65.636
-87.596,952.332,81.74
-37.332,1009.672,93.208
-22.936,1016.748,113.46
-35.624,1011.38,127.612
-37.82,1009.916,108.336
-22.692,1017.724,80.032
-25.62,998.204,70.272
-18.056,1004.548,75.396
-50.264,1014.552,88.328
-63.44,1014.064,116.876
-58.072,1008.208,128.344
-57.34,975.756,135.42
-29.28,992.104,169.58
-27.816,1016.992,210.328
-46.36,1013.576,232.044
-62.22,977.464,260.592
-12.688,987.712,274.012
50.508,969.656,283.284
81.496,924.516,327.936
86.376,891.576,353.068
50.996,871.812,269.864
16.104,894.748,147.864
-25.132,914.268,99.064
-32.94,953.064,70.516
-44.896,940.62,69.54
33.184,918.66,54.656
152.988,977.952,3.904
179.584,1042.856,-43.188
118.34,1047.736,-41.236
31.476,994.3,-48.312
-1.952,1013.82,-100.528
-50.02,1031.144,-143.96
-71.248,1034.072,-143.472
-63.44,1023.824,-114.924
-34.648,1003.328,-111.264
-33.428,990.152,-121.268
-53.192,981.124,-127.368
-31.232,1002.596,-120.78
-32.208,991.86,-115.9
-56.12,1020.408,-133.224
-69.54,1041.392,-122.488
-68.564,1014.308,-95.404
-29.768,1012.112,-67.1
14.152,1009.184,-28.548
31.72,1008.94,-14.396
48.068,1005.036,2.196
47.58,986.004,19.032
42.944,986.492,40.992
77.836,1017.724,52.216
115.168,989.908,69.052
145.424,984.296,60.512
147.132,978.44,59.536
118.584,935.496,74.664
128.832,915.244,79.544
250.832,880.84,84.424
467.26,831.308,69.296
628.544,1025.044,-80.764
522.16,1199.504,-53.924
487.268,1045.052,-19.276
480.924,1070.672,22.936
738.832,1046.028,-35.38
822.036,849.12,-67.832
621.712,544.12,-16.592
554.124,255.712,40.504
694.424,96.136,44.896
969.412,164.456,10.98
1125.084,203.984,23.424
1022.604,172.508,84.424
966.728,96.868,104.92
1046.028,59.048,45.872
1119.472,61.488,-20.74
1139.236,48.556,-50.996
1021.384,-2.196,-8.784
907.192,-38.064,44.408
783.484,-23.668,84.668
738.832,-17.568,95.404
667.096,-33.672,119.56
545.096,-84.424,111.752
373.564,-166.408,98.332
375.76,-156.648,20.008
512.644,-139.568,-59.536
561.688,-116.144,-146.156
762.012,-127.612,-246.928
1021.384,-86.62,-327.204
1270.264,-94.184,-396.5
1420.08,-179.828,-420.168
1506.212,-290.604,-440.176
1575.02,-362.584,-442.86
1610.156,-385.276,-447.252
1616.012,-387.228,-424.804
1598.444,-396.012,-316.712
1456.436,-447.496,-213.988
1376.892,-514.596,-159.332
1388.116,-598.776,-99.796
1456.68,-673.684,-38.796
1448.628,-667.828,-5.368
1420.324,-654.164,20.984
1403.0,-600.24,37.82
1334.924,-545.34,34.648
1196.332,-467.992,53.436
1164.612,-457.5,93.696
1043.1,-412.36,104.188
935.74,-256.932,66.124
884.988,-164.212,60.756
759.328,-155.428,116.632
678.564,-187.636,167.628
601.704,-100.772,109.068
581.208,16.836,37.088
535.824,84.912,31.964
564.372,132.98,71.248
601.704,151.28,101.748
504.836,226.188,45.14
515.084,305.0,-35.38
617.808,344.772,-57.828
793.0,369.66,-65.88
898.652,442.86,-98.088
871.568,459.208,-106.628
828.624,445.3,-98.576
834.724,437.004,-73.932
868.884,414.556,-60.268
966.484,352.58,-51.972
1029.924,340.868,-59.78
952.332,404.064,-64.904
827.16,478.972,-56.364
820.084,567.788,-61.976
895.48,715.408,-14.884
935.496,818.62,19.032
813.984,787.876,34.648
648.308,852.78,36.6
506.056,1001.376,-45.14
425.048,1112.152,-93.452
471.896,1148.752,-79.544
428.464,1102.88,-39.284
259.372,972.096,11.956
137.616,982.1,-33.672
118.096,1102.392,-49.288
80.032,1091.412,-33.184
99.796,987.956,24.888
45.384,1023.58,1.708
-12.444,1028.46,18.3
-58.56,1051.64,-10.248
-112.484,1050.176,-17.568
-132.492,971.608,-16.592
-115.412,894.504,-21.472
-115.9,879.864,-33.184
-125.172,892.064,-21.716
-100.528,924.76,-4.148
-69.784,967.948,2.684
-2.684,960.628,51.972
30.988,961.36,67.1
13.176,973.804,26.596
-19.276,994.788,3.172
-28.548,1033.828,-12.444
-52.46,1014.552,-12.444
-35.868,978.684,12.688
-28.304,986.004,3.416
-34.892,970.632,-2.928
-15.372,979.904,-7.32
18.056,1003.572,-0.488
11.224,1012.844,-4.148
-1.952,1015.528,-2.928
9.516,1021.384,1.22
19.276,1024.556,2.684
0.488,998.936,10.248
-7.564,999.424,-1.952
8.052,989.42,1.22
12.2,963.8,12.2
48.312,968.924,19.52
55.144,1013.576,18.544
27.572,1019.676,10.736
-14.884,995.52,13.908
-11.712,983.564,14.152
23.668,976.976,17.324
50.996,989.176,18.3
55.632,997.96,19.764
46.848,1000.4,30.988
20.496,980.636,34.648
17.812,971.364,39.772
41.236,981.124,40.992
39.04,977.708,36.356
51.24,983.564,35.624
53.192,988.932,42.7
45.872,981.856,46.116
33.428,997.96,27.084
31.964,996.252,37.088
21.228,1003.084,39.772
33.916,997.472,59.292
44.652,992.104,61.0
51.728,994.788,64.66
57.34,1020.164,59.048
61.488,1026.264,76.372
55.144,1029.924,86.864
64.66,1036.024,96.38
76.128,1011.868,103.456
84.668,990.396,108.092
87.352,993.568,107.848
92.72,1001.864,112.484
95.648,1018.944,122.244
87.352,1023.336,119.316
80.52,1001.62,124.684
93.696,1010.892,117.852
89.792,1014.308,110.532
90.524,1025.776,101.016
79.056,997.228,112.484
85.644,969.9,116.144
97.6,955.504,104.676
91.5,968.192,81.008
60.024,961.604,65.148
52.704,937.448,57.828
50.02,943.304,46.604
41.48,981.856,23.912
26.108,995.52,10.98
21.716,982.832,15.616
29.524,944.524,4.148
50.264,982.1,-20.984
40.504,1009.672,-30.988
9.272,998.936,-33.428
-1.464,1014.308,-37.576
6.832,992.348,-23.668
4.636,942.084,-4.88
15.372,948.428,-15.372
43.676,966.484,-28.548
54.9,985.516,-41.236
57.828,1016.748,-40.748
29.768,998.692,-16.348
15.86,983.076,-11.468
26.84,978.928,-37.576
38.796,976.488,-49.288
38.064,974.292,-45.384
42.944,965.508,-43.188
49.044,1000.4,-59.536
26.84,994.3,-70.028
2.684,977.708,-63.928
-5.368,972.34,-55.144
2.684,980.148,-65.392
29.524,998.448,-70.516
44.652,1006.744,-57.34
26.108,1000.4,-40.016
6.344,1001.62,-40.748
3.172,1007.476,-50.02
21.472,1008.94,-36.356
43.432,1005.524,-5.856
57.828,998.692,9.76
73.932,992.592,5.856
72.468,991.616,0.488
70.516,996.74,0.0
77.836,982.344,5.124
84.18,983.564,1.464
81.74,986.248,4.636
67.588,974.048,15.86
83.936,975.512,19.52
98.332,977.708,13.908
77.836,993.568,6.344
64.904,1000.156,4.148
61.244,994.3,-0.732
55.388,1000.4,-12.2
54.9,1017.48,-19.032
53.192,1019.676,-9.76
60.512,1008.208,-3.416
64.904,1006.988,-5.856
63.684,1002.84,-0.488
68.076,988.444,9.272
68.076,976.976,9.76
76.86,970.388,-0.244
70.516,985.516,-3.66
59.78,1006.256,0.0
55.632,1002.596,8.784
59.292,990.152,14.152
72.956,987.956,4.148
70.516,1002.84,4.392
77.104,1016.26,7.564
84.18,1006.988,17.324
95.648,974.292,27.816
128.1,981.124,18.544
164.944,992.836,14.152
192.516,936.472,30.256
377.956,886.94,51.728
527.04,989.664,-28.06
501.664,1114.592,-77.104
465.796,1087.264,-51.24
472.14,1101.172,-59.78
556.32,1116.056,-71.004
642.696,973.072,-61.0
667.096,854.244,-77.104
665.876,734.684,-75.884
821.792,555.1,-85.888
954.284,500.2,-85.4
924.272,337.452,2.196
743.224,141.764,84.668
608.292,-21.716,150.06
651.48,-157.136,185.684
791.536,-182.024,204.472
791.292,-154.208,195.2
782.02,-142.252,169.58
859.856,-174.704,131.76
908.168,-208.132,124.196
788.364,-250.832,103.944
629.52,-256.444,93.208
527.528,-210.084,98.576
490.196,-189.1,107.604
477.752,-230.824,101.016
465.308,-256.2,51.728
396.012,-268.4,-3.66
340.868,-267.424,-50.996
439.2,-263.032,-56.12
541.192,-276.208,-67.1
560.956,-266.692,-112.972
515.816,-367.22,-139.08
600.24,-494.832,-215.208
788.12,-589.016,-285.968
883.28,-690.764,-311.1
761.036,-838.14,-339.404
739.564,-926.956,-451.888
1088.24,-976.732,-567.544
1458.388,-1110.932,-539.484
1265.14,-1225.856,-506.3
1000.156,-1223.904,-506.788
977.952,-1188.28,-496.784
1045.54,-1114.592,-437.004
1043.1,-1063.352,-351.848
1054.08,-1052.86,-290.116
1034.804,-1078.48,-260.836
1013.576,-1176.324,-232.532
1050.176,-1306.62,-202.764
1106.296,-1374.94,-176.412
1096.536,-1433.256,-129.564
1123.62,-1427.644,-99.308
1135.576,-1360.3,-105.652
1156.804,-1334.924,-89.304
1223.904,-1305.4,-87.352
1252.452,-1214.144,-132.492
1216.828,-1103.124,-160.064
1099.708,-1029.68,-109.312
1008.94,-992.836,-69.296
995.032,-990.884,-45.872
954.528,-894.992,-97.844
1034.072,-818.864,-116.388
1099.952,-848.388,-56.364
1035.292,-885.232,-20.74
916.708,-812.032,-69.052
856.928,-671.244,-122.732
849.12,-505.324,-123.464
784.216,-375.516,-94.672
730.78,-313.784,-59.048
677.1,-237.656,-74.176
613.416,-139.812,-110.288
509.96,-58.072,-126.148
562.664,6.344,-81.984
560.468,77.348,-57.584
530.944,119.804,-46.36
475.068,156.892,-49.532
357.216,199.104,-63.44
406.504,233.996,-35.868
510.936,284.504,-44.896
509.472,325.74,-34.16
442.128,335.744,-15.616
429.684,354.776,-30.988
508.74,370.392,-71.492
640.5,410.408,-91.012
661.728,378.444,-64.172
618.784,378.444,-61.976
707.844,433.832,-94.916
799.344,478.728,-102.236
827.648,496.296,-81.008
907.68,455.792,-44.408
897.92,415.288,-57.584
860.1,385.52,-83.448
928.664,409.188,-122.0
1067.988,539.972,-139.324
1071.648,625.372,-116.144
977.464,632.204,-68.808
995.52,608.78,-39.04
961.36,681.492,-70.76
827.648,757.864,-72.956
689.788,808.86,-61.488
658.8,857.66,-50.02
680.516,828.868,-20.496
642.208,844.972,0.488
598.532,910.12,6.1
644.404,1084.336,-8.296
678.808,1189.988,5.124
646.6,1105.808,74.908
568.276,1030.656,91.988
383.324,1044.564,68.564
224.724,1095.804,25.864
139.324,1068.964,27.816
112.484,1021.872,38.308
89.304,1010.404,58.316
56.608,925.248,93.94
33.672,839.604,119.072
-3.66,836.676,114.68
-41.724,886.696,95.16
-56.364,895.724,103.7
-26.596,883.036,134.444
8.296,858.88,150.06
1.952,830.82,157.868
-27.084,880.84,119.316
-67.344,912.804,114.68
-62.464,900.116,135.176
37.82,927.932,148.596
56.12,950.868,133.224
34.892,971.364,105.408
-28.792,961.36,88.084
-72.224,935.252,75.884
29.28,966.24,77.836
139.08,1023.336,103.456
122.976,996.496,121.512
69.052,986.98,117.852
48.312,967.948,109.556
49.044,980.636,98.82
116.632,1003.328,114.924
155.428,982.1,148.596
131.272,942.084,171.044
134.932,925.004,167.384
147.376,957.7,155.672
172.508,976.732,147.132
199.836,1004.304,159.332
193.248,962.824,183.732
156.16,970.876,161.772
146.888,1015.284,114.68
177.632,1050.42,78.08
237.412,1030.9,86.864
274.256,1021.14,99.552
272.548,1021.628,82.228
221.552,1002.84,52.46
255.956,1024.068,11.224
289.384,1024.312,-6.832
269.376,1046.76,-26.596
232.532,1073.6,-47.58
213.744,1057.984,-40.748
163.968,1016.748,-6.588
153.72,996.74,14.884
188.856,967.46,25.864
183.732,931.592,47.58
173.24,925.248,68.808
186.66,948.672,77.348
204.716,945.5,96.136
232.532,940.132,103.944
235.704,947.696,120.536
220.576,960.384,129.32
206.18,977.952,113.948
166.164,952.576,93.452
178.608,932.08,72.712
240.828,956.968,55.144
256.444,996.496,43.188
204.228,985.76,23.668
169.824,938.18,20.74
216.184,914.756,9.516
236.436,930.616,-13.176
247.66,950.136,-30.744
210.084,1000.888,-61.976
150.792,989.664,-69.052
208.376,998.692,-69.052
228.384,1026.752,-56.12
209.108,1015.284,-42.456
184.952,981.612,-43.676
164.7,1011.868,-67.588
172.996,1031.876,-68.808
156.648,986.98,-41.724
144.692,946.476,-21.716
160.308,940.62,-26.596
173.972,934.276,-36.844
205.448,951.356,-52.948
216.916,958.432,-55.632
175.436,968.924,-50.996
117.12,993.568,-51.972
82.228,1023.824,-60.024
148.596,1022.848,-29.28
196.664,999.18,-7.32
194.956,965.996,1.952
191.54,976.732,-14.884
179.096,990.884,-23.668
177.388,998.692,-10.492
191.052,981.612,20.74
206.912,965.02,36.844
221.308,954.528,25.376
218.624,974.536,0.0
210.816,987.956,-5.612
212.524,984.54,3.172
228.14,988.688,13.664
214.72,994.3,11.956
225.944,983.32,17.08
215.696,963.556,6.344
239.608,993.08,-7.32
226.188,1003.328,-4.148
224.968,947.452,18.544
225.456,939.888,13.664
233.996,959.652,-7.808
243.756,963.068,-24.156
224.724,952.576,-27.328
217.404,969.656,-28.792
242.292,979.904,8.54
253.76,944.524,21.716
243.268,955.748,18.544
239.12,978.44,-5.612
248.88,967.216,-4.148
260.348,944.768,-19.276
265.472,975.512,-36.356
295.728,995.032,-24.156
333.792,1005.28,-22.936
337.208,1006.988,9.76
302.56,950.38,6.588
279.868,938.18,-19.764
325.74,938.18,-41.236
422.12,954.528,-67.588
501.908,937.448,-76.128
579.256,894.26,-135.42
522.16,998.448,-43.92
398.208,997.716,-22.936
619.272,915.488,-43.188
899.14,805.688,-25.132
797.88,609.024,-23.912
811.544,549.0,-44.652
925.004,505.812,-75.152
874.984,391.132,-74.176
797.636,300.608,-18.544
751.52,174.216,71.248
737.124,64.904,167.872
784.948,-16.104,217.404
861.076,-35.868,206.18
1007.476,11.224,96.868
1071.648,-20.496,67.344
1065.06,-101.26,55.144
1044.808,-145.18,69.784
1030.656,-131.76,80.032
1040.904,-110.044,78.08
994.056,-58.316,64.904
955.26,-29.768,92.232
897.432,-43.188,139.08
847.656,-66.612,147.864
816.668,-78.812,115.656
813.74,-113.216,102.968
831.308,-104.188,71.004
864.004,-105.164,64.904
809.104,-82.228,80.276
743.956,-73.2,92.72
731.268,-113.704,124.196
682.956,-141.764,100.528
720.532,-171.532,72.468
778.604,-169.58,46.848
791.048,-185.928,35.624
847.656,-197.152,44.896
827.404,-230.58,38.796
838.14,-309.148,26.596
865.224,-386.252,-12.688
884.988,-381.86,-33.672
955.748,-358.924,-43.676
1003.816,-385.764,-30.5
989.664,-417.24,-40.26
984.54,-427.0,-43.676
914.268,-458.476,-27.816
832.04,-558.028,-5.368
815.448,-690.276,-3.416
911.584,-655.14,-99.552
1089.704,-517.036,-257.908
1135.576,-446.276,-304.756
1163.148,-520.696,-201.788
997.472,-680.516,-43.92
814.716,-730.048,-81.984
778.848,-747.372,-208.62
1037.244,-796.66,-272.06
1144.36,-782.264,-239.364
1006.744,-697.84,-175.68
942.572,-740.296,-135.42
877.912,-826.428,-133.956
945.012,-862.54,-166.896
1037.732,-858.148,-158.6
1058.228,-797.88,-182.512
1071.404,-810.324,-178.852
996.252,-846.192,-125.66
972.584,-842.532,-64.66
963.068,-899.628,-17.568
919.636,-904.508,-8.54
1027.972,-894.748,-39.284
1109.956,-931.592,-15.616
1046.272,-961.116,-12.932
985.76,-948.184,-20.74
969.656,-900.848,-11.956
1006.988,-835.944,-10.98
1096.048,-835.456,-24.644
1178.032,-851.56,-48.068
1277.096,-831.552,-123.22
1322.724,-784.948,-180.56
1308.572,-731.268,-230.092
1234.884,-680.272,-193.98
1108.004,-663.924,-110.044
992.836,-636.352,-40.016
915.244,-631.472,5.368
892.308,-614.88,29.524
909.876,-542.168,9.76
886.94,-486.536,54.656
848.388,-418.216,71.736
794.952,-354.776,91.256
797.88,-304.756,133.224
801.052,-285.48,136.64
828.136,-232.776,118.096
840.092,-136.396,97.6
824.232,-90.768,89.548
871.324,-49.532,78.08
887.916,-35.38,87.84
864.736,-9.76,80.032
874.496,40.016,59.78
933.3,82.472,45.384
916.464,93.696,70.76
800.076,66.368,103.456
700.768,56.852,88.816
749.324,106.14,53.68
752.74,146.644,48.068
688.324,196.664,58.804
587.308,263.276,68.32
509.96,304.756,86.376
507.52,320.128,79.788
573.644,393.572,43.92
607.804,476.776,6.588
626.836,477.508,15.128
609.024,470.432,26.596
625.372,508.252,-0.732
704.428,612.44,-18.788
757.62,661.728,-9.272
799.1,680.028,0.488
803.736,685.884,25.864
751.032,627.812,39.284
727.852,640.988,43.188
765.916,734.44,5.124
819.84,825.452,-11.956
799.588,857.416,19.032
692.472,747.86,65.392
605.364,729.56,95.648
605.364,792.756,64.172
629.764,904.508,40.504
601.46,984.54,27.816
459.452,988.932,56.852
332.572,1012.844,8.052
314.028,1015.528,-17.324
377.956,1027.972,18.788
423.584,1021.14,53.192
376.004,1051.152,46.36
276.452,1079.944,17.812
215.94,1050.176,53.192
161.04,971.364,95.648
108.092,930.128,61.244
76.616,948.672,-0.976
54.412,969.412,-22.692
30.744,934.764,31.232
-8.54,915.976,71.98
-34.892,958.188,66.856
-57.584,1012.6,36.844
-63.44,985.272,57.584
-21.96,972.584,69.784
-2.928,985.76,55.876
-64.416,952.82,52.704
-104.188,935.984,49.288
-95.648,939.888,40.748
-39.772,966.484,42.944
-29.036,1012.356,28.792
-47.58,1013.576,38.552
-81.74,999.424,48.312
-95.404,987.224,47.824
-40.992,1022.604,32.452
-12.688,1020.652,32.452
-20.008,992.348,34.16
-32.452,960.628,44.408
-49.288,956.968,25.62
-36.844,977.952,8.784
-10.004,990.152,10.98
-4.392,993.812,19.276
-17.08,965.996,37.332
-32.452,975.268,23.668
-48.068,969.168,9.76
-26.84,995.276,-1.708
-2.196,1024.8,-16.836
1.464,1033.584,-26.352
-27.084,1030.9,-16.592
-41.48,1017.724,-12.688
-29.28,1023.824,-14.396
-27.328,1015.04,-15.128
-10.248,1022.848,-14.884
-0.732,1013.332,-13.908
-10.004,981.612,6.588
-6.588,975.756,1.22
1.22,999.424,-26.84
-11.468,991.372,-27.328
-10.004,984.54,-17.324
-14.884,986.98,-15.128
-30.012,994.056,-18.3
-29.28,988.932,-19.764
-16.836,984.54,-13.176
-10.004,970.632,0.244
-5.856,963.312,-6.832
2.684,962.092,-6.344
0.244,983.808,-19.276
-42.7,976.488,-15.86
-48.8,983.808,-12.932
-17.324,980.392,8.052
-10.736,972.34,9.516
-13.664,971.12,-5.124
9.76,992.348,-11.468
12.2,1005.524,-14.884
2.44,1003.816,-11.712
-0.244,1000.888,-12.932
-13.42,997.472,-15.86
2.928,995.52,-14.64
-1.464,991.372,-15.372
0.976,987.712,-11.468
26.352,990.884,-3.172
27.328,1012.112,-16.104
-9.516,1015.528,-27.328
-12.688,1011.624,-12.688
-1.708,1018.212,-7.808
-3.904,1019.188,-15.128
11.712,1032.608,-26.108
19.52,1031.144,-20.984
20.496,1036.756,-26.108
22.692,1028.704,-27.572
22.936,1006.744,-1.22
2.44,973.56,5.612
24.888,971.364,10.004
34.892,970.632,5.856
11.712,979.66,0.0
-12.688,981.368,-20.252
-12.444,980.392,-8.784
7.32,992.104,-3.66
22.936,983.808,2.928
18.544,979.66,0.732
7.564,981.856,-8.052
-5.612,993.568,-14.396
-23.668,982.344,-8.784
-25.62,977.708,-7.076
-5.856,970.632,-0.244
1.708,982.588,-14.152
6.588,985.516,-11.224
14.152,1003.816,-22.204
13.42,1012.844,-13.176
6.832,1011.136,-4.148
6.1,1010.648,-10.004
-11.712,1009.428,-18.3
-16.836,1030.412,-40.26
-7.32,1000.156,-19.276
-7.808,1010.404,-15.86
0.488,981.368,-5.612
12.2,989.664,-9.272
5.124,992.348,-17.568
15.372,1002.352,-16.348
8.54,986.004,-5.368
-2.684,965.02,2.928
-9.516,970.144,-6.588
-10.492,987.956,-21.228
-15.616,979.66,-7.808
-10.492,978.44,-0.244
-12.2,949.892,12.444
-3.172,979.416,-16.592
2.44,986.004,-23.424
4.636,976.0,-9.76
-11.712,969.412,-3.66
-30.744,979.904,-23.912
-13.176,991.372,-22.692
-16.104,973.072,-11.956
