acc_x[mg],acc_y[mg],acc_z[mg]
-122.732,983.076,19.276
-113.216,991.86,8.784
-105.896,995.764,5.124
-100.772,998.448,7.32
-99.308,994.788,9.028
-95.892,994.056,6.344
-105.164,989.908,9.028
-111.996,983.076,12.444
-116.876,978.684,13.42
-118.584,973.56,17.08
-126.392,971.608,18.056
-123.708,974.292,12.932
-123.464,975.756,10.004
-126.88,977.952,9.516
-129.564,980.392,9.028
-129.076,983.564,6.344
-129.564,980.636,14.884
-130.052,980.636,25.376
-128.1,984.296,31.476
-121.024,979.416,40.748
-124.684,977.22,45.14
-118.828,983.076,34.892
-114.436,989.176,25.376
-114.68,987.468,25.864
-116.144,983.808,30.012
-118.096,984.54,29.768
-117.608,984.784,27.816
-122.976,984.54,25.62
-128.344,984.54,21.716
-128.832,979.416,22.448
-133.224,977.952,24.4
-134.932,979.416,21.96
-132.492,979.416,22.936
-132.248,975.512,25.864
-125.416,976.488,27.572
-119.56,978.44,25.864
-115.168,979.172,26.352
-120.536,977.22,30.5
-127.368,980.148,28.06
-124.684,981.124,20.496
-133.712,981.124,26.108
-136.152,977.952,29.768
-122.488,981.368,23.668
-116.632,981.856,22.692
-121.756,978.44,28.06
-122.732,984.052,27.816
-122.0,984.296,27.572
-120.536,982.344,28.304
-122.0,981.612,25.62
-120.048,982.1,20.008
-124.684,977.952,21.96
-133.468,979.172,23.912
-124.44,980.392,20.74
-125.66,982.832,23.912
-125.904,979.66,29.524
-129.564,982.1,30.744
-126.88,986.004,28.06
-123.464,983.32,25.62
-132.492,979.904,29.036
-133.712,978.196,27.084
-138.592,979.172,26.352
-131.272,979.172,30.5
-123.22,977.952,33.428
-117.608,979.66,31.72
-116.632,980.88,27.328
-117.608,981.124,25.132
-122.244,981.612,25.132
-123.464,981.612,25.62
-124.928,979.416,27.816
-125.66,982.588,26.352
-129.076,983.564,26.108
-127.124,982.344,25.864
-123.22,983.564,23.668
-122.0,986.248,16.104
-122.976,985.272,15.616
-127.368,986.004,18.788
-127.856,985.028,19.276
-128.344,984.052,23.18
-126.392,979.66,28.548
-123.952,982.344,26.84
-111.264,980.392,25.376
-112.484,971.364,30.744
-127.124,967.948,29.768
-139.812,973.56,18.3
-141.764,977.22,9.028
-146.156,980.392,9.272
-136.152,982.588,9.272
-127.368,983.32,15.86
-127.612,971.608,35.136
-134.688,967.46,45.628
-136.396,966.728,46.604
-134.2,970.144,42.944
-124.684,974.292,37.576
-119.804,981.856,28.792
-112.728,987.712,15.616
-111.02,995.276,0.732
-114.68,995.764,-4.636
-120.78,994.788,-1.952
-124.928,994.544,3.172
-126.636,989.664,13.42
-126.636,984.784,26.596
-128.588,978.44,39.284
-124.684,975.512,48.312
-126.392,975.512,47.092
-121.756,977.464,38.796
-122.732,975.512,35.136
-131.028,975.268,29.28
-134.2,976.732,23.668
-130.784,979.416,19.032
-132.492,979.416,22.448
-127.368,980.88,22.448
-122.244,986.492,20.252
-111.02,987.956,14.884
-113.948,987.712,17.812
-122.0,988.2,22.936
-122.488,989.664,22.448
-122.488,991.128,24.4
-127.124,989.42,29.768
-126.636,986.98,33.916
-120.292,981.856,33.184
-121.756,977.708,30.744
-130.784,975.268,32.208
-136.884,964.776,39.528
-142.984,962.58,38.796
-139.568,969.168,24.4
-131.76,974.292,13.664
-121.268,974.536,10.004
-120.292,980.636,7.076
-118.096,984.784,5.856
-115.9,993.08,3.416
-119.804,1000.4,12.444
-131.028,998.204,46.36
-152.256,988.2,90.768
-158.6,983.076,118.584
-163.724,988.688,110.776
-168.848,1005.768,75.884
-161.284,1028.948,25.132
-159.088,1032.364,2.684
-183.0,1028.46,-9.516
-210.816,1014.552,-22.692
-182.756,1005.524,-41.48
-162.016,992.836,-46.848
-135.176,976.732,-38.796
-117.852,981.612,-38.552
-113.948,998.692,-36.6
-111.264,1010.404,-24.156
-131.272,1022.36,-26.84
-128.588,1021.628,-36.112
-123.464,1010.892,-42.7
-136.152,996.496,-40.992
-138.836,986.492,-41.968
-122.244,973.072,-46.36
-142.008,949.648,-43.432
-163.236,932.08,-47.824
-190.076,926.712,-48.8
-194.224,925.492,-52.46
-179.828,924.028,-62.952
-158.356,919.392,-69.296
-154.208,916.464,-65.148
-136.152,920.368,-61.244
-131.272,936.96,-59.048
-129.808,951.844,-50.508
-122.0,955.748,-32.208
-122.244,964.044,-19.276
-137.372,966.728,2.684
-158.112,960.872,20.496
-170.8,959.408,34.404
-174.948,962.824,29.28
-164.7,965.02,17.812
-176.168,970.632,11.712
-184.708,966.728,13.664
-170.068,960.384,14.396
-146.644,963.068,3.416
-122.732,967.704,0.0
-125.416,968.192,21.716
-121.268,979.904,39.772
-115.412,986.492,53.924
-117.12,991.616,57.828
-128.1,990.884,55.388
-139.812,996.496,50.508
-156.648,995.276,50.508
-172.996,996.008,45.628
-172.264,997.96,35.868
-173.484,997.716,30.988
-173.972,987.956,34.404
-166.896,971.12,43.92
-164.7,959.408,43.92
-168.604,952.82,37.82
-173.484,953.552,29.036
-182.512,954.04,25.864
-183.244,962.58,19.032
-168.116,974.78,6.344
-152.988,978.44,5.368
-148.84,975.268,4.392
-136.152,976.732,-6.1
-132.736,975.512,-16.836
-138.592,970.632,-28.06
-144.692,971.852,-42.944
-159.576,973.804,-53.924
-169.824,982.832,-58.316
-171.044,993.568,-56.12
-172.508,993.812,-36.6
-170.556,989.908,-15.128
-157.624,988.444,2.684
-150.06,986.004,17.08
-146.156,976.976,34.404
-148.352,974.536,40.26
-146.644,974.536,43.188
-145.424,978.44,40.016
-149.084,978.196,44.164
-157.38,977.22,45.872
-160.796,986.736,32.208
-174.948,992.348,22.936
-203.984,994.056,14.884
-185.684,993.812,10.004
-199.104,1001.376,-0.732
-210.328,1033.584,-20.008
-200.812,1025.044,-20.984
-183.0,1016.26,-15.128
-246.684,1021.14,4.392
-267.18,1022.36,-21.472
-464.088,1079.212,-102.724
-472.628,1174.372,-237.168
-87.596,1096.536,-280.844
-207.156,955.992,-48.312
-283.772,944.768,213.012
245.22,715.164,480.192
553.636,560.224,595.36
398.452,614.636,455.792
461.16,429.928,372.1
737.124,323.544,333.548
965.996,213.256,315.736
972.584,91.988,388.936
973.072,-8.052,549.488
1220.244,-54.656,430.904
1152.9,-21.96,406.748
978.928,42.944,401.136
1021.14,57.096,325.496
983.32,162.992,168.848
850.828,269.376,93.94
569.984,317.688,77.104
345.992,335.988,55.632
223.748,284.504,117.852
309.392,193.736,129.32
435.784,199.592,81.496
539.484,232.776,47.58
560.468,360.632,-110.776
590.48,405.772,-175.436
567.544,303.536,-140.788
617.564,171.044,29.036
752.74,18.3,120.536
586.82,-64.172,225.212
796.66,-51.728,245.464
823.256,-58.316,220.82
994.544,-66.856,136.884
915.488,-143.96,179.584
969.168,-253.272,393.816
1012.844,-351.36,472.872
963.556,-294.02,321.104
1049.2,-222.284,99.308
1237.568,-288.896,74.664
1194.868,-599.508,515.572
1340.048,-647.088,500.2
1291.736,-479.704,206.18
1580.388,-376.492,-0.732
1576.484,-534.116,271.572
1517.924,-560.224,399.184
1604.056,-488.488,380.884
1217.56,-366.732,377.712
1478.152,-189.832,231.068
1525.488,-273.036,414.068
1599.42,-332.572,546.316
1517.68,-227.896,498.492
1405.684,-165.188,492.636
1159.244,-120.536,507.032
848.388,-145.18,547.536
650.504,-93.696,636.596
667.096,-123.464,198.372
665.876,259.616,-15.372
480.68,538.264,-191.784
298.412,693.204,-251.808
463.6,828.624,-323.544
521.428,1036.268,-342.088
466.04,1092.144,-376.736
491.66,1252.94,-388.692
417.728,1218.78,-373.076
292.068,1074.088,-268.4
176.168,968.924,-202.764
172.752,942.084,-192.516
181.536,1008.452,-120.292
161.528,954.284,-89.304
188.856,955.016,-91.012
228.628,1020.896,-106.628
242.292,1022.848,-78.08
246.928,943.304,-23.668
202.276,905.24,-18.056
202.764,877.18,-11.224
233.02,945.988,-21.716
220.088,951.6,-31.232
247.172,917.196,0.976
239.852,885.476,21.472
253.76,882.304,50.508
232.044,931.836,29.524
215.94,943.06,17.08
219.112,908.412,32.452
189.1,912.56,23.18
191.296,946.72,-4.636
220.088,992.104,-10.98
237.9,970.632,1.22
230.824,926.468,10.004
223.992,986.248,-15.616
210.816,990.64,-26.352
238.632,1001.864,-26.352
265.228,988.444,-6.832
250.588,962.336,3.416
218.38,961.604,-11.956
215.208,987.224,-31.232
247.904,974.048,-13.908
273.768,977.708,5.124
241.56,970.876,1.708
242.292,971.364,-4.636
236.436,988.2,-19.52
259.372,996.008,-17.812
240.096,952.82,-1.952
239.608,938.912,5.612
222.04,948.184,-8.052
248.88,995.52,-24.4
281.82,990.64,-7.564
251.808,962.58,2.44
231.312,965.508,-6.344
239.608,967.948,-10.736
253.028,972.828,-10.736
257.908,952.576,3.904
252.54,956.48,0.976
255.468,949.648,6.344
270.596,975.512,5.612
259.86,969.656,-0.244
247.172,975.756,-6.832
255.224,967.46,2.928
272.304,945.5,18.544
279.868,938.912,26.352
243.268,956.968,0.976
238.632,958.188,-6.1
259.86,984.784,-13.664
272.304,979.172,-3.904
265.96,971.364,0.732
240.34,960.872,-2.684
250.588,958.188,-5.124
265.96,966.484,-6.1
266.448,968.192,-3.904
265.716,967.704,-5.612
266.692,966.24,-2.684
260.104,967.216,-4.636
249.612,947.452,-0.732
257.664,960.628,-3.416
283.04,988.932,-5.368
278.404,980.636,2.44
275.476,967.46,10.248
267.18,969.9,10.004
263.032,982.588,-6.832
264.252,983.32,-12.444
251.076,976.244,-10.492
259.616,977.708,-5.612
265.472,975.512,0.976
264.74,1000.888,-2.928
277.428,1010.648,11.712
307.196,1031.144,26.352
320.372,1095.804,15.86
323.056,1155.096,10.98
318.176,1183.156,18.544
302.56,1200.48,34.892
306.22,1196.332,59.78
274.5,1180.96,72.712
237.412,1186.572,65.88
211.548,1179.496,48.068
270.108,1248.304,35.136
327.204,1288.564,51.484
283.284,1271.484,53.68
216.916,1258.552,41.48
269.62,1290.272,16.348
351.604,1302.716,64.66
287.676,1242.936,40.26
188.368,1192.672,0.0
91.256,1126.548,-9.516
79.788,1087.02,-10.736
182.512,1065.304,43.92
179.584,1069.452,69.296
122.244,1034.804,64.66
29.036,975.024,63.928
12.688,950.38,56.608
100.528,942.328,100.772
96.624,938.424,99.308
4.148,910.852,83.936
-35.868,879.864,92.964
12.2,878.888,122.0
63.684,917.44,125.416
16.104,943.792,91.988
-38.308,943.304,81.984
-34.648,877.18,114.68
3.172,882.06,156.404
-13.42,902.312,116.388
-47.092,926.956,84.912
-73.688,940.132,57.828
-50.02,893.528,83.448
-13.664,872.3,114.924
-50.508,819.84,120.536
-116.632,806.42,105.652
-155.916,734.684,94.672
-178.12,708.088,66.612
-241.804,644.648,51.972
-317.688,621.956,28.792
-403.332,609.756,-7.32
-438.712,646.844,-49.044
-421.144,663.68,-54.9
-342.088,692.228,-28.304
-317.932,700.768,2.196
-295.484,716.872,7.076
-275.476,712.968,36.112
-234.972,727.12,50.752
-249.612,723.216,51.24
-274.012,727.12,38.308
-282.308,785.436,16.104
-315.736,836.92,-37.088
-395.036,847.656,-39.284
-404.308,888.404,-47.092
-399.672,901.336,-24.644
-373.32,909.876,-5.856
-360.632,956.48,-8.052
-329.888,995.032,-11.712
-280.356,1013.576,-8.296
-273.28,1010.16,-10.492
-271.572,1006.744,-16.104
-286.212,972.096,-11.468
-297.68,945.988,-4.88
-286.456,953.064,-14.152
-291.092,937.692,-12.2
-290.604,913.536,3.904
-302.804,916.952,0.732
-303.048,930.616,-4.636
-292.068,943.792,-3.66
-289.628,948.916,3.904
-275.232,961.36,0.244
-258.64,989.42,2.196
-275.232,980.88,0.976
-263.032,987.712,4.392
-272.06,979.416,13.908
-284.26,977.952,3.172
-280.6,962.58,16.836
-287.188,955.504,23.912
-280.844,949.404,20.74
-294.02,945.5,7.564
-306.22,936.472,-0.244
-289.14,943.06,-8.052
-277.428,949.648,-8.784
-271.328,948.428,-13.176
-279.624,933.788,-6.344
-283.772,935.008,-16.592
-291.824,935.984,-26.596
-284.26,929.884,-25.62
-278.648,921.344,2.684
-274.988,932.812,3.172
-272.548,955.504,-7.076
-281.088,961.116,-14.152
-274.256,967.46,-19.276
-298.412,937.936,-1.464
-284.748,960.628,-12.444
-281.82,959.896,-11.468
-277.916,941.352,4.148
-283.528,931.104,5.856
-283.284,930.128,1.952
-267.912,951.356,-3.904
-288.408,946.232,-12.688
-292.068,930.372,-9.272
-278.892,935.74,-11.224
-275.964,937.204,-9.028
-287.188,929.152,-2.684
-295.24,927.2,2.928
-294.02,930.86,17.324
-289.628,921.1,42.7
-292.312,935.74,74.664
-250.832,980.392,45.872
-267.424,1019.432,-62.464
-267.18,976.0,-435.296
-538.752,791.78,-209.596
380.396,1009.916,-396.988
191.784,1163.636,-60.512
-314.028,500.2,237.412
780.556,-46.36,1191.696
863.516,94.672,843.02
1296.86,149.084,309.392
1119.472,159.82,367.464
1132.648,260.592,273.036
1305.156,235.948,227.896
1093.608,310.368,82.96
905.728,206.424,155.672
816.18,70.272,183.976
772.016,52.46,149.572
708.82,82.96,150.792
665.876,96.136,168.848
515.572,142.252,138.592
381.128,248.88,54.412
275.476,364.78,-42.944
275.964,383.568,-9.272
346.968,313.54,28.792
441.884,230.336,90.524
668.56,132.736,102.236
735.66,120.292,127.856
679.296,167.384,119.316
662.948,177.388,66.612
828.38,105.408,71.248
987.712,-34.648,171.776
945.256,-104.92,259.372
895.724,-92.72,249.612
974.292,-97.6,318.176
972.34,-91.012,264.252
941.596,-116.144,246.44
1113.86,-171.288,307.196
1098.0,-170.068,280.112
983.076,-169.58,281.332
930.372,-209.596,261.568
1112.152,-367.464,404.064
1165.344,-433.588,423.584
1177.056,-417.24,407.968
1237.08,-369.904,316.712
1407.148,-362.34,276.208
1673.108,-403.82,276.452
1748.26,-440.664,312.564
1691.652,-462.868,416.996
1739.964,-448.716,523.624
1666.032,-424.316,581.452
1471.808,-403.576,598.532
1471.32,-330.864,739.564
1374.696,-76.128,402.6
1264.164,-13.908,387.228
1057.74,-93.696,401.38
742.98,-143.716,313.296
381.128,261.08,340.38
209.84,633.424,-326.228
536.068,1192.428,-280.6
621.956,1088.972,11.468
338.672,721.996,88.572
225.456,1062.376,52.216
257.664,1074.088,52.948
259.128,1026.752,59.048
182.268,1023.336,33.916
94.672,1019.92,-8.052
123.952,957.456,-2.44
143.96,911.828,9.516
160.308,940.132,19.276
159.332,987.712,9.516
181.292,970.632,20.74
221.796,967.216,45.872
213.744,987.712,41.724
198.128,973.56,44.652
162.992,959.896,30.256
187.148,996.74,24.156
220.576,989.176,46.116
187.392,949.16,33.916
181.536,961.116,32.208
201.788,976.0,42.456
180.316,962.824,36.6
184.22,976.244,37.576
213.744,997.716,50.02
213.256,955.992,57.096
208.864,972.34,56.852
178.364,960.872,36.844
199.104,960.14,44.408
218.624,986.004,54.412
209.596,977.464,61.0
201.056,983.808,59.048
170.068,967.704,43.676
171.532,957.7,31.476
194.468,984.052,43.676
207.644,1002.596,50.996
223.748,985.028,61.0
221.552,966.484,61.732
204.716,968.924,57.34
215.696,968.192,60.512
215.452,969.656,63.196
194.468,967.46,45.14
187.392,976.244,41.48
188.856,972.34,46.116
206.18,981.612,54.412
213.744,988.444,52.216
223.504,976.732,60.756
199.104,951.356,54.656
198.372,948.672,51.972
197.396,983.076,41.236
195.688,992.836,35.136
203.008,986.98,40.504
207.4,971.364,49.044
211.06,970.632,55.388
209.108,951.844,60.268
216.916,951.112,63.44
212.28,960.384,59.048
211.06,967.704,58.56
202.276,987.468,48.068
192.76,971.12,43.676
190.32,972.584,37.82
197.884,984.296,38.064
207.156,968.924,50.996
204.96,971.364,53.192
212.768,969.9,56.12
207.156,971.852,51.728
204.472,985.272,42.944
211.304,986.98,39.284
209.352,981.368,42.212
194.956,977.708,38.796
207.888,974.292,42.212
205.936,965.508,42.944
204.228,974.536,43.92
204.716,973.316,45.628
206.424,985.516,42.456
206.18,989.664,39.528
199.104,978.44,38.552
203.984,987.956,41.968
209.84,981.368,45.384
206.912,966.972,46.116
204.716,983.076,42.212
204.228,982.588,42.7
196.908,972.828,40.748
197.152,964.288,39.284
201.788,973.56,42.212
201.056,989.664,41.48
212.036,986.004,55.388
211.792,992.348,58.072
213.744,1009.184,57.584
203.008,1043.344,40.992
192.516,1088.728,30.256
171.044,1111.176,19.764
190.076,1144.604,23.18
217.404,1176.568,29.768
241.804,1194.38,36.112
269.864,1212.436,45.628
257.176,1196.332,43.676
218.38,1152.168,40.748
192.76,1142.164,34.404
154.208,1119.228,5.856
115.168,1118.008,-31.72
81.74,1145.58,-63.44
72.468,1163.392,-69.784
121.756,1160.464,-45.872
167.384,1177.788,-4.148
178.364,1167.296,21.228
169.336,1151.924,30.5
164.212,1145.336,37.82
183.488,1104.588,52.704
129.076,1087.508,39.284
114.924,1073.112,31.964
119.804,1058.472,56.608
125.66,1054.568,69.54
166.896,1037.0,72.956
241.56,1037.976,99.552
235.948,1034.804,86.376
172.996,1081.652,41.236
128.1,1095.56,19.032
79.3,1072.136,0.0
32.94,1056.764,-10.98
23.18,1040.172,-5.368
15.372,1007.232,27.328
39.772,999.668,57.096
45.384,1012.356,76.616
10.98,946.232,97.844
-15.128,887.916,124.928
-53.192,912.56,108.824
-76.372,877.912,114.924
-93.696,848.144,110.288
-97.844,859.856,105.408
-105.652,874.252,102.236
-114.192,929.396,89.304
-134.932,891.332,65.148
-144.936,879.376,47.092
-131.516,850.584,39.772
-127.612,808.372,37.088
-157.624,774.7,8.54
-198.616,755.912,-12.2
-205.204,749.324,-13.664
-196.664,728.828,-6.588
-186.172,685.884,23.912
-206.668,659.532,33.916
-226.188,680.76,9.028
-226.676,698.572,-8.784
-222.284,679.784,-15.128
-239.364,670.756,-28.304
-234.24,705.892,-41.724
-241.072,750.3,-56.852
-280.356,783.972,-66.368
-293.044,820.328,-75.884
-262.3,869.86,-62.952
-236.68,943.792,-50.02
-268.644,982.832,-58.072
-273.524,994.3,-59.78
-217.892,1012.112,-52.46
-180.072,1017.968,-42.212
-174.948,980.392,-44.896
-206.668,952.82,-44.896
-237.9,911.584,-50.02
-255.956,914.024,-64.416
-264.496,931.348,-81.496
-245.464,956.968,-85.4
-231.068,969.656,-68.32
-233.02,956.48,-44.652
-232.532,937.692,-27.816
-212.28,946.72,-18.3
-207.4,953.064,-11.468
-212.28,954.04,-21.716
-226.188,990.396,-53.192
-220.576,995.764,-61.976
-194.224,1010.648,-59.048
-197.152,1002.108,-57.828
-222.284,979.416,-51.972
-252.052,968.924,-51.484
-255.712,951.112,-56.608
-250.832,939.888,-44.408
-252.296,950.868,-59.292
-252.54,968.192,-63.44
-252.784,949.648,-58.804
-241.804,937.448,-44.652
-240.096,936.228,-42.7
-234.728,948.184,-42.7
-233.02,952.576,-44.408
-230.58,985.028,-60.756
-239.608,966.728,-70.028
-236.436,945.012,-48.8
-234.972,966.972,-51.728
-236.924,972.096,-61.244
-239.364,960.14,-55.144
-256.932,953.308,-71.248
-254.004,955.504,-66.368
-250.1,960.872,-60.756
-249.612,957.456,-52.948
-234.728,956.48,-48.068
-221.308,953.796,-45.14
-232.776,952.332,-45.384
-243.268,958.676,-51.484
-249.368,953.796,-49.532
-248.636,955.26,-48.8
-249.856,958.188,-54.168
-227.652,969.9,-45.872
-226.188,962.336,-46.36
-250.588,947.696,-51.728
-256.932,947.208,-49.532
-250.344,955.992,-47.58
-244.976,955.504,-42.456
-247.416,944.524,-41.968
-268.888,935.008,-37.088
-315.492,935.496,-64.416
-294.752,938.668,-69.54
-234.972,985.76,-60.756
-244.244,974.78,-64.904
-263.764,971.12,-67.1
-267.668,980.392,-66.612
-252.784,964.044,-56.608
-262.544,950.136,-39.528
-266.692,971.608,-44.408
-248.148,990.884,-39.772
-183.0,1015.772,-73.688
-99.308,1031.144,-90.036
-47.58,1038.952,-89.06
54.656,929.884,-74.42
110.288,659.776,-159.332
358.192,867.664,-147.62
283.528,1003.328,24.888
273.036,418.216,12.444
281.088,10.492,325.496
907.924,30.5,1198.284
1323.944,50.508,140.056
1406.172,83.692,58.804
1424.96,36.356,-50.752
1408.612,-104.432,160.796
1277.34,-106.384,259.128
1080.188,-50.02,187.392
1023.824,-25.62,177.144
977.708,-77.348,199.592
847.656,-132.736,263.276
728.828,-86.62,257.664
712.48,12.932,150.06
650.504,107.604,31.964
550.952,164.7,-15.372
354.776,219.844,6.832
228.628,229.604,38.308
355.752,220.088,19.276
520.208,156.404,-54.412
527.284,128.832,-75.64
706.624,102.724,-66.124
821.06,34.404,-1.952
774.944,34.648,-13.176
848.388,34.404,-10.004
968.924,-41.236,135.908
982.344,-168.848,376.004
659.044,-105.408,235.704
820.572,-65.392,153.964
1059.692,-88.328,113.704
1080.432,-134.688,272.06
885.964,-198.128,395.524
645.38,-183.0,322.568
798.612,-159.088,279.868
920.124,-217.404,336.72
929.152,-317.688,528.26
822.28,-304.512,441.396
906.704,-316.712,369.172
1048.712,-360.632,308.172
1187.548,-454.572,389.424
1197.796,-505.08,400.16
1230.004,-538.752,389.668
1389.336,-547.78,396.744
1546.716,-576.572,435.54
1472.54,-643.916,544.608
1432.524,-622.2,560.468
1433.5,-578.036,546.316
1397.632,-547.048,532.408
1339.804,-524.6,544.608
1290.516,-530.456,533.384
1241.228,-471.164,543.144
1218.536,-417.728,552.416
1172.42,-434.32,642.94
1095.316,-409.432,762.256
981.612,-247.66,437.492
937.692,-23.912,113.46
978.684,-12.444,-18.788
734.928,156.404,-23.424
521.916,444.08,-36.356
768.844,371.368,-141.764
874.496,387.96,-56.608
475.556,614.636,254.98
409.432,970.388,221.796
269.864,1115.812,71.98
273.524,1079.944,57.096
306.464,1115.324,149.328
244.244,1100.928,185.684
169.092,978.684,84.424
131.76,979.416,71.736
146.644,1037.732,106.384
170.068,972.34,79.056
161.284,994.544,46.116
181.536,975.268,49.776
195.688,1021.872,56.12
190.564,1072.868,52.948
162.748,1025.532,27.328
175.192,970.632,24.4
196.176,962.824,59.536
179.34,971.12,60.268
162.992,985.028,58.804
162.748,980.636,67.1
173.484,971.12,81.984
157.868,973.072,91.256
155.184,964.044,91.5
157.624,977.22,104.92
194.468,966.484,121.024
184.464,963.8,116.388
184.22,962.092,112.728
182.512,971.364,118.34
179.34,974.292,94.184
180.56,968.192,94.916
185.44,964.044,99.308
192.76,968.924,102.968
212.768,991.616,114.436
221.552,992.104,111.02
191.54,953.552,86.376
177.876,958.432,87.352
171.776,974.536,91.5
176.656,964.288,100.04
177.144,960.384,89.792
191.784,980.392,99.064
214.72,1000.156,119.072
230.58,974.536,140.3
227.408,970.144,136.884
203.984,979.416,122.0
186.172,978.928,99.308
188.612,978.684,96.868
187.636,986.98,104.92
156.404,994.788,92.232
168.36,986.736,92.232
182.268,974.292,95.892
184.952,990.884,98.82
182.512,958.92,104.92
190.564,950.38,115.9
177.388,972.34,106.872
169.824,982.1,100.772
176.168,981.856,119.316
185.928,964.776,138.836
192.028,948.184,149.084
194.712,953.552,154.208
188.612,942.328,150.548
200.324,959.896,154.94
193.736,979.416,143.96
187.148,962.092,131.028
180.316,959.652,120.292
169.336,962.092,109.8
168.116,960.872,104.188
183.976,975.512,103.944
177.144,983.32,100.528
163.236,962.092,91.744
163.236,952.576,97.6
169.092,974.048,95.892
183.976,994.544,99.796
189.588,975.268,92.232
194.956,989.176,101.016
192.272,969.412,100.528
183.488,961.36,91.988
197.396,958.432,99.064
191.784,972.828,101.748
191.784,980.148,103.456
183.488,988.2,99.308
174.216,990.396,94.428
173.484,971.608,100.284
167.384,976.488,104.188
161.284,974.78,111.508
177.388,989.664,130.54
186.904,995.764,137.86
183.976,1008.452,129.564
172.264,982.344,122.732
163.236,942.328,111.996
186.904,935.008,132.736
192.272,962.824,139.568
190.076,1001.376,120.78
183.488,1036.024,110.776
184.464,1067.256,123.952
215.94,1116.788,147.62
207.644,1193.648,128.588
174.46,1271.728,92.476
162.748,1314.672,89.792
136.884,1316.136,87.84
100.284,1318.82,74.664
181.78,1292.224,79.3
196.908,1303.204,83.692
155.184,1387.628,75.396
150.792,1340.78,59.048
174.216,1252.94,95.648
176.412,1218.78,146.156
124.684,1183.4,147.864
96.624,1118.008,131.028
81.984,1122.644,118.828
87.596,1187.304,92.72
113.46,1224.636,84.424
126.392,1208.288,92.964
130.296,1191.208,94.916
135.908,1200.724,106.14
147.62,1174.128,77.836
237.9,1090.436,123.952
219.6,1098.244,153.964
183.976,1083.116,150.06
168.848,1019.432,162.748
187.392,940.376,174.46
167.872,858.392,166.164
133.712,806.908,147.132
65.148,785.436,115.9
0.488,759.328,79.544
-37.82,761.524,60.756
-34.892,733.22,55.632
-47.092,746.396,68.32
-70.76,766.404,49.776
-78.812,742.98,67.1
-60.512,766.404,83.448
-58.072,795.44,61.732
-73.932,768.6,73.444
-108.336,734.44,73.932
-162.992,717.848,36.112
-195.688,721.996,-2.196
-232.532,685.396,-26.596
-219.112,687.592,-25.132
-189.344,719.556,-42.212
-162.504,773.48,-39.528
-196.42,731.024,-25.864
-147.132,731.512,-62.708
-194.956,683.444,-35.136
-242.048,707.6,-82.472
-253.76,709.552,-63.928
-233.752,752.74,-60.756
-225.456,852.292,-96.868
-193.248,854.976,-68.564
-212.28,843.264,-70.76
-222.772,915.732,-98.088
-207.644,1006.012,-185.44
-181.536,1052.616,-187.88
-195.2,998.204,-154.208
-234.484,965.264,-184.708
-213.012,967.46,-166.408
-211.548,938.912,-161.284
-222.284,932.324,-151.28
-194.468,941.352,-141.276
-189.832,956.236,-147.132
-203.74,982.344,-146.888
-221.308,943.06,-137.86
-197.884,959.408,-116.144
-189.344,965.508,-98.088
-207.888,900.848,-71.248
-190.32,932.08,-58.804
-165.92,989.42,-92.476
-162.748,1011.38,-108.336
-169.092,1002.84,-136.396
-192.028,984.54,-123.464
-195.2,971.608,-118.34
-189.832,985.272,-134.932
-189.344,1007.476,-144.692
-213.988,961.604,-134.2
-225.212,968.436,-148.596
-230.336,957.7,-142.252
-226.676,956.48,-131.516
-216.428,934.032,-126.636
-224.236,933.056,-119.56
-227.164,950.624,-131.272
-238.632,966.24,-144.204
-233.508,969.168,-134.444
-243.024,965.752,-122.732
-264.008,985.516,-161.04
-264.496,968.192,-124.928
-278.16,992.104,-120.292
-242.048,1072.38,-130.052
-245.464,1044.076,-110.532
-222.04,1023.824,-73.444
-143.96,979.904,-14.884
-68.32,994.788,84.668
13.176,1041.636,85.4
89.304,931.104,2.196
212.28,773.236,-203.74
325.252,980.392,-268.156
610.0,1170.956,-7.32
980.636,752.496,52.704
825.94,556.808,375.272
575.84,455.06,455.548
856.684,298.656,582.428
1113.128,232.044,436.028
965.264,243.756,254.736
877.912,233.752,303.78
858.392,264.496,303.536
859.368,213.012,240.828
642.452,186.172,229.848
554.124,154.94,183.0
409.188,123.952,223.016
217.404,308.172,129.076
211.304,444.568,-57.096
266.448,387.228,-66.612
320.372,337.696,-52.46
315.492,337.696,-70.272
363.56,325.008,-50.508
252.784,309.392,-67.1
286.944,309.392,23.912
266.448,316.712,42.7
393.572,275.476,-5.368
664.168,89.548,106.14
691.496,-26.84,280.356
646.844,-52.216,332.084
754.448,-67.588,314.272
977.708,-154.94,349.164
1063.352,-232.044,427.732
1063.352,-210.328,398.452
1102.148,-225.7,359.656
1214.388,-278.16,358.68
1256.112,-386.984,397.476
1171.688,-513.376,514.596
1253.428,-501.42,472.872
1329.312,-332.328,272.792
1081.896,-259.616,221.064
1255.38,-367.464,228.872
1538.664,-444.08,286.7
1434.72,-538.264,423.828
1267.092,-504.348,416.508
1135.332,-355.508,246.928
1280.512,-454.084,382.348
1277.34,-484.828,461.648
1289.54,-513.376,490.684
1308.816,-491.172,504.592
1442.284,-488.244,505.812
1490.596,-467.504,508.984
1472.052,-429.44,482.144
1383.236,-415.776,509.472
1311.5,-354.288,505.08
1300.52,-298.9,516.06
1157.292,-244.0,508.984
916.952,-214.964,606.096
888.16,-315.736,583.892
911.096,-290.36,340.136
822.524,-20.496,142.496
682.224,619.272,116.144
748.836,826.672,149.328
795.928,507.52,91.256
490.684,761.524,101.504
498.004,840.824,93.208
720.044,788.364,-251.564
184.22,952.332,200.812
360.632,1078.236,187.148
395.524,1035.048,211.06
338.916,990.64,176.412
282.308,870.104,114.924
241.316,803.736,87.108
209.352,974.048,116.388
209.108,1014.308,147.132
234.972,951.844,109.8
213.012,931.348,83.936
213.256,967.948,70.516
165.188,1010.648,51.484
162.748,1003.084,56.852
186.416,974.536,51.972
180.804,957.944,31.964
186.416,967.216,28.06
189.832,947.452,22.692
213.012,971.12,21.716
216.184,989.176,41.48
224.724,1001.132,53.68
231.8,985.76,78.568
233.996,956.968,73.2
238.876,977.708,74.176
233.508,1003.328,86.864
224.48,983.32,76.128
231.068,958.676,66.124
235.216,955.504,80.276
227.896,928.176,67.832
251.808,949.648,62.708
257.42,994.788,69.052
252.052,979.66,66.612
239.608,945.012,52.704
233.996,937.204,42.456
256.2,958.676,54.9
262.3,948.916,52.216
269.132,943.792,57.096
257.42,958.188,56.12
237.412,952.088,40.748
222.772,965.264,29.28
216.184,980.88,35.624
239.608,982.1,44.896
242.536,989.664,54.412
250.1,960.628,53.192
248.636,965.996,54.9
242.048,1016.016,61.244
239.12,1009.184,58.316
247.66,971.12,56.12
247.66,957.212,59.78
249.368,958.92,60.268
248.636,964.532,65.392
246.928,959.896,61.244
245.708,952.332,62.952
258.64,957.456,71.98
264.496,959.652,74.664
263.032,928.908,65.392
258.396,939.888,60.024
255.224,949.892,53.436
244.244,958.676,41.968
238.144,985.76,35.38
242.536,989.908,37.82
262.056,996.496,45.872
260.592,1006.5,57.34
254.492,1017.968,59.536
253.028,1016.992,57.584
241.316,1027.728,56.852
244.0,1007.476,59.78
258.396,1032.12,74.176
245.708,1091.168,77.104
224.968,1098.244,55.632
234.484,1091.412,53.436
254.492,1135.332,70.272
260.836,1148.508,80.032
276.208,1154.608,102.48
309.88,1171.688,149.572
287.676,1194.136,142.984
261.324,1239.032,127.856
236.68,1282.952,114.436
212.768,1359.08,124.684
201.788,1357.616,138.348
198.86,1262.212,155.916
224.48,1168.028,172.996
237.168,1097.756,198.86
220.088,1105.808,183.244
234.484,1143.384,172.02
242.536,1152.656,162.016
259.616,1121.18,123.464
262.056,1120.204,117.608
212.28,1111.908,90.28
197.884,1069.696,59.292
249.368,1058.228,80.276
270.596,1050.908,93.94
270.596,1006.744,106.628
237.412,967.216,111.996
204.472,948.428,79.544
202.764,979.172,81.252
218.136,1022.848,78.568
245.22,1032.608,93.208
271.816,1005.524,109.312
344.04,932.08,164.212
270.84,924.272,143.228
205.692,961.604,115.9
181.78,955.26,97.6
235.46,926.712,98.088
223.016,895.236,141.52
122.488,931.104,116.876
78.08,1000.156,90.524
121.268,1028.948,133.468
136.152,1021.872,125.904
225.7,942.084,169.824
244.976,933.788,219.112
206.912,925.736,200.568
161.04,818.62,204.472
92.964,693.448,204.228
-1.22,623.664,172.996
-101.504,608.048,120.048
-138.836,618.052,72.712
-166.896,635.864,34.16
-128.1,629.276,32.94
-134.444,647.576,10.98
-157.868,692.228,-3.416
-188.368,693.448,-23.424
-160.552,656.116,-9.516
-102.724,620.98,21.96
-59.536,631.472,44.896
-49.776,660.264,14.64
-122.488,715.652,-21.716
-197.152,740.54,-31.964
-154.696,758.108,-3.66
-152.988,848.388,-27.816
-186.172,982.344,-90.524
-152.5,921.832,-31.232
-116.876,1000.644,-21.228
-68.076,1103.368,-53.192
-14.152,1085.8,-55.632
-4.636,1066.28,-11.956
-19.52,1025.776,-7.808
-9.516,1045.54,-14.64
-66.856,1043.588,-48.8
-79.056,962.336,-6.1
-70.028,1008.94,-37.332
-115.9,1033.584,-69.784
-149.572,999.424,-63.684
-130.296,961.36,-22.936
-109.8,958.432,-11.956
-92.964,972.096,-1.464
-111.264,957.944,-20.008
-101.26,964.044,-9.272
-80.032,976.976,-18.3
-87.596,976.488,-1.464
-108.58,994.3,-25.132
-92.232,1009.916,-30.988
-94.916,998.204,-10.004
-120.78,1003.572,-16.592
-127.612,970.144,-29.28
-107.848,1001.864,-18.3
-111.996,1035.78,-51.484
-149.084,1017.968,-46.848
-161.04,1034.316,-46.848
-99.064,1027.24,-8.784
-130.784,1074.82,-35.624
-192.76,1111.42,-143.716
-193.248,1081.896,-178.364
-75.152,912.804,-58.072
-72.712,675.392,-5.124
-102.724,768.112,21.472
337.208,845.948,-215.696
900.848,365.268,-186.416
1301.252,245.464,269.132
885.964,-1.952,380.64
869.128,54.412,304.268
989.176,98.088,242.78
1018.456,-26.84,284.016
913.78,-26.596,242.292
960.14,-19.52,116.388
984.052,7.564,78.568
869.128,-27.328,165.432
744.444,-105.164,232.288
559.736,-97.112,238.876
355.996,19.276,192.76
228.872,262.056,48.068
194.468,342.088,-29.768
66.368,265.228,70.76
-93.208,282.552,110.044
261.568,156.892,64.172
713.944,2.44,-13.42
773.236,1.952,-78.08
711.504,75.396,-50.264
847.656,96.136,-24.4
964.288,-99.308,50.264
1015.528,-219.356,89.548
1158.512,-345.992,213.5
1204.872,-256.2,146.644
1205.116,-207.888,74.42
1214.876,-344.528,146.644
1148.996,-513.376,310.124
1273.192,-411.872,246.928
1416.908,-387.228,190.808
1576.24,-407.48,125.66
1569.896,-357.948,60.512
1397.144,-361.852,135.176
1449.36,-373.564,205.204
1503.04,-456.28,270.352
1348.832,-576.572,275.232
1261.236,-485.56,245.464
1336.388,-230.092,137.372
1449.848,-318.42,225.7
1364.936,-301.828,258.884
1443.26,-359.168,285.236
1437.404,-374.052,312.808
1381.772,-261.08,188.612
1469.124,-288.164,276.94
1184.376,-71.492,223.504
765.672,-0.976,26.108
921.588,276.94,-196.664
861.076,338.428,-116.632
776.408,511.18,4.88
724.436,574.864,175.192
614.636,1257.332,412.36
512.4,870.348,382.104
381.372,669.292,299.144
224.236,814.472,257.176
283.528,838.384,252.296
284.748,839.36,124.196
166.652,873.032,129.564
141.52,1001.62,143.96
164.944,1129.476,196.908
170.556,1146.068,178.12
170.068,1071.16,161.772
153.72,1018.7,145.18
138.836,938.424,113.46
88.572,886.696,91.988
84.424,907.68,79.544
139.568,947.94,105.408
171.288,967.948,120.048
112.972,978.928,107.848
142.252,1027.24,109.312
146.644,983.808,115.656
132.736,965.996,114.436
127.612,974.292,95.648
156.648,1002.108,111.264
147.62,993.08,122.0
156.404,994.788,134.444
151.28,979.66,139.324
143.228,966.484,140.3
156.404,923.052,149.084
137.372,923.54,144.204
135.42,963.068,131.272
131.028,1000.4,136.64
145.668,1019.188,122.976
132.004,1010.404,121.756
139.568,982.1,125.172
115.656,961.116,125.172
118.096,920.124,124.928
123.22,937.448,127.856
146.644,1001.376,142.984
154.452,1018.456,136.64
168.848,1010.892,152.988
167.628,988.688,152.988
168.848,993.568,151.524
168.36,999.668,146.156
182.268,979.172,143.472
166.652,986.004,127.368
142.496,983.564,109.068
131.272,964.776,104.676
94.184,888.648,83.204
108.824,863.272,87.352
130.052,944.768,118.828
149.572,1002.596,131.272
171.776,1001.132,142.252
175.924,959.652,133.468
164.212,973.072,130.296
172.996,991.128,135.908
173.728,993.812,137.372
167.628,995.032,130.784
161.772,985.76,126.392
169.58,980.148,113.948
156.16,980.88,114.68
153.72,981.368,121.512
153.964,977.952,121.024
159.576,962.092,121.512
157.38,963.556,122.0
165.92,985.272,129.564
172.02,982.1,129.564
174.704,975.268,130.784
171.288,976.976,128.832
159.82,988.2,123.708
170.556,974.292,122.732
174.46,970.144,126.392
178.12,973.316,127.612
175.68,946.476,123.464
166.896,930.128,117.12
171.532,961.848,123.22
181.292,969.412,120.78
173.972,966.24,109.312
178.364,980.148,111.508
176.656,990.64,113.948
182.268,1004.06,118.34
177.388,984.052,106.872
166.652,972.584,107.604
168.36,973.072,103.944
182.512,993.568,114.68
182.512,1027.484,119.316
186.66,1022.36,112.24
172.02,1009.672,100.284
155.916,977.708,81.496
158.112,968.68,81.984
168.36,970.632,90.768
188.124,994.544,95.648
190.076,1019.188,101.992
180.56,965.752,97.356
167.384,939.4,94.916
177.876,955.504,97.844
185.684,986.736,107.116
175.68,979.172,106.872
165.92,1005.036,105.896
171.776,1039.928,112.972
190.564,1102.636,135.908
172.508,1158.512,130.784
157.136,1225.612,115.168
178.608,1317.6,110.532
176.656,1366.156,91.988
149.816,1368.596,64.66
157.38,1326.384,59.536
149.572,1316.868,51.484
154.452,1297.592,53.436
181.292,1262.7,68.564
226.676,1250.5,89.548
231.8,1247.084,84.424
230.824,1183.888,84.424
205.692,1121.424,78.812
185.928,1044.564,67.1
174.216,1022.36,68.808
165.188,1018.212,76.128
176.9,1006.988,81.008
173.484,1017.236,85.888
176.9,1006.256,69.296
173.484,961.116,81.008
133.712,918.172,96.868
114.924,952.82,93.696
119.316,989.42,87.84
150.304,989.664,81.496
203.252,978.928,95.648
240.584,875.716,127.856
187.392,895.968,136.884
127.856,941.596,94.184
119.316,972.828,62.708
126.88,944.036,30.012
98.088,871.812,29.036
58.804,799.588,24.888
33.184,803.736,40.26
42.944,910.608,11.224
87.352,1048.468,0.976
29.524,918.172,-35.624
-20.74,956.724,-110.532
4.148,840.092,-70.272
11.712,955.992,-87.596
8.052,757.132,23.668
-12.688,648.796,50.264
-0.976,807.64,-17.568
25.376,929.396,-80.764
-76.86,635.62,-1.708
-101.016,453.84,133.468
-46.604,849.608,41.724
-45.872,839.116,126.636
10.98,834.48,106.384
15.372,766.404,38.308
-35.136,815.448,26.84
-81.984,762.256,69.296
-130.54,719.312,-40.26
-225.944,970.388,28.304
-97.356,883.036,-39.284
-71.492,921.344,-25.62
-136.64,945.5,-67.1
-132.98,980.88,-78.812
-110.044,927.932,-65.88
-166.408,1044.808,-137.86
-102.236,985.516,-74.664
-56.12,946.964,-24.644
-22.692,1052.372,-55.632
-88.572,1074.576,-85.644
-37.088,1005.524,-78.324
-36.844,963.8,-82.228
-83.204,990.64,-79.788
-147.376,987.712,-82.716
-180.072,976.244,-81.252
-156.892,994.3,-75.884
-69.296,1000.156,-45.384
-10.736,1112.884,110.776
-33.428,949.16,-97.6
-127.856,1033.34,18.3
-22.936,1007.72,-46.116
4.88,1052.372,-18.544
-24.888,1039.44,-91.744
-196.664,952.576,-168.36
-382.348,1048.224,-80.52
-155.184,853.268,-73.444
303.536,699.548,-115.168
685.396,307.684,50.02
1016.016,-59.292,683.444
1195.6,-51.972,572.668
1411.052,284.992,144.204
1206.092,274.012,-31.476
1056.032,200.08,136.152
1012.356,113.704,245.952
719.556,132.736,153.72
542.9,176.412,14.396
573.4,195.444,-17.568
420.656,136.396,85.156
291.092,158.112,115.656
311.344,238.632,-38.064
441.64,282.552,-113.46
585.6,254.736,-106.872
593.896,133.956,-17.324
610.244,94.916,-12.444
659.532,88.084,13.176
762.5,11.224,87.352
746.152,-61.488,119.56
816.424,-52.46,165.676
937.936,-73.2,195.688
882.548,-98.088,139.568
859.368,-134.932,271.572
897.92,-182.024,416.264
1215.12,-178.12,457.256
1454.24,-211.792,414.556
1559.648,-254.248,387.96
1611.376,-232.288,374.052
1622.6,-229.116,443.836
1512.556,-280.112,555.832
1529.148,-272.06,582.184
1657.492,-251.808,580.72
1648.464,-228.14,487.512
1540.128,-157.136,291.092
1621.868,-91.744,185.44
1445.944,-148.352,312.076
1208.288,-158.6,444.324
1024.556,-109.8,488.244
784.704,53.924,370.88
798.368,77.592,340.868
874.74,140.788,140.3
844.24,310.612,131.76
835.456,518.988,115.168
736.148,605.364,-76.128
568.276,583.892,115.9
423.584,681.004,127.612
426.512,1164.368,-156.648
428.952,971.364,15.128
377.712,868.396,59.536
352.58,806.176,93.208
245.22,1035.78,89.548
172.752,1100.684,72.224
213.012,1123.62,86.62
219.6,1068.72,88.084
136.64,1027.24,142.252
61.488,1021.628,132.248
58.072,969.9,162.992
69.052,982.832,153.72
37.576,1008.94,130.784
17.324,1017.968,126.392
31.72,974.536,134.932
49.288,951.6,146.4
30.012,1011.868,133.956
17.812,1040.172,114.924
33.672,1012.6,109.312
19.52,1035.048,94.428
-9.516,1029.436,70.272
13.664,987.712,87.108
10.004,954.04,90.036
30.5,956.48,94.428
50.02,1010.404,109.312
66.368,991.128,120.048
47.824,947.208,111.752
13.176,955.992,94.428
17.568,965.508,96.868
43.92,997.96,104.188
52.46,984.052,105.896
46.36,990.396,108.824
42.944,974.292,107.116
46.848,961.604,111.996
50.752,973.804,112.972
52.704,1001.376,109.556
40.26,983.808,102.236
47.824,963.556,109.556
41.968,997.96,109.068
41.48,997.228,100.284
30.988,969.168,106.628
31.476,963.068,110.776
57.828,957.212,117.852
71.736,960.384,122.976
60.268,975.512,115.412
51.972,964.532,103.212
44.164,983.564,93.94
46.848,993.812,85.4
71.736,1002.596,92.476
52.704,1005.768,85.156
39.528,1034.316,71.98
47.58,1017.968,67.832
71.004,973.56,82.472
70.516,977.708,81.008
54.656,982.1,72.468
44.164,984.784,55.632
40.748,980.88,53.436
40.992,984.784,46.604
65.148,1001.376,56.12
87.596,1011.868,74.664
92.964,1027.728,78.568
62.708,977.464,68.076
42.944,949.892,57.828
40.26,972.828,54.168
60.512,985.028,58.072
74.908,1015.284,61.488
71.248,1009.672,61.488
63.196,1005.28,63.44
53.924,1001.864,64.416
55.144,1027.728,65.392
70.028,1030.9,74.176
84.912,1064.328,81.008
101.26,1107.76,79.3
83.692,1106.296,66.124
68.32,1115.324,48.8
66.368,1125.084,44.652
42.456,1112.884,37.332
20.74,1095.56,37.82
6.1,1078.236,42.212
21.472,1146.312,42.944
46.604,1234.396,36.356
49.776,1271.24,30.988
58.316,1261.968,25.376
83.692,1284.904,24.644
100.04,1264.164,25.132
88.328,1210.728,25.864
68.564,1189.256,25.376
67.832,1171.688,26.108
58.072,1146.068,31.72
54.9,1131.428,40.504
49.776,1101.904,57.584
66.856,1076.04,72.956
65.392,1081.652,64.904
89.06,1092.632,62.22
118.096,1094.096,72.224
91.012,1062.62,57.828
88.816,1004.548,62.952
87.596,950.38,65.148
73.2,924.516,61.488
40.504,916.22,47.336
-7.32,886.208,55.144
12.688,914.268,45.384
62.952,972.096,31.232
91.256,989.908,36.356
73.2,961.116,62.464
23.18,981.856,41.968
-41.48,970.632,29.036
-56.12,948.672,43.188
-23.424,938.18,80.764
-2.928,962.58,72.712
-21.716,972.096,49.288
-49.288,942.816,26.108
-48.556,922.808,22.936
-28.792,829.844,50.508
-90.036,761.28,69.052
-127.612,792.024,40.504
-116.388,812.52,14.64
-93.696,796.904,5.368
-113.46,831.552,-3.172
-148.352,869.86,-21.716
-144.936,796.904,5.368
-131.516,755.18,17.812
-91.744,792.756,-21.472
-58.804,771.528,-25.62
-135.42,641.232,10.492
-177.632,600.24,22.692
-205.448,624.64,-1.708
-193.248,674.172,-26.596
-215.452,739.076,-59.292
-247.66,776.164,-76.616
-266.936,810.08,-89.792
-270.596,852.292,-76.616
-234.484,946.964,-77.836
-209.108,1006.5,-79.3
-179.096,1055.788,-78.812
-144.692,1066.036,-48.8
-121.756,1081.652,-30.5
-111.508,1092.144,-18.056
-102.236,1078.236,3.172
-119.072,1055.3,1.464
-137.86,1031.144,-13.664
-160.308,995.276,-27.084
-189.1,976.976,-40.26
-193.98,977.952,-45.14
-176.9,984.784,-47.58
-164.212,991.128,-46.848
-152.988,975.756,-37.576
-134.2,988.444,-25.132
-129.564,986.248,-17.324
-128.832,982.588,-19.52
-137.616,988.688,-30.988
-164.7,984.54,-42.944
-172.264,970.388,-37.82
-176.168,962.092,-33.428
-172.264,960.628,-33.428
-158.112,955.26,-30.744
-167.14,950.136,-33.428
-166.408,964.044,-45.384
-164.212,955.748,-44.164
-185.928,953.064,-59.78
-193.98,962.092,-74.908
-185.928,973.56,-84.424
-165.432,983.32,-85.4
-169.824,984.784,-86.62
-171.044,959.896,-59.048
-157.136,944.524,-37.576
-146.156,947.696,-24.888
-149.084,976.0,-37.576
-187.636,955.26,-49.532
-216.916,948.672,-67.1
-201.056,971.852,-71.004
-188.124,973.316,-56.364
-182.756,981.124,-47.092
-153.964,990.396,-32.94
-130.784,998.692,-26.352
-118.584,1036.756,-28.792
-137.616,1070.916,-55.388
-124.684,1132.404,-81.984
-24.4,1106.54,-123.22
76.128,993.08,-111.508
155.184,1042.612,-94.672
502.152,900.116,-105.652
380.884,852.048,-173.24
433.344,797.88,106.872
439.932,523.136,391.132
502.64,327.936,731.268
663.924,244.0,507.764
867.42,96.38,497.272
932.812,177.388,374.052
1127.768,242.78,162.016
865.956,190.808,47.092
363.804,135.42,92.964
116.876,58.316,81.74
223.26,124.928,24.888
378.688,200.324,-31.232
381.86,188.856,-72.224
397.964,226.188,-119.804
380.64,297.924,-238.388
500.2,311.832,-264.984
515.084,250.344,-153.232
243.024,192.76,5.368
196.908,60.756,155.428
437.736,-97.844,230.824
654.164,-155.428,233.264
782.996,-214.72,253.272
925.492,-315.98,299.876
900.848,-384.544,298.9
929.152,-382.104,272.792
1191.94,-453.352,294.996
1385.92,-514.108,284.992
1352.736,-587.064,331.108
1280.268,-639.524,384.788
1207.312,-679.052,369.66
1151.192,-703.696,356.24
1178.764,-711.504,382.104
1300.032,-687.592,353.8
1283.44,-652.212,233.02
1325.896,-680.76,271.084
1408.856,-730.048,352.824
1481.08,-802.028,479.216
1453.508,-822.036,545.828
1363.228,-807.152,576.328
1385.188,-748.348,639.28
1413.492,-621.224,619.272
1256.844,-412.604,513.132
1111.42,-328.668,460.184
1256.112,-341.356,394.06
1429.108,-269.132,481.168
1270.264,-185.684,178.12
981.124,120.048,-50.508
777.14,323.056,-18.3
686.86,500.2,-265.716
892.064,1166.564,-538.02
923.296,1263.432,-342.332
735.904,690.032,-177.632
541.192,655.14,-255.224
292.8,775.432,-80.032
380.396,828.38,-192.76
538.752,736.392,-354.532
250.344,903.288,-38.552
330.132,949.648,-120.536
339.892,762.5,-151.524
320.86,894.26,-158.6
303.536,896.212,-168.36
342.332,918.904,-152.988
346.236,903.532,-112.972
351.36,846.192,-97.112
418.704,903.044,-103.456
406.748,968.68,-108.58
389.668,930.616,-117.364
340.38,922.32,-127.368
324.52,942.816,-129.564
347.212,932.324,-128.1
359.9,921.1,-110.044
378.688,929.884,-96.136
387.96,905.728,-84.18
366.732,880.352,-72.956
354.776,897.188,-95.16
360.632,924.516,-99.308
365.268,891.088,-91.012
379.176,900.604,-84.912
375.76,916.708,-81.252
374.296,910.852,-84.912
369.416,896.212,-88.084
362.828,892.552,-88.816
382.592,924.028,-85.644
393.816,945.744,-80.032
359.412,936.472,-97.112
356.24,928.664,-101.748
389.668,929.884,-85.4
399.428,919.392,-72.712
388.936,901.58,-72.956
384.544,911.828,-74.908
383.324,917.196,-82.716
381.86,911.828,-80.764
386.496,896.456,-74.908
416.508,921.1,-57.34
415.288,917.684,-55.876
394.304,913.292,-65.148
382.348,914.512,-70.76
387.716,911.828,-73.932
392.352,909.632,-75.64
381.372,917.44,-73.688
388.204,932.812,-79.056
404.552,965.508,-82.716
383.324,967.46,-93.452
384.788,942.572,-93.696
398.94,932.812,-79.544
408.944,925.736,-74.42
422.608,951.844,-74.664
406.748,965.752,-82.716
386.496,946.72,-76.616
391.62,951.112,-74.664
387.472,979.416,-80.032
397.476,1037.0,-84.18
406.016,1072.868,-76.616
399.184,1092.144,-68.808
401.624,1156.804,-84.18
378.688,1256.844,-99.064
356.728,1308.816,-104.92
365.512,1316.868,-108.336
371.368,1293.2,-101.992
360.632,1249.524,-77.348
357.704,1267.092,-63.44
336.72,1290.516,-77.836
337.208,1306.376,-91.988
332.572,1337.852,-140.3
395.524,1344.44,-170.312
438.224,1379.332,-160.064
429.928,1329.068,-155.672
421.876,1280.024,-136.152
504.348,1183.644,-130.54
601.216,1076.04,-18.788
566.568,1032.12,-33.672
503.128,1039.196,-26.108
444.812,1039.928,-74.42
406.016,1053.836,-99.308
508.74,993.08,-127.856
595.604,823.5,32.94
484.096,795.928,28.06
332.816,833.992,25.62
319.884,851.56,19.52
400.648,727.12,-74.176
474.092,623.908,91.988
399.916,591.212,178.852
345.992,665.144,112.728
242.78,725.656,71.248
159.576,780.068,42.212
226.188,850.584,42.7
308.66,856.196,104.92
372.588,804.712,148.108
107.116,745.42,33.672
-11.224,761.28,71.492
-30.256,794.952,60.268
9.76,830.088,51.484
70.516,851.316,92.476
37.82,805.932,100.284
-17.568,810.568,95.648
-53.192,821.548,98.332
-79.544,838.14,68.808
-94.672,855.952,49.776
-137.86,858.88,19.276
-136.152,874.252,23.912
-111.996,853.024,23.912
-100.04,793.488,45.872
-116.632,771.284,36.112
-119.072,767.868,14.152
-88.328,776.896,-1.708
-102.236,755.424,-2.44
-148.84,714.188,20.252
-153.476,717.36,12.688
-137.86,749.568,30.256
-160.308,782.02,14.152
-185.928,821.304,-3.416
-191.296,832.772,-3.904
-161.528,881.084,-3.172
-143.716,914.268,12.444
-147.376,931.592,27.816
-169.092,937.204,21.96
-169.336,969.9,22.936
-146.156,1000.644,10.248
-149.816,1019.676,-13.42
-130.784,1036.268,-22.936
-118.096,1016.992,-0.732
-115.9,975.024,20.984
-97.6,985.76,16.592
-91.5,1016.992,1.464
-90.524,1032.608,-6.344
-86.62,1001.132,18.3
-87.352,978.44,27.816
-103.212,981.612,25.62
-119.804,1000.644,19.764
-104.188,1003.084,20.252
-85.644,990.152,35.136
-104.676,981.612,30.744
-108.092,989.908,29.28
-113.46,1008.696,30.988
-113.948,1005.524,32.452
-110.532,982.344,50.996
-106.872,970.144,54.412
-92.964,990.152,41.968
-100.528,1003.328,25.132
-103.212,1000.888,15.616
-105.896,989.664,14.396
-117.852,982.344,10.492
-136.64,967.704,5.368
-167.384,948.184,10.98
-195.932,967.704,-3.416
-195.2,965.264,-0.244
-163.48,969.168,8.052
-147.62,981.368,2.44
-139.08,991.616,-1.22
-111.264,985.272,-4.88
-97.112,975.512,1.708
-97.112,972.34,4.148
-70.028,970.876,7.808
-73.2,990.884,-10.98
-108.092,994.3,-5.856
-97.112,985.516,-16.348
-128.588,972.828,-12.688
-168.848,969.168,-9.76
-169.092,983.32,-13.42
-145.424,970.876,8.296
-151.524,976.0,17.08
-133.712,986.004,4.88
-143.472,983.076,0.244
-137.86,1015.772,-1.22
-110.532,1029.192,-15.128
-63.196,1027.972,-22.204
16.592,1066.28,-68.808
89.06,1109.956,-129.564
-58.56,1003.328,-50.752
-32.94,975.268,-203.008
-39.528,935.008,-269.864
285.968,545.34,-119.804
595.604,518.012,1027.972
877.912,441.152,470.188
671.244,406.26,113.948
662.46,441.396,129.808
869.86,270.108,98.088
1110.444,67.588,218.868
959.896,6.1,156.404
857.66,40.016,31.72
841.8,28.304,28.792
653.92,23.424,87.84
445.544,76.616,125.172
270.84,180.56,118.096
196.664,288.896,64.172
300.364,310.612,-16.104
487.024,217.404,-33.428
519.72,94.672,34.892
634.156,30.744,35.624
665.144,23.424,53.924
556.076,42.456,68.564
710.04,37.332,29.28
848.144,-71.492,14.64
882.06,-142.496,126.636
863.028,-215.208,188.368
809.348,-258.396,210.816
819.596,-199.836,178.364
1015.528,-219.356,236.436
1113.86,-398.208,385.276
1130.208,-475.312,463.356
1358.104,-524.112,529.724
1542.568,-567.056,567.3
1633.824,-636.596,559.004
1712.88,-668.56,644.16
1749.236,-642.696,706.624
1813.896,-594.872,763.476
1595.76,-504.592,692.96
1245.62,-389.912,708.088
1000.156,-198.372,557.54
960.384,-129.564,525.332
1056.276,-77.348,166.408
1089.216,1065.548,-439.688
1274.9,1095.072,-793.488
904.02,1135.576,-664.656
471.896,770.796,-154.452
182.512,621.224,-23.424
101.504,917.44,-73.932
202.764,726.388,-16.104
207.4,733.708,72.224
237.168,880.108,119.316
335.988,981.856,142.252
343.064,1078.968,87.596
287.432,1127.036,30.256
211.792,1145.824,-34.892
198.372,1101.904,-34.16
224.236,1050.664,-0.732
262.788,1025.044,32.94
295.484,985.516,66.612
296.704,933.056,92.72
271.084,919.88,79.3
294.02,934.764,76.128
303.292,921.832,92.232
264.74,920.124,64.904
275.232,989.664,27.084
280.356,956.968,20.984
275.72,947.696,21.228
280.6,961.848,18.544
293.776,959.652,27.328
283.284,936.96,31.232
280.6,935.984,29.524
297.192,935.252,38.796
298.9,950.868,39.528
285.724,958.92,28.792
261.568,951.356,26.596
264.252,960.384,25.376
299.876,956.236,37.332
317.444,950.868,52.46
293.776,931.348,53.68
263.032,947.94,34.648
284.26,946.964,34.16
324.764,944.768,53.192
312.32,937.692,53.924
310.124,932.324,50.02
317.932,952.088,45.384
302.072,947.208,43.676
302.56,948.184,39.528
305.488,940.376,43.92
301.096,942.816,41.48
302.804,944.524,43.676
311.1,947.94,46.848
307.196,948.672,51.972
305.0,953.064,48.8
299.144,924.028,54.168
307.196,957.212,41.968
333.548,962.092,40.748
325.496,966.972,42.944
281.576,968.924,23.18
301.584,968.68,27.084
319.64,964.532,42.212
313.296,950.136,51.24
323.544,953.796,54.9
340.38,953.796,57.096
320.86,966.728,47.336
318.42,967.216,42.944
321.836,960.384,41.968
313.784,960.14,34.648
322.568,964.044,32.94
330.132,955.992,34.648
314.272,932.08,42.212
298.9,942.328,38.064
303.536,964.044,27.816
336.72,971.12,32.696
347.212,964.532,50.02
323.788,971.608,46.116
301.828,975.024,46.848
295.24,1013.82,41.724
346.724,1083.604,52.704
365.268,1124.352,63.44
376.004,1161.196,73.444
382.592,1201.456,77.104
346.724,1231.956,54.9
341.112,1266.848,35.868
357.704,1309.548,26.352
380.152,1326.628,11.712
373.32,1366.156,-5.124
368.44,1353.956,-34.648
419.924,1244.888,14.152
456.768,1146.312,84.18
468.724,1133.868,108.58
433.588,1074.576,108.824
365.268,980.636,104.92
385.032,927.2,140.544
386.74,958.92,141.764
369.904,980.148,101.992
307.44,960.384,84.668
246.928,992.104,43.188
264.008,943.304,39.04
298.412,928.664,83.936
282.552,941.84,57.096
215.208,940.62,29.524
165.676,914.512,24.888
160.064,895.968,30.012
181.048,857.904,68.32
175.68,872.3,48.312
131.516,886.696,27.084
76.616,890.6,8.784
32.94,871.568,-0.976
42.212,874.252,-7.32
57.34,874.252,0.0
61.0,877.668,7.564
19.032,846.924,-7.564
-64.66,807.152,-10.004
-118.828,809.348,-22.204
-107.604,847.412,-16.836
-61.244,863.272,-4.148
-11.712,844.24,7.076
-16.104,860.1,30.256
-22.692,917.196,-9.272
-30.5,907.192,11.224
-28.548,889.624,34.892
-58.072,804.712,58.316
-104.432,738.832,63.928
-136.64,716.14,48.8
-162.016,680.516,-8.052
-126.88,671.0,12.2
-12.688,783.484,-17.08
-70.516,805.2,-45.872
-193.492,807.64,-54.168
-230.58,821.304,-98.576
-191.296,874.008,-95.404
-164.7,899.384,-67.832
-121.024,962.336,-64.904
-125.66,977.464,-59.048
-108.824,977.22,-24.644
-57.584,1013.332,-39.528
-78.568,1013.576,-18.056
-80.276,1006.744,-10.004
-68.564,1024.068,-17.568
-94.428,1009.672,-5.612
-89.548,1010.404,-14.396
-55.876,1029.192,-30.256
-55.876,1023.336,-33.184
-81.984,1004.304,-26.84
-92.72,988.444,-21.96
-62.708,1005.768,-37.332
-63.928,998.692,-41.724
-81.496,985.028,-44.652
-71.98,999.18,-54.412
-74.908,992.836,-50.508
-95.892,962.58,-32.208
-90.036,951.844,-23.424
-73.2,971.12,-32.696
-58.316,993.812,-52.948
-71.736,1013.332,-75.396
-78.568,1002.352,-98.82
-66.368,1006.012,-79.056
-58.56,1006.744,-61.732
-85.4,977.464,-32.452
-98.576,969.9,-23.424
-111.264,965.996,-20.74
-103.212,971.852,-16.348
-84.668,994.3,-19.276
-83.204,995.764,-8.54
-80.764,977.708,-11.712
-71.004,1001.376,-14.884
-45.384,1026.02,-22.448
-47.092,1010.16,-10.248
-43.188,1012.356,-14.884
-57.34,1014.796,-45.384
-63.196,1026.264,-52.948
-53.436,1027.728,-63.684
-59.78,1009.428,-58.072
-57.096,997.716,-44.408
-36.6,972.828,-19.276
-25.376,968.68,-13.664
-34.892,969.412,-23.912
-37.088,970.876,-32.208
-48.8,974.536,-37.332
-64.904,958.92,-31.72
-74.42,957.944,-35.38
-61.488,989.42,-41.236
-50.508,994.544,-49.776
-57.34,996.74,-47.092
-53.192,1005.036,-44.652
-41.48,988.932,-24.644
-39.284,983.32,-12.444
58.56,1001.864,-29.524
-16.348,991.86,-4.392
2.196,1009.672,-28.548
24.888,982.1,3.416
-7.32,1006.744,22.204
77.836,1013.576,-41.724
133.956,1048.712,-116.388
52.216,1049.688,-109.068
35.624,1049.2,-180.316
-102.724,920.124,-69.052
-283.528,870.348,50.508
-108.824,752.74,145.912
-130.052,651.968,-60.512
135.664,278.404,22.692
672.22,14.884,826.428
1440.576,223.748,492.392
1803.648,559.736,-327.448
1310.524,355.264,-266.204
1316.624,134.932,-52.948
1500.6,-123.708,193.98
1202.432,-118.828,185.684
756.888,62.464,93.94
512.644,120.536,141.276
400.404,47.58,272.06
327.936,84.668,236.68
284.748,212.036,46.36
243.268,325.74,-134.2
246.928,356.24,-196.664
324.032,293.532,-158.356
468.968,176.168,-102.236
531.92,107.848,-57.096
548.756,86.62,-17.324
610.732,103.7,30.5
644.892,50.996,81.008
769.82,-44.408,164.212
893.284,-160.064,245.708
918.172,-203.252,276.94
963.312,-245.952,313.54
963.068,-267.912,332.572
1023.824,-313.54,366.732
1140.7,-402.356,427.976
1152.9,-435.784,371.856
1142.164,-453.352,323.788
1167.784,-453.108,325.252
1273.436,-497.272,413.58
1290.76,-526.796,439.688
1235.372,-532.896,373.808
1286.856,-564.616,390.888
1400.072,-586.088,417.972
1389.824,-569.984,474.58
1338.096,-541.436,532.408
1279.292,-542.168,568.032
1172.42,-520.452,524.6
1276.608,-489.464,528.016
1348.588,-480.924,542.656
1284.172,-408.7,614.636
1103.612,-297.192,636.596
954.772,-224.968,576.816
844.484,-235.948,525.088
951.844,-449.448,660.752
1347.612,-230.092,-131.516
1128.744,513.376,-347.212
1003.084,1087.02,-132.004
943.304,513.376,-210.084
800.076,492.636,-11.468
691.008,628.3,-58.804
473.604,898.896,-114.68
366.976,980.88,-60.756
469.944,742.98,33.184
456.036,750.3,101.504
352.336,820.084,53.192
356.484,898.408,14.396
327.692,905.484,15.616
315.736,935.496,-39.284
318.664,973.316,-58.804
355.264,1035.536,-68.076
371.612,1057.984,-83.936
393.572,989.664,-71.492
378.688,961.36,-62.464
371.612,974.292,-60.024
350.384,979.904,-67.832
319.64,987.956,-86.864
345.016,980.392,-86.864
356.728,957.7,-67.1
366.244,945.744,-43.188
354.288,922.32,-19.52
348.676,910.608,-7.808
381.616,930.86,0.0
382.592,921.832,14.152
349.408,891.332,11.468
355.508,899.384,14.884
361.364,921.588,14.396
357.704,941.108,7.564
373.076,935.74,17.08
369.904,910.608,27.572
375.516,891.088,36.112
394.792,907.436,36.112
396.256,939.4,27.816
386.496,943.792,19.52
379.176,938.18,15.128
373.808,941.352,10.98
375.272,915.0,17.812
382.836,895.724,20.74
370.148,892.796,7.808
359.168,928.664,-0.976
372.832,927.688,-0.976
412.604,924.516,12.444
416.996,922.808,14.396
392.352,922.808,7.564
361.608,917.196,0.244
379.176,942.328,2.928
392.352,939.156,6.832
393.816,920.124,14.396
388.448,920.856,16.348
399.672,924.516,19.276
412.116,924.76,27.816
411.384,937.448,34.404
395.28,944.768,32.94
402.356,968.192,31.476
414.312,982.1,32.208
413.824,1007.964,24.888
433.344,1055.544,18.3
442.86,1105.076,27.816
445.056,1108.98,24.4
477.752,1175.592,10.004
457.5,1219.512,-15.128
391.376,1204.872,-27.816
353.556,1253.916,-34.404
377.956,1297.348,-30.5
451.156,1301.984,19.032
458.476,1281.0,59.78
396.988,1248.548,58.56
395.28,1224.88,42.944
466.772,1202.432,32.696
506.056,1183.4,23.18
543.144,1278.316,33.672
541.924,1259.528,49.044
480.68,1133.136,46.116
500.932,945.5,105.896
553.636,874.008,190.32
517.524,934.764,183.732
456.524,993.568,114.192
362.584,982.832,96.136
396.012,908.9,115.412
482.388,823.256,178.852
486.048,835.212,189.344
453.352,866.2,170.312
368.928,883.524,140.788
330.62,918.416,65.392
317.2,857.904,35.38
282.796,718.824,145.18
265.228,750.788,154.208
284.748,814.472,120.78
243.024,824.232,85.4
271.816,829.6,48.312
288.164,858.148,64.172
150.304,821.792,20.496
165.188,796.172,40.016
138.592,803.004,25.864
135.176,819.84,-2.196
154.208,826.428,-9.028
112.484,842.532,13.42
101.016,799.832,17.08
41.236,766.648,37.088
-55.632,777.14,-18.056
-73.688,900.604,-67.832
-40.992,951.844,-106.872
-25.132,906.948,-55.876
-42.944,829.112,-8.54
-85.644,806.664,1.952
-156.16,794.464,-46.604
-204.96,879.376,-99.796
-115.656,925.248,-117.364
-62.464,911.096,-119.072
-105.652,852.78,-152.256
-169.824,799.344,-150.548
-213.744,751.276,-106.872
-272.792,768.112,-85.4
-154.696,830.82,-85.644
-192.028,765.916,-79.056
-255.224,705.892,-45.628
-215.696,731.024,-15.128
-198.616,770.796,-1.952
-172.264,786.656,10.492
-192.516,822.28,-3.172
-203.496,865.956,-25.62
-176.9,940.376,-51.728
-161.772,976.244,-51.972
-138.348,1005.524,-69.296
-154.94,1005.28,-60.268
-166.408,1014.064,-71.736
-129.076,1041.636,-78.568
-80.032,1071.648,-91.988
-49.776,1051.396,-92.72
-78.812,1011.136,-66.856
-93.208,982.588,-54.412
-107.604,970.876,-39.284
-88.084,998.204,-63.196
-167.14,983.076,-40.992
-114.436,979.172,-39.284
-81.252,999.912,-35.624
-50.752,1025.532,-45.628
-55.388,1008.696,-26.84
-34.16,991.128,-20.496
-34.892,992.104,-19.276
-46.116,1000.888,-35.136
-65.392,1005.768,-51.972
-80.764,996.496,-54.9
-70.76,993.08,-48.312
-66.368,994.788,-44.652
-73.932,993.324,-43.432
-74.176,986.004,-36.844
-55.388,1002.84,-41.48
-49.044,1005.28,-40.748
-62.708,989.664,-44.408
-80.52,977.708,-40.016
-73.932,975.024,-43.92
-40.504,995.032,-49.288
-26.596,992.348,-53.924
-60.268,973.56,-49.532
-86.132,975.268,-52.948
-66.124,981.124,-50.02
-49.288,969.9,-41.236
-28.304,975.512,-37.82
-71.004,969.656,-46.116
-55.144,980.88,-54.412
-60.756,980.636,-76.128
-143.228,958.432,-88.328
-240.34,909.388,-93.696
-161.04,811.788,-76.372
-56.608,765.184,-143.228
104.432,812.764,-135.42
503.128,823.5,-182.756
834.724,670.512,63.928
816.912,713.944,303.292
1064.084,520.696,-78.324
1261.724,706.136,-126.88
1109.956,536.312,-98.332
1006.744,382.104,34.648
844.24,246.44,131.516
525.088,231.312,152.256
301.828,218.38,125.172
359.168,167.628,94.428
511.18,99.796,126.88
504.348,105.652,19.764
447.74,203.984,-98.576
414.068,312.32,-214.72
373.564,336.476,-200.568
388.204,321.104,-130.784
417.972,251.808,-55.876
450.424,273.036,-23.912
505.324,241.072,16.836
566.324,165.92,20.74
733.952,118.096,26.108
898.164,35.38,106.14
959.408,-66.124,170.312
813.252,-126.88,214.964
874.496,-122.244,291.824
894.016,-101.016,192.028
877.912,-156.892,201.3
959.652,-244.244,310.612
1009.672,-334.036,370.392
965.996,-407.724,381.372
935.74,-406.016,399.184
958.188,-421.632,405.772
1109.468,-471.408,370.636
1305.888,-527.04,302.316
1365.18,-530.212,217.892
1473.028,-575.596,299.144
1579.412,-595.604,386.496
1705.804,-579.256,529.48
1701.656,-543.144,658.556
1629.676,-412.604,722.484
1526.464,-171.776,354.044
1467.904,-139.568,391.376
1704.584,-16.104,456.524
1592.1,57.584,165.92
1173.152,341.6,147.864
976.244,464.576,174.46
815.448,843.996,12.2
1071.892,1251.476,-284.26
866.932,846.436,-162.016
625.372,1001.132,-131.76
616.344,1047.492,-159.088
431.148,989.908,-72.468
394.304,984.784,-122.732
246.44,874.008,-90.036
235.704,755.912,-115.656
183.0,781.532,-79.544
223.992,879.376,-78.324
286.7,956.236,-81.496
302.56,929.152,-91.012
286.456,900.36,-89.06
268.156,914.268,-95.892
280.356,938.424,-99.552
323.3,954.528,-77.836
296.948,911.828,-68.564
283.528,923.052,-72.712
300.364,938.18,-61.488
299.388,957.456,-59.048
299.388,952.088,-69.784
331.352,940.132,-38.552
284.748,908.168,-39.528
259.128,915.976,-54.168
340.624,946.964,-41.236
355.264,935.496,-20.496
284.504,859.612,-29.768
282.308,861.808,-39.04
343.308,936.228,-32.94
358.68,976.976,-38.308
333.792,952.82,-41.48
317.2,952.332,-38.064
316.468,955.504,-36.112
307.684,943.548,-38.064
338.916,968.192,-42.7
358.68,1001.62,-45.628
350.628,982.344,-47.092
315.98,939.156,-53.436
320.128,937.692,-52.216
332.816,936.96,-55.388
346.236,930.128,-51.728
351.36,933.788,-48.8
335.256,923.54,-49.044
333.304,941.352,-46.36
331.84,945.744,-45.628
336.476,932.568,-37.576
328.424,924.028,-34.16
325.252,940.376,-33.672
339.892,957.944,-36.356
350.628,964.044,-30.012
336.72,938.424,-30.988
322.08,946.72,-39.528
326.228,956.724,-35.868
324.764,951.356,-34.404
326.472,943.304,-32.696
345.016,956.968,-35.624
357.704,968.924,-36.6
351.848,962.824,-32.452
333.792,937.692,-32.94
343.064,945.256,-33.428
347.7,963.8,-37.088
352.336,976.976,-35.868
361.364,979.416,-35.136
364.292,970.388,-32.696
333.304,972.096,-48.068
331.84,1036.756,-61.0
370.636,1128.744,-69.784
399.916,1174.616,-60.268
395.524,1202.676,-58.072
378.932,1186.816,-55.388
393.084,1181.692,-43.92
434.808,1199.504,-17.324
425.048,1151.924,4.392
421.876,1094.828,11.224
377.956,1056.276,4.88
343.552,1040.904,0.732
393.572,1034.072,24.4
438.224,1052.86,55.632
410.652,1107.516,47.58
352.58,1109.712,18.3
325.984,1144.36,2.44
358.68,1182.668,-26.596
426.268,1217.316,-0.488
434.32,1233.176,-8.784
417.484,1254.404,17.08
400.648,1175.104,-9.516
419.192,1080.432,13.176
462.136,994.544,77.836
400.404,982.588,80.764
274.744,968.68,48.068
219.112,964.288,14.152
246.44,947.696,10.248
316.712,915.488,49.044
306.464,915.732,57.096
230.336,903.532,14.396
166.408,911.096,3.66
188.612,912.56,-2.684
276.696,900.116,26.108
339.648,806.908,106.872
257.908,789.34,135.176
194.712,879.132,97.356
153.964,943.06,67.344
108.58,986.736,46.116
108.336,989.664,41.236
168.848,949.892,99.308
224.236,949.404,128.588
256.444,1027.972,109.8
319.884,1002.596,115.656
111.02,928.664,74.908
-3.904,886.208,82.228
-79.3,847.656,76.86
-60.512,898.896,39.284
-36.112,870.104,52.46
-28.792,813.984,79.056
-61.244,764.208,78.08
-97.6,705.648,94.184
-142.496,664.656,93.696
-213.012,615.612,108.336
-261.08,625.616,114.192
-286.944,627.324,84.424
-276.696,601.216,81.984
-286.456,587.552,92.476
-327.204,622.2,103.212
-339.404,669.536,104.92
-344.528,711.992,92.232
-364.048,711.504,86.376
-369.172,748.104,57.34
-326.716,866.932,24.888
-263.52,969.168,-5.368
-211.548,960.14,-5.612
-187.636,946.232,-11.956
-209.596,938.668,3.416
-211.06,983.564,-7.32
-233.02,1029.192,-32.696
-232.776,1054.08,-43.676
-199.592,1048.468,-17.324
-170.068,1017.724,25.132
-175.436,994.056,53.192
-207.4,1007.964,71.492
-236.924,1033.096,71.736
-199.104,1056.52,83.692
-166.408,1061.888,105.896
-186.66,1019.188,133.468
-238.144,977.952,130.052
-285.48,973.072,85.156
-294.752,965.508,55.144
-284.748,968.68,15.616
