acc_x[mg],acc_y[mg],acc_z[mg]
-2.684,967.216,147.132
-9.272,969.168,144.692
-23.668,973.072,143.472
-24.156,978.928,145.424
-17.812,978.44,156.16
-15.128,967.46,167.628
-26.84,960.384,178.364
-44.652,958.676,173.972
-46.848,970.632,168.848
-19.764,988.932,166.896
30.256,1001.132,158.844
59.536,998.692,154.208
55.144,986.736,148.596
31.476,977.708,147.864
7.076,967.704,151.036
-8.54,961.36,145.912
-29.036,956.48,139.568
-46.36,964.776,139.812
-29.768,983.808,150.792
14.396,1000.888,158.6
29.28,995.276,161.04
18.788,983.564,161.284
4.148,967.216,161.04
6.344,956.236,149.084
19.276,948.428,126.392
0.732,953.552,122.976
1.952,979.172,122.488
22.204,1008.452,117.608
46.604,1020.896,112.728
72.956,1018.7,102.48
77.348,1005.768,97.112
50.996,994.788,94.672
27.572,996.008,93.94
25.132,1000.644,93.208
32.94,1003.084,97.112
21.96,993.812,101.016
8.052,979.904,97.6
2.928,975.756,101.748
-3.66,982.344,108.824
-4.636,991.128,115.168
1.464,1003.084,121.756
11.712,1009.428,121.756
9.272,1007.476,121.268
6.588,990.396,117.364
-1.952,975.268,117.852
-12.2,967.704,115.412
-23.668,960.14,103.944
-34.892,956.724,94.916
-38.064,960.14,96.868
-23.912,972.096,100.284
-11.468,984.54,103.212
-2.44,993.812,102.968
8.54,997.716,100.528
5.612,996.496,100.528
6.344,994.788,99.796
2.196,990.64,97.6
-13.176,973.56,92.964
-34.648,963.556,93.696
-1.708,954.04,89.792
13.42,954.04,101.504
-15.128,949.892,113.948
-27.572,962.092,106.14
-29.768,976.488,133.468
-6.1,995.276,122.976
3.66,1003.816,121.512
8.052,1018.212,117.608
13.176,1011.624,111.02
4.392,999.912,99.552
-27.084,995.52,91.744
-51.484,996.984,97.112
-15.86,1011.868,90.524
17.568,1015.528,97.112
19.276,1005.036,96.136
-16.592,989.176,99.064
-56.608,989.42,109.068
-49.532,999.912,117.608
-41.968,998.936,119.56
-28.304,996.496,114.192
-17.324,985.516,110.532
-27.572,977.708,107.848
-34.16,974.536,109.068
-54.9,962.092,111.996
-82.96,946.232,113.46
-111.508,931.836,107.604
-121.268,920.124,98.82
-124.684,912.072,95.892
-148.108,900.116,92.72
-199.104,892.308,95.892
-257.176,877.668,93.208
-277.916,854.976,107.604
-294.996,835.212,117.608
-137.86,812.52,148.108
35.868,774.944,162.016
101.26,722.484,170.8
103.456,661.24,153.232
25.132,612.684,161.528
35.136,556.32,143.96
303.048,541.192,178.852
621.224,475.312,125.172
729.072,424.804,98.82
632.448,360.144,117.852
510.692,337.452,135.908
660.996,250.588,212.768
829.112,68.076,182.512
966.24,-49.532,148.596
1269.776,-77.836,158.356
1494.256,-172.508,133.956
1365.668,-223.748,180.072
1321.748,-327.448,211.304
1571.116,-435.296,258.884
1755.58,-434.076,234.24
1694.092,-378.932,204.716
1492.548,-312.808,214.476
1305.888,-236.192,179.34
1188.036,-191.54,152.012
1144.848,-196.42,146.888
1155.096,-192.028,146.644
1141.432,-193.736,146.4
1138.992,-196.664,172.264
1085.312,-203.008,173.24
1040.904,-202.764,181.78
1059.936,-206.668,205.936
1122.888,-216.916,232.776
1135.088,-219.356,244.488
1132.892,-211.792,234.728
1168.272,-180.56,223.992
1206.336,-159.332,238.632
1333.46,-133.224,254.736
1447.408,-132.98,266.936
1511.58,-134.2,250.1
1591.124,-111.752,247.66
1633.824,-84.668,251.076
1700.192,-81.008,236.68
1690.676,-53.924,183.0
1548.912,6.588,132.736
1433.5,60.756,72.224
1346.88,69.784,28.06
1260.016,83.448,10.248
1131.916,86.864,4.148
978.196,92.232,-8.54
865.712,98.82,-47.336
767.868,111.508,-97.844
703.208,139.568,-166.652
650.016,147.376,-239.852
539.484,170.068,-304.512
440.908,209.352,-361.852
357.704,245.22,-392.84
310.612,269.376,-408.456
236.436,282.552,-405.528
166.164,295.972,-388.692
118.584,313.296,-357.704
112.972,335.256,-322.812
145.18,372.832,-256.932
184.22,417.484,-188.124
186.416,437.98,-122.0
178.364,431.636,-74.908
229.116,430.66,7.564
328.18,420.412,105.652
368.684,416.02,229.848
417.972,373.076,343.308
471.164,334.768,511.424
555.588,360.388,688.812
692.716,322.568,840.824
822.524,292.8,1003.572
863.028,296.216,1155.828
872.544,310.368,1290.272
980.88,322.324,1324.432
1142.164,331.84,1278.072
1195.6,322.324,1204.14
1187.06,319.884,1092.388
1206.336,320.128,932.08
1256.6,312.32,749.324
1288.808,282.064,591.456
1356.396,280.112,340.38
1339.072,280.356,125.172
1271.484,293.288,-46.848
1251.964,322.812,-182.268
1207.068,321.836,-308.904
1175.836,343.552,-389.18
1156.072,359.168,-426.512
1101.172,364.292,-385.032
1070.672,379.664,-305.732
1087.264,343.552,-224.48
1118.496,327.692,-166.652
1161.684,332.572,-124.44
1229.76,358.924,-68.564
1217.316,404.064,-12.2
1181.936,440.908,37.332
1161.684,449.936,93.696
1150.948,456.524,134.932
1078.236,472.628,139.812
975.756,484.096,150.304
899.872,511.18,148.108
864.248,556.564,146.156
807.884,597.312,155.184
719.312,647.82,169.824
651.968,663.192,188.856
620.492,688.324,212.036
532.164,712.48,228.384
469.944,747.616,209.84
485.316,777.14,190.076
412.848,802.76,211.792
324.276,822.036,223.992
261.08,841.312,222.772
229.604,850.34,229.116
201.788,880.108,244.244
166.408,913.048,254.248
103.7,856.44,267.18
29.28,774.7,235.948
-183.976,776.896,203.74
-307.44,872.056,157.624
-192.272,969.9,66.856
-123.952,1005.036,25.864
-199.104,989.176,-34.16
-355.508,935.984,-100.772
-471.896,893.04,-132.248
-448.96,878.4,-127.124
-343.796,895.236,-128.588
-265.472,927.688,-97.356
-272.304,933.3,-43.188
-257.908,934.276,0.488
-237.656,932.568,24.4
-206.424,936.96,24.156
-148.84,985.028,17.812
-138.348,999.18,-3.904
-173.24,1014.796,-15.616
-177.876,1026.996,-13.664
-158.356,1033.828,-6.1
-147.132,1000.4,20.496
-172.996,958.676,40.504
-176.9,936.472,51.484
-183.732,937.448,51.24
-199.348,944.524,38.064
-183.0,959.652,24.4
-168.36,967.46,9.272
-162.26,967.216,-4.148
-161.284,965.508,-29.28
-181.78,958.188,-40.748
-203.008,954.04,-36.6
-191.296,948.916,-35.868
-192.028,950.868,-24.888
-200.08,971.852,-1.952
-189.588,998.692,28.304
-181.048,998.448,45.872
-164.7,971.608,44.896
-145.424,950.624,34.404
-156.648,953.552,13.908
-184.22,987.224,6.588
-196.176,1024.312,8.54
-163.236,1035.048,1.952
-121.756,1016.992,-12.932
-111.996,995.52,-33.184
-123.708,970.144,-49.776
-140.056,958.676,-51.972
-166.408,955.016,-42.944
-180.804,959.164,-32.94
-193.248,954.772,-20.74
-198.86,953.308,0.488
-203.496,951.112,18.3
-204.472,949.404,32.94
-172.752,965.508,33.184
-162.992,978.44,32.452
-148.108,987.224,28.792
-116.632,988.932,12.688
-112.24,985.272,-10.248
-152.012,977.708,-29.28
-185.44,971.852,-36.112
-202.764,980.148,-23.424
-213.744,976.0,3.172
-208.132,964.044,26.108
-184.708,948.184,38.308
-162.992,941.596,41.724
-158.6,936.96,32.94
-168.604,946.72,23.18
-169.336,969.656,10.004
-173.972,992.592,5.124
-177.632,993.812,3.66
-176.168,984.052,9.76
-175.924,975.756,23.18
-165.432,971.12,21.472
-166.652,962.824,25.864
-172.02,964.044,22.692
-158.356,974.292,7.808
-136.396,987.712,-10.736
-128.344,996.008,-26.108
-130.784,1003.572,-30.988
-149.084,1000.888,-28.304
-172.264,991.86,-13.908
-172.996,986.98,-0.244
-174.704,971.364,2.928
-176.9,963.8,7.808
-195.932,949.404,14.152
-198.372,942.328,20.252
-197.152,934.764,23.18
-194.468,936.472,22.448
-186.66,949.648,17.812
-158.112,971.12,10.98
-134.688,994.788,6.588
-111.02,1021.14,6.1
-58.804,1035.292,3.904
-39.528,1029.192,8.54
-59.048,1007.964,4.636
-102.236,989.664,-3.416
-143.228,978.44,-3.416
-158.356,975.268,-1.708
-163.724,965.264,0.488
-155.916,965.508,12.688
-141.764,967.948,17.324
-164.7,954.04,26.108
-183.976,954.284,28.548
-185.196,962.824,27.572
-186.904,976.0,22.936
-175.192,982.344,17.324
-169.092,982.588,13.176
-151.036,986.004,1.708
-158.356,981.124,-2.44
-164.212,979.416,-2.684
-192.516,980.392,1.952
-204.96,986.736,10.98
-186.416,983.32,21.96
-156.16,974.292,21.96
-148.108,955.504,13.908
-161.04,945.256,14.64
-260.348,925.004,0.0
-364.048,910.608,-0.488
-407.968,900.604,-7.076
-350.872,870.104,-1.708
-214.232,844.484,11.468
-120.292,787.144,7.564
-78.324,747.616,-0.732
-132.004,711.26,-14.152
-150.792,660.508,-24.644
36.356,605.364,-14.884
217.892,536.8,-32.208
343.308,454.572,12.932
307.684,373.32,36.844
418.704,294.02,15.616
624.64,246.684,-33.184
766.16,172.996,-28.548
815.936,67.832,57.584
1095.072,-84.424,67.1
1268.312,-141.032,116.632
1307.84,-164.7,121.024
1395.192,-245.708,188.368
1441.064,-270.596,218.38
1553.06,-302.072,261.812
1755.824,-284.748,234.484
1733.376,-272.06,239.364
1578.192,-198.616,223.26
1378.6,-123.464,176.9
1229.272,-63.196,131.76
1247.328,-61.732,100.04
1306.376,-125.66,108.824
1288.808,-184.464,132.98
1260.992,-160.552,135.42
1233.908,-131.028,166.896
1304.668,-88.328,142.74
1436.916,-32.94,102.236
1497.428,-10.492,74.908
1489.864,-15.372,72.712
1551.352,-15.128,90.524
1610.156,6.1,90.768
1635.044,22.448,123.22
1650.172,39.04,128.832
1630.408,25.864,86.132
1519.388,26.596,48.556
1380.552,44.896,32.696
1277.096,58.56,16.348
1161.928,39.772,5.612
1027.484,36.112,-38.796
883.036,53.924,-86.62
752.984,80.52,-154.208
664.656,131.516,-256.688
605.364,156.892,-321.836
526.552,181.78,-338.916
449.936,192.272,-354.532
394.304,210.572,-360.388
348.432,250.588,-367.464
321.836,275.232,-366.0
306.464,311.1,-361.364
295.24,346.236,-340.868
262.056,364.78,-306.952
245.22,413.092,-279.868
249.368,448.96,-207.4
250.1,465.796,-129.076
288.896,447.74,-50.02
370.88,429.44,54.656
429.44,419.436,164.456
441.152,412.604,269.376
426.024,403.332,382.836
490.928,373.564,455.06
573.156,375.516,512.4
685.152,431.148,596.58
708.332,454.572,698.572
723.704,418.948,815.204
803.004,396.988,909.876
936.472,371.368,984.296
995.276,374.296,1010.404
1059.204,414.312,1003.328
1132.16,432.124,921.832
1172.176,454.084,813.496
1178.764,467.748,726.144
1171.2,432.124,672.952
1179.008,385.276,599.264
1186.572,317.932,502.152
1191.452,301.584,378.2
1142.896,298.168,269.132
1111.664,300.12,146.644
1104.1,306.952,48.8
1111.664,326.472,-92.964
1131.916,340.624,-195.932
1084.336,330.132,-259.372
1082.384,350.872,-331.352
1084.824,359.9,-380.152
1074.088,335.5,-346.236
1047.004,325.984,-279.136
1038.22,324.032,-195.2
1030.656,294.752,-122.488
1017.236,278.404,-62.708
998.204,298.168,-5.124
968.192,321.592,26.596
970.876,336.72,36.112
1028.46,355.508,55.876
1144.848,351.604,78.324
1249.768,365.024,88.572
1238.788,353.556,110.532
1180.716,361.12,138.104
1063.108,364.78,150.304
1083.604,414.556,147.864
1106.052,459.94,133.224
1128.256,498.004,130.784
1095.316,501.176,147.376
978.928,527.772,157.868
851.072,559.492,142.74
754.936,609.268,137.128
774.7,669.78,111.996
752.74,705.404,92.232
700.036,732.244,93.208
682.712,751.764,98.82
612.928,765.916,127.124
550.22,780.8,125.66
511.668,802.272,127.612
486.536,823.5,120.048
431.148,846.192,110.532
366.732,851.316,102.48
311.588,865.956,101.016
244.0,891.82,87.352
208.132,902.312,70.76
176.656,894.016,42.212
154.696,895.724,32.208
122.244,903.044,34.16
62.22,901.092,36.6
-23.668,906.704,41.48
-68.076,902.8,49.044
-94.916,899.872,54.9
-132.736,880.108,48.312
-98.332,879.864,18.788
-62.22,892.552,21.716
-88.816,899.14,50.996
-143.228,900.36,76.372
-180.316,903.532,99.308
-164.212,916.952,123.708
-159.088,941.352,141.764
-203.252,933.056,154.696
-280.112,913.048,149.084
-321.104,919.88,139.324
-305.0,958.92,111.264
-282.308,984.54,99.796
-269.864,1010.648,116.388
-257.908,1022.848,131.272
-276.208,982.1,140.056
-269.376,939.644,143.96
-234.484,928.176,141.032
-203.74,947.94,135.664
-172.996,989.664,110.044
-152.012,1008.696,87.352
-148.108,1007.476,64.416
-162.748,1001.62,51.484
-165.92,997.228,37.576
-149.328,1006.988,42.7
-156.16,996.252,64.416
-195.688,969.656,90.524
-251.564,931.104,114.192
-263.52,915.732,127.856
-240.34,933.788,138.104
-208.62,952.82,135.176
-173.972,960.872,115.656
-149.816,975.756,93.208
-138.592,991.128,69.052
-166.164,996.74,63.684
-172.752,996.008,59.536
-166.408,984.54,62.952
-175.192,971.12,69.784
-155.428,967.46,68.32
-173.972,954.772,73.688
-221.308,934.764,72.956
-241.072,924.272,68.808
-239.852,928.908,62.708
-219.112,949.404,55.144
-193.736,962.092,64.66
-163.236,976.976,60.268
-167.872,978.684,54.656
-179.828,981.124,44.652
-193.004,983.808,40.26
-208.376,978.44,41.236
-208.62,963.556,47.58
-200.324,959.164,56.608
-189.832,961.36,65.636
-188.124,951.112,64.904
-189.832,945.5,61.244
-189.1,949.892,54.9
-184.464,965.02,55.876
-181.536,974.292,48.8
-185.196,976.488,47.336
-198.86,965.996,43.92
-216.428,958.92,44.652
-222.528,955.016,51.484
-202.276,964.776,59.292
-193.98,969.656,69.296
-187.88,963.556,75.152
-173.728,956.968,72.712
-178.852,959.896,74.664
-191.296,963.8,59.536
-199.348,964.532,50.508
-200.812,966.484,48.8
-191.784,973.316,57.34
-197.64,969.168,60.512
-202.032,965.508,68.808
-201.056,966.484,78.324
-188.368,969.168,81.984
-189.588,972.584,77.104
-193.248,970.632,69.54
-184.22,969.9,60.024
-179.584,968.192,55.144
-186.904,966.728,57.096
-189.832,960.628,57.584
-188.856,960.14,54.9
-203.252,957.212,52.216
-193.736,967.216,44.652
-205.936,960.872,40.016
-220.576,957.212,43.188
-255.224,949.404,52.216
-275.72,939.156,67.344
-308.904,919.392,81.74
-402.112,897.432,84.668
-456.524,872.3,100.04
-453.108,834.236,100.04
-443.104,787.876,95.404
-406.26,766.16,100.528
-401.868,754.204,95.892
-386.496,750.788,107.36
-256.444,720.776,95.648
79.056,647.332,73.932
449.692,622.688,9.76
552.416,598.776,-62.22
439.444,570.716,-29.524
354.044,535.824,-33.428
689.544,491.416,-46.604
1047.004,405.284,-137.616
1192.672,377.956,-101.504
1052.372,306.22,-64.172
993.812,309.392,-67.344
1057.008,340.38,-113.46
1247.328,303.78,-117.12
1379.088,213.744,-84.912
1423.008,135.664,-65.148
1352.004,97.844,-22.936
1204.872,123.22,29.28
1156.072,160.796,53.924
1148.264,172.02,62.708
1155.584,158.356,45.384
1151.436,143.96,60.268
1106.54,143.472,62.464
998.692,150.792,46.116
875.472,169.092,0.976
965.996,168.116,17.324
1107.516,134.688,17.568
1151.192,115.168,23.18
1086.532,111.752,40.504
978.684,151.524,40.992
865.224,193.004,32.208
852.78,194.224,32.94
1021.628,144.936,53.436
1186.328,111.264,64.66
1261.968,126.88,84.424
1340.78,169.824,86.864
1407.88,196.176,73.688
1524.024,188.856,50.02
1640.412,216.428,22.448
1761.924,204.716,6.832
1822.192,177.876,-30.988
1748.992,213.988,-72.468
1641.388,254.736,-107.36
1521.096,274.5,-105.652
1376.648,275.476,-115.9
1247.084,278.404,-115.656
1145.824,262.788,-109.068
1049.688,236.924,-124.928
949.892,228.872,-141.276
824.964,243.268,-141.276
715.896,250.832,-155.672
641.72,256.2,-178.364
598.288,266.936,-188.856
566.812,270.596,-209.596
534.116,287.676,-238.388
498.98,323.544,-279.868
474.824,373.32,-326.96
427.244,413.824,-345.016
382.592,437.492,-353.068
353.556,452.376,-342.82
329.4,456.524,-332.084
323.056,476.044,-291.824
316.712,494.1,-254.248
241.56,480.436,-244.976
218.868,535.336,-158.6
184.708,534.36,-87.108
223.504,517.28,-6.588
321.836,493.368,92.964
389.424,468.48,200.812
360.388,476.532,295.972
265.96,492.636,374.54
244.488,514.108,430.416
419.924,546.072,480.68
562.176,558.516,540.46
632.448,566.812,615.856
655.384,520.94,689.788
729.316,522.16,755.424
806.176,528.016,785.68
916.952,533.384,760.06
1029.924,536.556,728.34
1102.148,548.024,709.796
1065.548,566.324,714.92
1027.24,557.052,704.916
1057.252,526.796,684.664
1195.844,517.768,605.608
1273.436,518.012,529.724
1235.372,502.396,477.508
1146.068,481.412,408.7
1095.56,444.568,278.404
1132.404,413.58,151.768
1207.556,428.952,2.684
1152.656,422.608,-71.248
1047.736,397.964,-120.292
1013.332,365.512,-193.004
1021.628,354.044,-258.884
1090.436,379.176,-270.84
1124.84,390.4,-272.548
1067.256,401.624,-278.648
976.488,409.188,-223.504
932.568,403.576,-157.868
954.04,401.38,-108.824
1019.676,384.056,-73.932
1059.448,396.744,-29.036
1049.2,421.632,5.856
1034.072,450.424,32.94
1056.52,468.48,54.168
1105.32,480.192,68.808
1120.936,502.64,80.032
1088.972,508.008,64.416
1049.2,506.788,59.536
994.788,522.404,59.78
966.972,538.996,50.264
909.876,583.404,23.424
814.228,616.588,5.856
725.168,654.164,-11.956
657.092,683.444,-13.176
583.648,720.044,6.588
532.896,764.94,32.94
521.184,806.42,59.292
538.02,836.92,85.4
583.16,875.716,105.164
567.544,907.68,136.64
497.76,919.392,182.756
468.48,920.124,200.08
399.672,903.044,200.568
328.18,891.82,196.176
257.908,898.652,184.952
209.108,893.772,179.096
184.952,915.488,180.804
188.124,927.932,187.88
211.304,935.984,185.196
219.6,924.76,173.972
201.788,905.484,156.648
155.428,889.624,161.04
112.484,876.448,180.072
37.82,865.468,198.86
33.428,859.124,188.124
51.24,866.688,186.416
14.884,858.392,206.424
-45.628,849.364,218.868
-86.62,843.02,195.932
-106.872,860.588,168.848
-104.676,909.388,156.892
-144.692,968.192,161.04
-177.388,1024.312,166.896
-167.628,1059.936,154.208
-123.952,1066.036,123.708
-54.656,1062.132,107.848
-31.476,1044.32,100.04
-54.168,1010.648,86.376
-90.768,979.904,78.08
-113.948,968.924,73.2
-111.752,965.264,57.584
-116.144,961.116,48.8
-133.224,958.92,54.656
-115.9,959.652,62.708
-81.74,955.26,64.66
-34.16,949.16,54.412
-36.844,951.6,51.484
-69.052,967.948,58.316
-70.028,994.056,64.66
-66.612,1017.236,67.344
-58.072,1024.8,78.08
-50.508,1023.58,95.404
-49.532,1008.452,108.824
-69.296,984.296,112.484
-77.348,972.096,108.336
-90.768,971.608,102.968
-111.264,966.728,89.792
-112.24,977.464,76.372
-113.704,989.664,75.396
-110.044,991.616,76.128
-100.04,980.88,73.2
-104.432,974.536,77.348
-111.996,980.88,77.348
-120.292,980.392,84.18
-119.316,977.464,90.768
-112.484,981.856,96.624
-121.024,979.66,97.356
-120.292,976.488,101.504
-113.216,969.168,98.82
-110.776,962.58,91.988
-114.436,969.9,83.936
-125.416,982.588,71.492
-112.728,990.152,68.076
-90.28,999.912,62.22
-74.664,1002.596,58.072
-81.008,998.936,52.704
-98.332,986.492,43.676
-113.46,979.416,44.896
-125.904,978.196,52.216
-122.488,976.244,61.976
-118.828,974.536,72.712
-116.632,962.824,76.128
-111.508,950.624,79.3
-108.092,952.332,83.448
-102.968,965.508,84.424
-114.68,971.364,78.08
-116.144,980.636,77.592
-107.36,981.124,72.956
-87.84,984.784,69.296
-62.952,997.716,69.784
-40.504,1010.648,66.124
-38.064,1006.988,54.9
-52.704,1002.596,42.456
-70.028,998.936,38.552
-71.248,997.472,32.452
-70.272,996.252,29.036
-63.928,993.812,24.4
-70.516,982.1,26.596
-77.348,971.608,27.816
-79.544,967.948,26.596
-72.468,977.22,27.572
-52.46,994.3,28.304
-49.044,996.74,25.376
-49.288,992.836,23.912
-59.536,991.616,29.036
-75.396,987.712,34.648
-86.132,987.956,43.676
-112.24,986.736,49.288
-134.2,991.616,60.268
-131.028,1006.012,74.176
-130.296,1014.552,78.812
-125.416,1025.288,86.376
-166.652,1027.728,85.644
-235.46,1010.404,75.884
-266.204,983.564,62.464
-297.192,940.864,45.14
-336.72,901.092,41.48
-371.612,880.352,44.896
-285.236,832.528,46.116
-272.06,777.384,49.776
-329.4,721.508,37.576
-262.056,693.448,48.312
-244.488,648.308,42.944
-112.728,645.624,67.344
75.396,595.848,62.952
216.672,543.876,63.196
384.544,480.436,85.644
385.52,384.788,74.42
494.1,335.256,103.944
624.884,260.836,80.764
752.252,235.216,152.744
881.816,177.388,164.944
1046.76,93.452,118.828
1221.952,8.296,111.508
1273.68,-26.84,198.616
1267.336,-29.28,176.412
1367.376,-45.14,130.052
1465.708,-116.632,154.696
1517.68,-189.344,201.544
1550.376,-233.264,238.144
1461.804,-192.76,228.872
1360.056,-126.148,183.488
1298.812,-60.512,120.78
1246.596,-65.88,115.412
1154.852,-91.012,114.68
1140.212,-140.544,134.688
1120.448,-168.604,165.432
1092.388,-146.644,163.236
1066.28,-112.24,136.396
1072.624,-91.256,132.492
1153.876,-108.336,165.188
1173.64,-144.204,213.744
1214.388,-164.456,258.64
1309.792,-161.772,301.096
1379.088,-117.852,335.256
1499.868,-108.092,363.072
1717.76,-142.984,365.756
1863.916,-135.42,361.12
1954.928,-94.428,315.736
1972.252,-85.644,297.68
1846.592,-104.92,257.908
1779.98,-89.792,176.9
1661.884,-114.192,95.404
1457.656,-102.724,34.648
1237.812,-86.62,-17.08
1026.996,-81.74,-79.788
829.844,-50.996,-102.724
699.304,-17.812,-132.98
543.144,4.148,-146.156
431.636,48.8,-173.728
364.292,107.848,-200.324
285.236,148.352,-218.136
254.004,199.592,-250.344
265.716,238.144,-308.66
266.936,294.752,-378.688
285.236,359.412,-406.748
263.764,412.36,-396.256
236.192,444.08,-381.128
191.296,446.032,-356.24
231.8,485.804,-282.064
270.352,509.228,-172.752
300.12,473.848,-68.076
266.936,442.372,71.736
202.032,431.148,216.672
306.22,410.408,319.152
488.0,401.624,402.6
550.22,438.956,495.32
516.06,460.672,588.528
436.028,440.908,679.784
489.708,429.44,775.188
661.24,458.232,834.236
825.696,442.128,896.944
846.68,436.272,936.228
831.064,462.624,926.468
887.916,475.556,870.592
981.368,492.636,842.288
1005.524,451.4,836.676
1062.62,440.176,833.016
1083.116,394.304,762.256
1143.872,373.808,650.26
1148.508,399.428,610.488
1079.7,387.716,598.044
1064.816,360.876,513.376
1136.552,380.152,334.524
1085.556,380.152,279.38
1084.336,349.164,229.848
1182.424,324.52,61.244
1259.528,291.092,-76.128
1211.704,283.284,-59.78
1134.6,279.38,-50.264
1087.752,278.892,-114.192
1079.944,300.608,-191.784
1035.78,344.528,-188.124
976.0,374.54,-132.492
927.444,343.064,-82.228
997.472,314.028,-104.188
1023.824,307.44,-71.492
1038.708,329.4,-24.888
1017.48,353.068,18.544
1021.14,349.164,74.664
1069.208,329.4,136.396
1116.544,304.268,198.372
1149.484,288.896,253.272
1178.52,294.752,274.988
1212.436,285.236,286.212
1205.116,279.38,298.9
1159.732,299.388,298.168
1146.8,337.94,277.428
1118.984,389.18,239.608
1067.744,421.632,232.044
1046.272,473.848,205.936
1036.756,506.544,173.728
998.204,529.48,184.952
904.264,574.132,196.176
842.532,615.612,161.772
756.888,646.6,150.304
668.804,666.608,152.5
573.888,707.844,141.276
521.428,745.42,117.608
529.968,781.044,125.416
536.068,823.744,152.988
449.204,828.868,160.064
369.172,828.624,163.236
294.996,822.28,156.648
258.396,823.988,157.868
235.948,848.632,169.092
196.42,854.244,164.456
88.084,833.748,172.752
14.152,815.448,153.964
26.352,833.504,97.6
74.176,842.044,64.904
37.332,870.836,50.508
-51.972,896.456,30.744
-132.736,903.532,14.64
-189.588,914.756,-1.708
-222.528,916.708,-11.468
-249.612,924.028,-14.396
-294.996,925.98,3.416
-362.828,931.836,51.484
-349.408,940.62,77.104
-315.736,936.716,106.384
-260.836,940.62,117.364
-221.796,952.088,111.752
-172.02,972.096,118.096
-148.596,994.544,123.952
-153.232,988.444,102.968
-174.216,977.22,97.6
-197.884,970.632,95.648
-190.32,957.456,78.812
-174.216,957.944,60.268
-164.456,974.536,45.872
-156.648,987.956,38.308
-168.116,1001.132,45.628
-170.556,1005.28,44.408
-188.612,987.712,57.828
-167.384,983.564,75.152
-131.028,988.688,91.5
-117.364,987.468,106.384
-123.22,973.316,99.796
-163.724,945.5,84.424
-200.324,935.984,75.396
-185.44,946.476,63.196
-163.724,969.656,46.848
-142.008,986.004,32.94
-146.644,996.008,37.088
-156.404,995.764,41.968
-169.092,984.296,41.724
-181.78,970.876,41.724
-177.632,966.972,42.212
-176.412,965.996,39.772
-184.22,966.484,42.944
-189.832,965.02,44.408
-175.192,966.484,45.872
-167.384,965.752,51.24
-155.916,961.36,45.628
-152.5,953.796,38.796
-159.576,966.484,37.088
-158.112,982.832,32.94
-156.892,982.344,22.204
-165.188,972.584,16.104
-177.876,973.804,23.424
-180.072,973.804,31.964
-172.264,974.048,40.992
-163.724,973.804,44.164
-149.328,966.24,45.384
-142.008,964.532,49.288
-147.132,965.02,42.456
-159.332,970.144,27.816
-158.6,981.368,18.3
-144.448,998.936,15.128
-130.296,1004.304,16.348
-137.128,995.52,23.668
-162.504,981.856,22.936
-183.488,963.8,20.496
-202.52,954.04,32.452
-198.128,958.676,40.016
-173.728,968.68,44.408
-178.364,960.14,44.652
-175.192,957.212,51.24
-166.408,956.724,47.336
-176.412,958.92,40.504
-176.656,967.704,34.404
-166.652,968.924,27.816
-164.7,978.44,31.964
-157.868,982.1,26.84
-161.772,975.756,22.936
-168.36,972.584,23.912
-178.852,973.804,29.524
-181.292,974.78,26.596
-183.0,974.536,27.328
-183.488,964.776,31.964
-178.12,963.312,39.528
-169.336,958.676,50.02
-168.36,952.82,48.556
-162.016,953.552,37.576
-141.764,968.436,36.6
-106.14,992.592,26.596
-84.912,1002.84,4.636
-108.824,999.424,-8.54
-133.956,1000.644,-16.836
-160.796,992.104,-18.788
-182.024,986.736,-13.42
-186.66,980.88,-1.952
-176.656,966.972,14.152
-159.088,965.02,31.232
-162.016,957.944,42.7
-158.356,958.432,39.284
-146.4,969.168,40.748
-130.052,979.904,38.552
-136.884,981.368,33.916
-159.576,973.56,20.984
-175.924,971.608,4.88
-193.98,965.996,-1.708
-195.2,971.364,2.684
-183.976,971.608,10.248
-180.072,963.556,21.96
-191.54,951.844,26.84
-209.352,942.816,32.452
-268.156,938.668,40.26
-355.508,929.396,48.556
-383.812,923.784,61.732
-319.396,896.456,71.492
-259.86,879.864,77.104
-247.66,871.324,90.768
-205.204,850.34,98.576
-240.828,836.188,67.588
-169.824,822.036,75.64
-56.12,790.56,73.2
82.228,774.944,89.548
254.004,784.216,116.388
296.216,758.352,100.772
273.524,751.276,64.172
355.752,759.572,64.172
426.024,758.108,45.384
527.284,732.976,54.9
600.484,691.74,36.356
590.48,626.104,4.636
547.536,613.172,3.66
539.24,594.628,26.84
701.012,495.564,31.476
844.484,476.044,26.596
923.54,420.9,7.32
873.764,367.22,-15.372
851.316,344.284,-15.86
896.456,308.416,-35.868
910.608,245.708,-34.404
997.472,189.1,-14.152
1111.908,112.484,25.62
1202.432,36.356,34.892
1109.224,-36.112,46.848
1119.472,-61.244,86.132
1300.52,-113.216,130.296
1362.74,-109.312,119.072
1355.908,-143.472,110.288
1250.988,-111.996,72.224
1222.684,-87.352,85.644
1218.536,-102.236,89.792
1299.056,-156.404,91.012
1351.028,-208.62,96.868
1377.136,-213.012,106.628
1285.392,-200.812,136.396
1225.856,-158.844,123.464
1246.84,-141.764,123.464
1277.584,-152.988,142.496
1320.528,-143.228,180.072
1446.432,-144.692,233.508
1615.524,-147.132,242.048
1676.28,-75.64,227.164
1671.888,-31.72,194.224
1724.348,-21.716,138.348
1715.564,-24.4,81.74
1609.912,-19.764,28.548
1518.9,8.54,32.208
1389.824,-17.812,10.004
1225.124,3.416,-11.224
1061.888,42.7,-11.956
931.348,90.036,-35.38
844.972,108.092,-32.452
664.9,133.468,-93.696
643.916,245.708,-98.088
644.16,244.976,-123.952
666.364,265.472,-164.456
414.8,249.368,-240.34
307.928,424.316,-255.224
349.408,492.148,-346.724
430.172,522.892,-461.404
473.604,528.26,-451.156
443.836,506.788,-416.264
220.576,474.092,-411.628
133.468,554.124,-359.656
216.428,575.596,-331.352
310.856,561.688,-287.432
368.196,559.248,-186.66
297.68,485.316,-91.5
-59.048,412.848,-16.592
-89.06,460.916,91.988
148.352,458.476,163.236
281.088,441.64,289.384
222.04,422.364,420.656
120.048,387.96,580.232
173.24,346.968,722.972
532.652,370.88,867.42
691.252,379.42,1005.28
708.82,378.688,1088.24
776.408,361.364,1117.52
958.676,427.488,1087.264
1059.204,479.216,1058.716
1079.212,493.124,1016.016
1051.152,484.34,957.456
1138.504,488.0,874.252
1232.932,472.628,780.556
1231.468,434.076,689.788
1212.924,410.896,521.428
1171.2,455.304,317.932
1105.076,477.996,176.9
1100.196,464.82,132.492
1096.292,448.228,125.172
1079.7,455.792,18.544
1015.284,475.8,-87.352
980.148,503.86,-122.732
981.124,517.524,-168.848
990.884,555.1,-250.344
1003.084,551.928,-311.344
1023.336,550.952,-276.452
951.844,529.236,-207.888
935.74,520.452,-131.516
965.752,494.1,-55.388
977.464,479.704,18.788
1017.724,476.776,84.912
1083.116,475.068,144.692
1029.192,458.232,192.516
1015.04,482.876,216.428
1090.192,511.18,222.528
1130.696,543.144,218.624
1146.312,547.536,214.476
1141.676,542.412,223.016
1086.532,534.604,228.384
1002.84,545.828,228.384
921.1,589.992,241.072
858.392,620.736,256.688
833.26,639.28,237.168
817.644,662.216,229.36
766.16,701.012,217.892
657.824,723.216,196.176
568.276,737.368,205.692
548.268,762.988,192.028
542.412,791.292,174.216
535.58,802.272,189.588
497.76,817.4,188.368
365.268,806.42,199.348
268.4,815.692,163.724
211.304,829.844,134.2
147.132,860.1,117.852
100.04,872.3,101.26
89.304,885.232,74.664
60.024,894.26,53.436
-17.324,889.868,72.956
-51.728,891.332,71.492
-91.744,879.376,64.172
-139.08,857.416,61.244
-209.352,861.076,70.272
-259.372,865.712,76.616
-273.28,864.248,68.564
-279.136,856.196,43.92
-315.98,864.004,42.7
-337.452,884.744,48.8
-305.488,923.296,50.02
-279.38,955.016,61.976
-266.448,969.9,76.128
-291.336,969.656,92.476
-313.784,947.696,103.7
-267.18,942.328,102.968
-205.448,965.752,102.968
-172.02,997.228,97.844
-179.584,1002.84,87.84
-177.144,994.056,83.936
-163.48,975.512,61.976
-147.62,958.92,45.872
-120.78,964.044,34.16
-91.988,983.076,42.456
-92.964,993.324,42.212
-110.532,982.344,36.356
-123.464,974.78,32.208
-145.668,964.776,37.088
-157.38,965.996,37.82
-169.824,968.68,36.356
-181.536,971.852,37.576
-179.828,981.368,37.088
-174.704,980.636,37.82
-164.212,973.804,38.552
-158.356,974.536,41.968
-145.668,974.048,39.528
-136.152,970.632,32.696
-131.76,980.636,32.452
-145.424,983.564,35.624
-158.6,979.904,34.16
-163.236,963.556,22.692
-163.48,964.532,20.984
-167.628,970.144,27.328
-170.068,976.244,39.04
-166.652,968.436,46.604
-133.224,975.268,57.096
-131.272,972.34,61.0
-133.712,967.704,62.952
-156.16,962.336,49.532
-163.968,965.508,29.28
-173.728,977.22,22.936
-151.036,989.664,21.228
-137.86,993.812,25.132
-152.988,980.392,32.94
-158.6,971.608,35.38
-167.628,958.676,37.576
-162.016,964.044,43.92
-153.476,970.632,43.676
-146.4,972.828,35.38
-147.376,974.536,37.576
-131.76,981.612,40.016
-133.956,985.272,37.332
-143.472,982.344,31.232
-155.428,980.148,34.404
-148.108,983.32,39.04
-137.616,985.516,37.82
-149.084,979.904,36.6
-158.6,972.828,40.504
-155.672,969.656,46.848
-160.064,964.044,41.724
-163.236,968.436,40.016
-163.236,967.704,47.336
-160.796,965.264,49.532
-154.452,965.752,49.776
-153.476,968.192,45.872
-149.084,973.56,48.556
-144.936,978.44,50.264
-150.792,982.1,51.728
-157.624,981.124,49.288
-153.72,976.732,44.896
-157.136,977.22,48.068
-160.064,983.564,54.412
-163.236,979.66,57.828
-166.652,969.412,53.192
-176.656,958.432,49.776
-181.048,953.796,48.8
-168.116,955.26,45.628
-140.544,952.82,35.136
-127.612,953.552,35.624
-102.48,969.9,48.312
-88.328,980.148,47.824
-84.18,981.368,38.308
-90.768,996.008,37.088
-98.088,1008.94,38.064
-94.672,1016.992,35.38
-106.872,1015.772,35.38
-122.244,1011.868,40.016
-135.664,999.912,54.168
-127.856,986.736,64.172
-130.052,972.828,63.928
-145.668,968.436,61.0
-181.048,978.684,64.172
-210.816,985.76,76.616
-228.872,979.904,93.208
-261.812,946.72,112.24
-338.916,903.044,118.828
-435.54,858.88,127.368
-437.98,826.672,118.584
-434.564,800.564,90.036
-447.984,785.924,82.228
-264.252,758.352,68.564
-51.484,724.436,22.204
35.624,707.844,0.488
91.256,713.212,-4.636
91.012,690.276,14.396
126.392,655.872,0.244
330.864,643.916,-35.38
539.484,622.444,-41.236
592.188,593.164,-42.7
589.748,593.164,-49.288
502.64,575.352,-55.632
548.024,558.272,-71.004
657.336,530.212,-58.072
793.732,475.8,-15.616
881.084,394.06,22.204
862.54,300.364,19.032
670.268,218.38,26.108
806.176,167.384,33.916
1127.036,95.892,39.772
1324.676,29.768,32.94
1365.912,-51.972,38.796
1075.308,-130.296,124.44
1092.632,-160.552,114.436
1426.668,-232.532,106.872
1633.58,-290.116,102.48
1531.344,-310.612,106.384
1380.308,-301.34,144.204
1377.38,-268.644,132.004
1459.852,-245.464,93.94
1325.652,-209.108,72.956
1246.84,-190.076,65.148
1173.396,-188.856,60.756
1211.216,-204.228,61.732
1377.38,-224.236,58.804
1454.728,-218.624,105.164
1530.856,-197.396,165.188
1695.556,-214.72,218.868
1959.076,-256.2,209.596
2162.816,-256.932,172.752
2077.416,-177.876,151.036
1941.02,-117.608,124.684
1809.992,-86.132,77.592
1612.596,-74.176,48.8
1432.036,-60.268,43.676
1262.212,-78.324,60.756
1054.812,-97.112,65.392
872.544,-110.532,62.952
707.356,-124.684,43.92
565.592,-89.06,-2.928
442.616,-33.428,-61.732
364.048,41.48,-140.544
282.308,96.624,-230.824
211.548,174.704,-297.436
192.272,233.752,-345.992
249.856,271.816,-409.188
309.636,312.32,-448.96
326.228,360.388,-457.012
323.056,397.476,-461.16
361.852,435.54,-472.872
399.184,492.148,-445.056
423.828,537.776,-419.68
377.468,525.82,-421.876
303.78,529.48,-370.392
292.8,542.656,-276.94
357.46,501.176,-180.316
453.352,455.792,-43.676
469.944,392.84,130.052
405.284,351.36,304.268
256.932,304.512,414.068
246.684,360.876,516.304
440.42,385.276,652.7
672.708,339.404,765.672
823.744,299.144,920.124
846.68,286.212,1041.392
790.072,279.38,1119.716
941.596,312.564,1108.492
1150.46,354.532,1072.624
1210.728,393.816,1012.356
1238.3,430.172,922.076
1184.864,419.924,844.728
1222.684,400.892,775.676
1310.768,350.14,727.852
1376.892,308.66,602.192
1331.752,286.944,402.844
1270.02,311.1,221.308
1152.412,312.076,118.828
1143.628,358.924,50.264
1167.54,351.116,-64.172
1148.752,345.992,-198.128
1059.936,349.896,-227.652
992.348,364.536,-219.844
1002.596,381.616,-239.608
1007.964,335.744,-227.164
1023.336,319.396,-227.408
1032.608,337.208,-233.996
981.612,367.708,-257.42
967.704,407.724,-241.072
1013.088,431.88,-208.864
1058.716,414.312,-133.956
1095.56,387.228,-52.704
1116.544,367.708,18.056
1119.96,367.464,77.836
1130.208,368.44,114.436
1187.304,399.916,137.86
1209.264,415.776,165.188
1203.408,437.736,168.116
1200.724,458.476,174.46
1200.236,466.04,172.508
1094.34,481.168,169.58
1019.432,503.128,152.256
937.692,539.484,145.668
887.916,576.572,123.708
822.036,629.032,113.46
749.08,670.024,121.024
698.572,702.476,128.588
614.88,722.484,106.872
550.708,726.144,97.844
494.1,747.86,102.724
447.984,774.944,114.924
346.236,796.904,136.152
272.792,803.736,137.372
250.344,802.272,135.908
252.296,816.668,124.684
183.732,821.792,124.196
124.196,837.408,122.488
93.696,847.168,112.728
49.288,861.564,98.088
13.908,880.108,95.404
-20.984,902.556,91.744
-32.696,913.048,70.028
-41.968,901.336,42.7
-82.472,894.504,20.496
-150.548,894.748,8.296
-230.092,876.204,-6.588
-304.756,875.472,-16.348
-372.344,883.768,-20.008
-395.036,911.828,-7.808
-380.64,942.328,3.904
-341.844,950.624,7.564
-288.896,938.912,17.324
-279.868,915.976,39.528
-311.1,901.58,57.828
-345.748,905.728,76.372
-306.952,925.736,75.64
-220.576,964.776,62.708
-166.896,994.544,55.144
-172.508,994.3,40.992
-187.636,984.54,41.236
-184.22,981.856,43.676
-149.816,981.856,36.112
-118.34,986.736,21.472
-118.828,985.028,6.1
-137.128,985.028,-16.104
-164.212,981.368,-26.596
-171.532,980.148,-33.916
-168.604,989.908,-31.476
-158.6,989.664,-28.548
-155.184,983.808,-15.128
-169.824,972.096,0.732
-174.704,967.216,12.2
-176.412,965.02,21.472
-161.284,966.24,21.472
-152.5,970.144,22.692
-157.624,970.388,19.764
-171.532,965.752,4.636
-180.072,966.728,-4.392
-176.656,971.364,-5.856
-183.0,967.216,-5.124
-183.0,967.46,-4.148
-176.168,965.752,-4.392
-174.216,964.044,-4.636
-179.34,964.044,-3.172
-181.292,963.8,0.244
-167.384,970.388,-2.196
-161.528,973.316,0.488
-176.168,973.56,0.244
-176.168,973.56,6.588
-177.144,966.728,5.856
-186.416,956.724,-2.196
-202.764,954.284,-12.932
-188.612,962.58,-16.592
-175.68,973.56,-14.64
-160.796,981.124,-2.928
-157.136,978.196,-0.976
-158.6,966.972,-0.732
-165.92,963.556,-0.244
-167.14,968.924,-1.952
-165.92,972.584,6.1
-154.208,980.392,11.956
-148.108,979.904,0.732
-171.288,973.804,-13.42
-183.244,978.684,-17.324
-171.532,989.176,-12.2
-162.504,979.416,-15.616
-162.748,972.34,-13.176
-154.208,973.804,-3.904
-161.772,965.996,2.196
-179.584,961.848,-0.488
-187.636,959.896,-7.076
-183.488,965.02,-8.296
-177.144,972.34,0.0
-164.7,974.78,7.076
-161.528,972.828,5.612
-163.48,972.584,2.684
-173.484,971.12,-0.976
-182.512,972.096,0.0
-183.244,974.78,3.66
-177.388,971.608,4.636
-163.236,970.388,3.904
-134.932,972.584,7.32
-121.512,976.732,11.468
-135.664,976.488,8.54
-163.236,968.68,-6.344
-178.12,964.288,-18.788
-170.312,978.44,-17.568
-147.864,987.468,-5.612
-120.78,988.444,3.904
-124.196,978.44,6.832
-122.732,979.172,4.148
-142.984,973.072,1.952
-166.408,970.632,1.952
-186.66,968.924,7.564
-167.628,973.316,14.884
-152.256,966.484,5.856
-150.792,960.14,3.66
-159.82,965.508,0.244
-165.92,971.12,-0.244
-170.312,968.436,2.44
-188.368,955.992,0.0
-209.84,948.428,1.464
-224.236,946.476,10.736
-215.696,945.012,16.348
-172.508,948.428,24.888
-144.692,937.692,22.936
-136.396,926.712,25.62
-166.652,912.56,28.792
-193.98,891.576,36.6
-215.452,864.492,44.896
-218.624,833.748,61.976
-149.328,813.252,71.004
-73.932,790.804,73.932
-59.048,763.232,62.708
-84.668,736.148,47.092
-38.796,700.036,31.476
91.5,682.224,11.224
211.06,676.856,-28.792
381.616,694.424,-30.744
556.564,709.552,-53.924
663.68,689.788,-65.636
683.2,654.896,-76.128
679.052,637.572,-68.32
834.48,610.732,-73.932
1003.084,577.792,-63.684
972.096,544.12,-91.988
932.812,494.588,-80.276
857.416,468.724,-85.888
813.496,424.804,-64.416
846.68,329.644,-56.12
1078.724,255.224,-23.912
1403.732,158.844,17.08
1422.276,81.74,35.38
1277.828,129.808,54.412
1060.18,133.956,70.76
973.316,101.992,54.9
1161.928,50.508,46.36
1264.896,2.44,66.612
1309.06,-60.268,93.208
1240.74,-82.716,117.364
1193.404,-90.524,113.704
1170.468,-51.972,81.496
1192.428,-38.308,71.736
1148.02,-20.008,56.852
1118.008,-26.108,62.708
1043.588,-36.844,48.8
1003.816,-49.776,56.364
1037.976,-48.312,52.216
1072.38,-35.38,61.488
1068.72,-34.892,69.052
1072.38,-32.452,91.012
1224.148,-20.984,133.468
1421.788,-77.836,187.392
1713.612,-85.888,160.308
1893.196,-166.896,151.28
1980.304,-101.016,114.68
2053.748,-51.728,17.324
2035.692,-55.876,-65.392
1943.704,-37.576,-104.432
1816.092,-64.66,-160.552
1471.076,-141.276,-242.536
1093.608,-61.0,-317.2
941.108,104.92,-312.564
875.472,134.444,-352.58
783.728,104.188,-379.176
642.208,98.332,-368.928
419.68,106.628,-371.368
258.64,167.872,-377.712
188.124,213.988,-375.516
222.04,226.676,-371.368
227.164,253.516,-339.892
167.14,253.76,-298.656
22.204,280.356,-227.896
-142.984,331.84,-87.84
-195.932,355.264,36.356
-66.368,343.064,161.04
37.82,345.26,308.172
99.796,344.528,465.308
104.188,359.412,621.468
194.224,373.32,767.624
451.644,415.776,893.284
691.008,447.984,998.936
895.968,469.7,1054.08
1027.728,492.148,1060.668
1063.596,485.804,1031.632
1027.24,490.44,983.076
1122.888,502.884,864.248
1303.692,513.132,721.752
1275.632,472.14,628.544
1258.308,472.14,436.272
1187.548,442.616,246.44
1139.724,477.996,77.592
1152.656,500.688,-2.196
1164.856,485.316,-77.348
1165.832,475.312,-285.48
1061.644,467.992,-391.864
994.3,482.388,-397.72
1028.948,488.976,-420.168
1096.048,499.956,-443.348
1142.896,493.124,-393.816
1105.564,461.892,-255.224
1019.676,427.732,-106.384
1022.848,403.088,-10.248
1087.752,395.524,10.004
1169.492,420.412,30.744
1204.384,473.36,55.632
1207.8,508.252,75.64
1175.348,525.576,91.5
1146.556,531.188,121.024
1127.768,540.46,145.18
1083.604,546.56,155.184
1025.532,554.856,167.872
946.72,563.152,176.9
847.656,585.6,190.32
736.392,624.152,185.928
677.1,653.188,193.004
608.048,691.984,215.208
567.3,722.484,193.492
535.092,735.66,191.052
486.78,747.616,180.804
383.324,773.968,175.924
270.596,792.024,161.528
207.644,811.544,141.276
206.18,837.164,98.82
162.504,856.196,64.416
85.156,882.304,59.292
-6.588,888.892,66.368
-55.876,880.108,54.412
-10.248,880.596,27.084
-40.504,866.932,15.86
-100.284,855.952,12.444
-177.632,843.996,8.54
-266.448,819.108,-5.612
-382.592,810.812,-9.272
-481.412,809.104,-9.028
-562.42,802.516,11.468
-549.732,807.884,20.496
-494.588,833.748,31.232
-453.596,868.64,65.148
-457.256,909.388,85.4
-457.256,920.124,101.26
-407.236,931.836,113.948
-375.76,930.616,117.852
-328.18,945.012,107.848
-294.02,945.5,85.4
-305.976,923.052,48.556
-306.952,938.668,25.62
-331.352,953.552,9.028
-326.96,956.968,-13.42
-323.056,943.548,-21.228
-328.668,919.148,-21.228
-324.52,911.584,-7.076
-284.992,918.416,-10.248
-270.596,938.18,-7.076
-296.46,954.772,-6.344
-336.476,956.724,-9.516
-361.364,924.516,-13.42
-348.92,905.24,-15.128
-322.324,919.392,-8.296
-325.496,943.06,2.684
-330.62,946.964,3.172
-331.352,933.544,5.368
-338.428,920.856,-1.708
-334.036,917.684,-5.124
-327.692,920.368,-7.076
-315.98,929.64,-7.808
-327.448,932.568,-1.464
-340.38,927.444,-4.88
-354.288,918.416,-1.464
-356.728,909.876,6.588
-329.156,919.392,2.44
-325.008,928.664,11.468
-316.956,938.912,21.228
-310.124,940.864,25.376
-316.468,932.08,22.204
-325.74,922.808,20.74
-326.228,921.344,20.008
-326.228,921.588,15.86
-322.324,927.688,5.856
-323.056,936.96,-6.1
-319.152,946.476,-5.124
-315.004,946.72,1.22
-297.436,943.792,4.636
-310.612,933.056,3.172
-330.132,925.004,0.244
-343.796,921.588,0.244
-342.088,919.636,3.66
-325.008,928.42,10.004
-305.488,931.348,12.688
-314.516,923.54,9.516
-326.472,920.856,4.88
-341.356,923.784,-3.904
-344.528,930.372,-4.636
-329.888,934.276,-3.904
-314.272,930.372,-6.832
-313.052,929.884,-6.344
-325.984,928.664,-6.344
-331.84,929.64,-12.444
-322.08,931.348,-11.468
-316.224,933.3,-2.44
-307.196,936.228,7.32
-309.148,930.616,9.76
-329.888,924.272,2.928
-333.548,926.468,1.22
-329.4,929.152,-0.732
-330.132,929.64,1.464
-326.228,929.396,-0.732
-330.132,925.736,-3.172
-334.768,922.808,-5.856
-335.256,926.468,-1.22
-333.548,929.396,11.712
-328.424,929.152,17.568
-332.328,918.904,24.644
-342.576,907.436,28.06
-351.604,898.896,20.008
-366.0,885.476,12.2
-378.444,879.864,8.052
-393.328,875.716,7.076
-435.784,862.052,9.028
-480.192,830.576,11.712
-538.508,806.908,22.204
-515.084,801.296,48.312
-447.74,809.104,70.272
-405.04,818.62,68.564
-362.828,803.492,79.056
-304.268,778.848,66.612
-284.504,759.328,62.464
-154.94,798.856,89.548
-27.572,832.772,77.592
23.912,834.236,70.516
195.2,834.724,58.072
276.208,784.46,34.892
269.376,757.864,31.476
220.332,745.908,5.856
353.312,768.112,12.932
517.28,748.836,52.46
607.56,718.336,67.832
708.088,671.976,80.52
644.16,570.716,56.852
591.456,508.008,53.436
774.212,520.696,74.664
869.372,460.184,82.96
1056.276,428.464,108.336
1143.628,353.068,79.3
969.656,278.16,89.06
857.172,257.908,147.376
974.78,253.516,85.4
1125.816,200.812,115.9
1118.252,123.464,95.404
1104.588,14.884,135.664
1096.78,-72.224,172.02
1211.704,-77.592,175.436
1330.776,-67.588,147.62
1279.536,-81.984,164.7
1274.412,-128.588,161.04
1242.448,-169.336,188.856
1186.572,-135.42,193.004
1240.74,-101.748,153.232
1194.868,-95.648,147.132
1114.348,-109.556,160.552
1105.808,-125.172,175.68
1227.076,-127.368,202.032
1311.5,-114.192,272.548
1466.44,-106.14,375.272
1639.68,-125.904,435.54
1720.688,-111.752,468.236
1908.568,-55.632,429.684
2135.244,-15.86,302.804
2145.492,14.396,209.108
2029.348,-13.908,144.692
1906.86,-44.408,92.964
1674.328,-89.548,73.688
1360.544,-129.564,17.812
1159.732,-89.548,-10.004
914.756,-77.836,-71.98
762.988,-9.516,-101.26
604.876,12.2,-172.996
486.536,46.848,-212.036
416.508,84.668,-209.108
283.772,112.24,-237.9
221.064,162.26,-268.644
260.348,193.98,-329.4
316.468,261.08,-478.728
302.316,314.516,-597.068
282.308,422.852,-664.412
262.544,468.724,-701.5
290.604,474.336,-725.656
356.728,471.408,-691.008
396.256,460.916,-572.912
277.672,399.916,-455.06
40.016,351.604,-330.376
-63.928,405.284,-156.892
50.508,358.924,-15.86
236.436,320.372,175.924
260.592,307.196,401.38
171.044,273.768,636.352
307.684,272.304,781.288
534.604,300.852,949.16
669.292,360.388,1099.952
842.044,353.068,1169.004
919.392,414.8,1224.148
989.42,452.62,1224.636
1068.232,466.284,1136.796
1076.772,485.072,1043.588
1104.344,477.996,916.464
1184.864,517.768,781.532
1235.616,498.248,659.044
1236.592,463.112,592.188
1254.404,435.296,457.988
1197.552,418.216,302.804
1105.808,400.404,247.416
1112.884,391.62,193.248
1188.28,440.42,-101.504
1119.716,461.16,-254.492
1060.424,505.324,-319.152
1051.152,559.004,-404.796
1060.668,595.36,-463.356
1044.076,585.6,-454.816
997.228,543.876,-382.348
951.844,505.08,-253.76
1000.888,475.068,-171.288
1064.328,444.324,-112.484
1128.988,444.568,-69.54
1201.456,477.264,-30.5
1193.648,509.716,-4.392
1167.052,548.512,9.028
1168.028,582.428,27.084
1208.044,610.244,49.044
1210.972,631.716,77.592
1171.2,635.864,104.92
1030.412,623.908,129.564
880.108,624.152,139.812
754.204,637.572,146.888
663.68,674.172,149.328
628.788,694.18,143.96
556.808,732.488,132.248
456.524,758.84,137.86
321.592,755.912,131.272
257.908,763.232,134.444
191.296,799.1,144.936
95.648,817.156,136.396
34.16,842.288,133.468
-36.6,849.608,135.664
-36.844,869.128,129.564
-56.12,877.424,131.516
-53.924,880.352,132.004
-57.828,880.84,118.828
-133.712,862.052,122.976
-225.944,841.556,122.488
-322.568,820.084,113.704
-337.696,811.056,75.64
-316.224,814.96,25.132
-313.052,826.672,-12.444
-354.288,836.188,-34.404
-421.388,821.548,-30.012
-453.84,810.08,-24.4
-501.42,812.276,0.488
-516.548,834.724,16.836
-488.976,876.448,24.4
-468.724,903.776,48.8
-448.96,928.908,51.484
-413.336,950.136,49.044
-388.692,970.876,56.12
-344.528,998.204,56.364
-273.28,1014.308,54.9
-228.872,995.52,45.628
-209.352,976.732,24.156
-242.78,969.9,9.516
-307.196,953.064,2.684
-340.624,931.836,-0.244
-351.604,912.56,5.124
-360.388,899.384,19.764
-356.24,892.796,30.988
-322.324,902.8,40.016
-319.64,910.364,47.336
-324.764,925.492,51.972
-325.252,943.548,59.292
-315.004,948.428,60.512
-318.664,944.036,59.048
-311.588,938.668,57.584
-316.468,936.716,54.9
-325.252,925.98,53.192
-342.576,916.952,54.168
-324.032,910.608,49.776
-335.5,902.8,45.872
-331.596,907.192,37.82
-325.74,921.832,22.448
-324.764,927.932,22.448
-315.98,936.228,26.596
-319.64,932.324,29.28
-324.032,935.496,30.744
-340.868,927.444,33.428
-328.424,927.444,38.064
-323.544,926.956,43.188
-305.488,932.812,38.552
-309.148,943.304,34.16
-310.124,952.332,32.208
-322.812,943.304,27.816
-325.496,929.396,20.252
-326.472,928.908,26.108
-316.468,930.86,32.208
-324.276,917.684,40.748
-327.204,918.172,43.188
-324.52,916.464,41.236
-304.268,934.276,40.992
-301.096,939.644,40.016
-301.34,940.376,34.16
-310.368,945.744,26.84
-325.984,936.96,22.936
-324.52,942.084,21.716
-321.104,941.596,24.156
-311.832,938.668,25.864
-315.248,927.2,28.548
-328.424,918.172,28.792
-331.108,914.024,30.256
-331.108,917.684,31.476
-320.128,930.372,26.108
-319.396,936.228,23.424
-314.516,932.812,27.816
-316.224,926.956,39.772
-311.832,925.004,39.284
-325.252,920.124,31.964
-335.744,916.464,25.132
-346.236,925.004,28.304
-333.792,935.74,28.548
-319.152,939.644,24.4
-305.976,936.716,24.644
-306.22,932.812,26.596
-313.052,928.908,31.476
-323.788,921.588,27.328
-325.496,923.052,15.86
-314.272,929.152,10.492
-309.148,931.348,13.664
-310.368,935.252,19.764
-314.272,938.912,19.764
-325.252,933.788,22.692
-326.472,928.664,32.208
-324.032,927.444,38.064
-327.448,925.492,31.232
-321.592,926.224,28.792
-309.636,928.908,30.5
-304.024,931.836,34.404
-312.32,935.496,31.476
-319.152,935.74,23.912
-330.376,929.396,21.96
-321.592,932.08,24.156
-321.348,933.056,24.156
-328.668,928.664,21.716
-328.668,925.492,25.62
-329.156,923.296,29.768
-341.844,919.392,33.428
-351.36,913.292,28.792
-339.892,916.464,31.232
-335.256,915.488,33.184
-342.82,917.684,32.94
-370.636,919.636,35.868
-387.228,911.096,30.5
-411.14,898.896,26.596
-484.34,881.084,16.348
-548.512,864.736,11.712
-513.132,839.604,10.248
-498.248,802.76,15.372
-512.644,768.6,38.064
-503.616,720.288,56.608
-393.084,691.252,75.152
-341.844,649.284,65.392
-254.248,609.512,71.98
-31.476,577.06,35.624
124.196,516.548,-14.396
367.22,495.32,-0.976
676.856,451.888,-36.112
866.444,410.164,6.1
996.984,430.66,48.556
997.716,433.1,58.316
963.068,403.332,49.776
974.536,381.372,47.336
1039.684,346.968,34.892
1174.86,302.804,37.332
1215.608,266.448,51.24
1072.868,239.364,96.624
984.296,221.308,94.916
1021.872,213.012,98.088
1128.744,145.912,112.972
1125.084,68.808,144.204
1022.848,72.224,137.86
965.02,85.644,110.776
973.072,73.2,84.18
1131.184,0.244,102.48
1091.412,-65.392,140.544
939.888,-135.664,179.34
1020.652,-181.292,177.388
1208.776,-137.86,130.052
1293.932,-144.936,137.86
1256.6,-168.848,139.568
1144.36,-182.512,164.212
1213.9,-211.792,171.044
1365.912,-221.552,179.584
1446.432,-190.564,180.804
1437.648,-142.008,190.076
1468.148,-110.044,207.156
1587.952,-132.004,202.276
1781.932,-164.7,175.192
1879.288,-158.112,174.704
1855.376,-118.828,190.564
1812.92,-112.728,145.668
1801.452,-171.776,91.744
1766.804,-193.736,41.724
1595.272,-167.872,-2.928
1388.604,-119.804,-36.112
1234.884,-125.66,-71.248
1110.2,-115.656,-108.824
995.764,-98.82,-134.688
844.24,-51.484,-170.556
704.428,12.688,-222.284
571.936,60.512,-296.216
520.208,132.98,-383.08
518.5,176.9,-413.824
539.728,202.764,-406.504
449.448,215.208,-396.012
414.068,243.024,-395.524
345.992,238.388,-384.056
245.22,276.696,-388.204
173.24,361.852,-332.572
167.384,427.976,-266.936
122.0,429.684,-201.056
110.776,434.076,-65.392
80.764,401.868,77.104
-68.564,376.98,219.356
-134.444,386.496,368.928
-12.688,396.256,536.312
184.464,352.092,699.304
398.94,319.64,888.892
481.9,339.404,1098.244
549.244,346.48,1242.936
654.408,339.892,1295.64
874.496,360.144,1338.584
1018.212,365.756,1329.556
1175.592,330.132,1244.156
1287.588,326.96,1123.132
1288.808,324.52,950.136
1294.664,334.036,727.364
1353.712,334.768,479.704
1347.368,376.98,263.276
1292.712,387.716,120.048
1214.632,368.684,-4.88
1136.308,394.304,-175.192
1102.148,446.032,-275.72
1040.172,446.52,-314.272
1032.12,448.228,-350.872
1061.156,453.352,-470.432
1051.64,456.036,-483.852
1045.54,462.38,-404.308
1073.6,452.132,-293.288
1087.996,410.408,-137.616
1104.1,363.804,-24.888
1107.516,347.944,39.04
1093.364,371.856,74.176
1095.316,402.6,83.204
1070.428,447.008,73.688
1019.188,511.668,48.312
1125.328,552.66,61.976
1183.4,553.88,68.076
1156.072,579.988,71.736
1071.404,586.82,112.728
1017.48,581.696,149.328
1018.212,576.084,163.968
961.36,571.204,178.608
919.148,599.264,184.952
833.992,627.324,183.0
795.928,658.068,167.384
782.02,690.032,153.964
747.616,705.16,159.332
721.02,728.34,160.064
665.388,737.124,168.116
564.616,734.928,180.804
443.348,735.66,184.22
360.876,738.344,179.584
277.916,744.2,180.072
223.26,763.232,172.508
148.352,792.024,166.408
109.8,825.696,170.8
60.756,852.048,188.856
12.688,857.66,194.224
-6.832,859.856,175.436
-63.928,837.896,179.096
-154.452,817.888,193.248
-199.104,809.836,188.124
-263.764,803.492,201.788
-393.816,777.872,229.116
-464.332,756.644,215.696
-569.74,742.492,227.408
-589.016,744.444,229.604
-578.768,772.992,229.848
-569.008,786.168,208.132
-549.976,813.74,182.512
-558.516,831.796,153.476
-511.18,862.052,132.248
-425.536,904.752,113.948
-346.968,936.716,91.744
-322.812,967.216,90.524
-306.22,977.708,86.132
-298.656,966.24,82.96
-322.08,955.26,85.4
-327.936,941.84,80.764
-360.632,912.072,85.4
-352.092,911.828,96.136
-345.992,918.904,108.092
-347.944,908.412,116.632
-372.588,892.308,123.952
-395.036,878.888,127.612
-391.132,880.352,120.048
-376.98,890.6,116.876
-365.756,904.752,114.924
-351.604,917.196,121.268
-352.336,921.344,125.416
-381.372,911.096,129.808
-395.524,895.48,125.416
-402.844,879.132,115.656
-410.896,875.228,108.58
-390.888,889.624,105.652
-368.684,908.168,110.776
-355.264,919.636,114.436
-364.536,908.656,110.532
-374.784,897.432,103.944
-382.836,890.356,101.26
-397.476,880.84,101.748
-403.576,884.988,103.7
-402.844,892.308,107.604
-397.964,888.16,106.384
-395.28,887.428,105.164
-391.376,885.72,107.116
-396.012,888.404,105.896
-396.744,895.236,107.604
-394.792,900.848,103.944
-373.808,905.728,91.012
-368.196,911.096,94.428
-348.432,925.98,96.868
-348.92,925.248,101.748
-364.536,920.856,104.432
-386.496,905.972,104.676
-400.16,887.184,101.26
-397.72,878.888,99.552
-389.912,887.428,106.872
-376.004,904.264,117.852
-363.804,907.436,118.096
-365.268,904.752,115.9
-379.664,901.336,111.508
-385.52,897.432,108.092
-390.4,896.7,109.312
-386.984,903.288,113.216
-371.856,905.24,117.852
-374.784,900.116,121.268
-387.228,891.088,118.34
-412.848,877.668,116.876
-420.9,876.204,111.996
-401.38,892.308,114.436
-363.804,908.656,115.9
-346.724,914.024,118.34
-349.896,912.56,118.584
-371.612,904.752,111.508
-391.864,898.408,105.408
-396.5,898.164,106.628
-384.056,899.384,112.24
-376.248,901.336,113.216
-382.592,896.7,111.508
-385.032,897.188,110.044
-386.252,895.724,113.46
-384.788,890.6,115.656
-393.572,886.94,115.168
-392.84,894.016,112.24
-388.936,900.604,112.24
-364.536,908.168,114.436
-350.14,915.488,118.34
-352.336,915.976,122.244
-373.808,907.68,118.828
-388.204,898.652,111.264
-386.496,896.944,108.824
-380.152,905.24,105.164
-375.272,914.268,102.968
-374.296,909.632,103.944
-375.272,904.508,107.848
-381.128,895.236,110.532
-393.816,892.064,113.216
-391.376,892.064,116.632
-377.956,903.044,117.852
-354.532,914.512,122.0
-350.628,908.656,123.708
-358.436,908.168,118.828
-372.832,906.46,109.556
-386.252,904.264,98.332
-390.4,902.8,100.04
-385.52,904.752,107.36
-370.88,907.192,112.484
-358.436,906.216,109.8
-357.216,907.192,111.508
-377.468,911.584,115.168
-389.424,907.68,117.12
-403.088,896.944,114.436
-417.484,886.208,116.144
-428.22,881.816,118.828
-427.732,882.792,121.512
-427.0,876.692,124.44
-436.028,865.224,128.344
-459.94,840.092,127.368
-510.204,809.348,122.488
-602.192,786.9,117.12
-672.708,791.292,124.196
-557.784,793.488,130.784
-396.256,800.076,129.32
-270.596,787.388,128.588
-222.04,759.328,113.704
-301.584,740.54,103.7
-382.592,713.212,113.948
-359.168,678.32,113.704
-261.08,651.236,97.844
-87.596,637.816,100.772
109.556,615.856,85.156
240.34,596.336,74.176
123.708,559.248,83.204
100.528,528.016,91.988
322.568,471.164,72.224
604.388,400.16,58.804
936.472,377.224,66.856
1052.86,300.852,-4.88
911.828,258.396,-54.168
827.16,243.268,35.624
1027.484,94.184,50.508
1323.456,-84.424,0.244
1746.552,-167.14,-128.344
1901.98,-158.112,-153.964
1552.572,-47.58,-105.652
1348.1,-22.448,-67.832
1484.74,-84.18,-38.308
1687.748,-155.672,-7.076
1711.904,-174.46,45.14
1609.18,-175.436,81.496
1567.212,-114.192,91.744
1580.144,-61.732,60.512
1579.9,22.692,46.36
1580.632,77.592,27.816
1576.24,78.568,-5.612
1525.244,75.396,-29.768
1497.428,138.104,-29.28
1465.708,145.18,-30.256
1425.204,111.02,-22.448
1304.668,85.156,-21.96
1209.752,108.824,-21.228
1117.032,103.212,-33.184
1016.016,116.144,-62.22
961.36,134.932,-85.156
856.928,113.46,-123.952
767.624,170.312,-172.752
685.152,205.936,-212.036
638.304,265.96,-256.688
572.424,293.532,-295.484
491.904,325.74,-356.24
419.68,382.592,-410.408
403.82,418.704,-454.328
352.092,429.196,-454.572
277.672,431.636,-437.004
181.048,446.52,-381.128
102.236,466.772,-305.0
42.212,501.176,-220.088
77.348,524.6,-115.656
131.028,516.304,-21.472
155.916,510.204,101.016
143.96,490.44,217.892
23.668,463.6,331.352
42.212,451.4,464.576
274.012,430.904,552.416
514.352,465.064,711.016
613.172,452.376,837.164
749.812,451.644,894.504
850.828,477.752,965.264
900.116,472.872,975.756
1078.724,463.112,976.244
1189.988,483.364,965.264
1189.988,480.436,904.996
1188.036,452.132,838.14
1129.72,410.896,760.548
1135.088,380.152,611.22
1206.824,354.288,456.036
1218.048,334.036,336.964
1199.016,336.476,226.92
1138.504,312.076,83.204
1133.868,346.968,-131.028
1116.544,399.672,-278.892
1096.048,471.652,-370.148
1085.312,499.956,-389.912
1017.724,489.464,-428.464
1012.356,488.732,-429.928
1060.424,470.676,-387.716
1092.388,468.724,-305.732
1080.188,451.156,-198.372
1111.42,414.312,-125.904
1141.92,403.576,-97.6
1155.584,423.096,-29.036
1212.68,470.188,14.884
1271.484,512.644,24.4
1302.228,532.896,38.552
1279.78,530.944,66.124
1235.616,516.792,90.28
1174.616,495.076,102.724
1072.868,536.8,92.964
984.296,584.624,64.172
848.632,633.424,61.976
704.916,690.764,61.0
592.432,731.512,59.292
474.58,768.356,77.592
411.628,796.66,98.82
288.896,808.616,114.192
162.992,789.096,129.076
4.148,760.548,150.06
-153.72,733.708,158.6
-230.824,716.384,139.08
-314.76,720.044,132.248
-416.264,706.136,119.316
-463.844,676.124,92.72
-495.32,642.208,61.244
-565.836,647.576,36.6
-690.276,653.188,66.856
-820.084,682.712,94.428
-786.656,690.52,63.684
-622.932,721.752,29.28
-496.54,816.424,21.228
-406.992,945.5,36.112
-276.94,1037.488,26.108
-238.388,1057.496,11.956
-260.348,1028.216,8.296
-280.6,995.276,3.416
-332.328,970.632,-10.492
-378.2,935.252,-37.576
-432.612,878.644,-57.34
-423.096,853.512,-75.64
-373.564,867.908,-88.084
-351.36,914.512,-76.372
-339.16,959.896,-66.124
-353.8,962.336,-30.744
-396.988,918.172,-7.564
-409.92,878.4,0.976
-385.032,867.176,6.588
-354.044,894.016,12.688
-341.356,917.196,3.172
-340.38,926.468,-17.324
-351.36,934.764,-26.84
-358.924,930.128,-33.672
-362.34,926.468,-32.452
-372.1,924.272,-36.6
-395.768,904.264,-42.212
-393.816,894.016,-36.112
-374.296,889.868,-15.616
-358.68,899.384,2.928
-356.728,909.144,14.64
-344.528,913.78,17.324
-341.6,906.704,18.3
-346.968,892.552,10.248
-353.556,884.744,-11.224
-364.048,904.508,-26.108
-370.636,925.98,-37.82
-368.196,935.008,-39.284
-359.9,935.74,-33.184
-355.996,931.348,-18.056
-361.12,913.78,-13.664
-367.22,908.656,-9.028
-372.832,909.876,1.22
-366.488,916.464,13.664
-348.188,926.468,21.472
-342.088,923.296,17.812
-349.164,914.024,9.028
-357.704,911.584,5.612
-353.8,920.856,6.1
-344.528,917.44,4.148
-334.768,914.268,2.44
-328.912,920.612,3.416
-342.088,922.076,0.732
-349.652,925.492,-4.148
-354.776,927.932,-4.392
-342.576,933.544,-3.904
-328.912,928.42,0.488
-322.812,924.272,8.296
-331.84,923.54,14.884
-344.284,915.976,11.224
-339.892,917.928,10.492
-334.768,925.736,10.492
-332.084,926.468,1.22
-323.788,931.592,-3.172
-322.568,932.08,-6.832
-327.936,934.764,-1.464
-338.916,930.86,2.684
-349.652,922.808,7.564
-351.36,910.12,8.784
-354.776,902.312,8.052
-351.116,914.024,8.052
-335.012,935.252,11.224
-314.516,954.04,11.956
-324.276,952.332,3.416
-352.824,938.912,-20.74
-380.152,922.32,-36.844
-385.764,918.416,-25.864
-351.116,915.976,4.148
-313.54,898.896,25.62
-298.412,887.184,38.308
-317.444,882.06,44.652
-347.212,895.236,50.996
-360.632,925.98,56.364
-328.424,967.216,51.484
-290.36,988.932,36.844
-251.564,985.76,33.184
-238.388,973.316,29.28
-262.056,957.456,25.864
-298.412,943.548,8.54
-328.668,926.468,-10.004
-337.452,918.416,-19.52
-338.428,922.076,-16.104
-329.888,927.932,-5.612
-305.732,923.54,-0.976
-300.364,910.364,-2.44
-305.732,893.04,2.684
-321.348,890.6,8.052
-334.036,901.336,14.884
-341.356,913.048,3.66
-336.476,932.568,-9.76
-333.792,941.596,-15.128
-325.496,951.112,-13.176
-343.552,946.72,-8.784
-366.976,942.328,3.904
-380.152,927.932,9.76
-395.768,909.632,13.42
-428.952,892.796,22.936
-436.028,886.208,39.04
-449.204,881.572,45.384
-415.776,878.888,47.58
-435.052,874.008,37.088
-501.908,867.908,31.72
-528.748,861.564,26.596
-495.32,842.288,6.832
-442.86,856.684,-34.648
-178.364,888.404,-73.932
57.584,894.504,-67.344
69.784,864.248,-21.716
19.276,822.768,55.876
67.588,794.952,109.312
179.828,756.888,138.348
300.12,735.904,133.712
394.548,716.384,125.172
520.452,731.024,102.48
583.404,732.976,93.94
582.916,750.3,81.496
619.028,745.42,69.54
661.972,726.876,68.076
787.632,704.428,25.132
861.564,691.496,0.488
843.752,697.352,-6.1
793.732,707.112,9.76
809.104,688.568,-16.348
852.78,674.904,-26.352
853.268,649.528,-3.416
792.512,635.376,-2.44
768.112,626.348,5.368
855.952,600.972,-7.076
815.204,560.956,-9.76
827.648,571.204,-6.1
798.124,540.704,20.008
751.276,495.808,15.616
727.12,436.76,29.524
847.9,427.488,37.82
865.712,325.008,52.216
912.072,263.032,68.076
1035.78,236.924,64.416
1087.264,209.84,86.376
1067.256,218.868,110.776
962.092,178.852,94.184
1176.812,143.228,62.708
1250.012,92.476,66.124
1293.932,88.816,67.588
1275.876,75.396,78.08
1271.484,110.288,68.076
1203.896,140.056,61.0
1189.5,162.26,50.264
1258.308,140.3,63.684
1275.144,127.612,97.6
1310.524,133.468,133.468
1441.796,142.984,168.36
1599.42,193.98,193.98
1724.592,205.936,167.872
1808.528,212.768,128.344
1858.792,264.984,66.612
1827.072,266.936,-2.196
1851.228,292.068,-88.816
1793.4,248.392,-160.796
1597.956,206.18,-201.788
1419.592,148.352,-217.648
1203.164,107.36,-271.084
981.124,82.716,-309.392
803.004,99.796,-387.472
633.18,105.408,-428.708
491.416,107.116,-451.888
374.784,106.628,-494.1
242.292,91.012,-484.34
150.792,70.516,-483.12
71.248,91.5,-467.992
29.036,157.136,-413.58
-31.964,202.276,-333.792
-102.236,271.816,-282.552
-104.188,357.704,-190.564
-45.384,405.528,-65.148
77.836,429.196,84.424
140.3,406.504,280.356
154.452,377.712,456.036
226.92,354.044,579.988
369.904,413.824,656.36
538.996,485.316,763.72
641.72,517.036,889.38
779.336,526.552,979.66
969.168,518.5,1074.82
980.392,492.88,1116.788
926.712,492.392,1061.4
1020.652,523.624,985.516
1066.524,542.168,908.9
1098.488,539.484,768.112
1095.316,478.484,653.188
968.68,411.384,542.168
931.104,413.824,450.424
1039.684,387.716,295.972
1130.452,366.488,128.344
1240.252,365.268,-21.96
1251.232,403.576,-209.596
1168.272,477.02,-353.068
1199.504,540.216,-460.184
1271.972,545.828,-529.724
1309.792,534.604,-503.372
1302.228,501.908,-426.512
1192.672,431.636,-331.108
1127.28,422.608,-223.26
1168.028,406.992,-157.868
1274.9,431.148,-159.088
1359.324,458.964,-142.496
1315.404,509.96,-110.044
1196.088,522.404,-65.636
1147.776,540.948,-34.648
1070.916,551.684,11.224
1009.428,569.496,30.744
980.636,588.772,56.364
922.808,625.86,63.928
795.196,659.288,69.54
612.196,689.056,93.208
526.064,725.412,87.352
472.872,787.632,85.156
423.096,841.556,92.964
315.248,862.784,104.188
218.38,859.612,113.46
172.264,870.348,116.388
148.352,889.136,114.924
132.492,898.408,115.656
111.264,894.748,119.072
20.984,856.196,121.024
-87.352,817.156,122.976
-178.12,792.512,122.976
-226.92,790.072,124.928
-273.28,780.8,139.812
-307.928,780.8,145.18
-344.284,780.312,146.4
-363.072,772.26,145.668
-336.476,752.008,128.832
-407.236,731.756,120.78
-532.896,736.88,118.34
-689.788,737.856,115.412
-793.0,706.868,120.78
-775.92,696.376,116.388
-738.832,716.872,126.88
-644.404,762.5,101.016
-560.956,834.48,85.4
-497.272,911.34,70.272
-432.856,952.332,63.196
-408.212,931.836,56.852
-403.332,903.044,44.652
-447.008,884.012,42.7
-494.832,856.684,43.676
-519.232,826.672,24.888
-520.696,795.928,5.368
-510.936,795.684,-2.44
-473.604,822.768,-5.856
-475.8,851.804,10.736
-461.892,865.712,12.932
-484.096,860.832,30.256
-486.292,856.44,35.38
-485.804,859.612,37.088
-485.804,862.296,42.212
-474.824,871.08,35.868
-478.728,873.52,32.208
-481.656,867.176,32.94
-469.7,865.468,42.7
-456.768,859.612,49.776
-464.088,862.54,57.096
-463.6,860.1,45.628
-470.432,854.0,35.868
-469.212,850.828,24.644
-468.968,856.684,15.372
-475.312,858.88,15.128
-469.456,874.496,17.812
-449.448,884.988,20.496
-435.784,884.012,25.132
-439.2,870.104,35.136
-456.036,872.544,51.484
-472.14,862.54,55.876
-477.508,859.856,54.168
-470.676,858.392,51.972
-458.72,864.98,53.68
-450.424,865.712,52.46
-443.104,870.104,43.676
-450.424,877.424,38.552
-466.528,873.764,35.624
-471.652,867.42,28.06
-474.58,859.856,24.156
-451.156,867.908,19.764
-447.74,876.936,26.352
-435.052,881.572,28.548
-432.368,878.4,36.112
-438.712,872.788,30.256
-456.28,869.372,29.28
-458.72,875.228,29.28
-459.94,868.64,29.28
-457.012,872.544,37.088
-454.572,872.544,46.116
-444.08,869.616,49.044
-433.832,879.62,45.628
-432.612,880.108,49.532
-434.564,875.716,42.7
-446.764,871.08,41.724
-450.424,883.524,37.088
-448.716,886.696,27.572
-445.788,881.816,25.132
-432.368,880.352,24.156
-446.52,870.104,25.376
-465.552,858.636,29.036
-473.848,847.412,39.528
-482.388,827.892,48.8
-493.612,811.544,52.216
-501.664,800.564,59.536
-504.836,796.416,67.588
-477.996,800.076,64.904
-465.308,803.98,56.608
-430.66,835.456,44.652
-389.424,877.424,26.352
-377.224,902.8,5.856
-361.364,925.004,-0.976
-309.392,949.16,-7.32
-203.74,980.148,-9.272
-176.168,985.76,-2.196
-175.68,995.276,20.74
-179.828,1011.136,46.848
-128.1,1025.044,51.24
-63.684,1026.02,51.24
-47.58,1029.192,51.972
-73.444,1028.948,57.34
-136.884,1017.236,55.632
-178.608,1006.744,46.604
-229.848,996.496,39.284
-228.14,988.932,33.916
-200.812,980.148,30.988
-191.784,968.68,28.548
-184.464,966.484,30.988
-191.784,961.604,39.284
-207.156,948.184,47.58
-222.04,945.256,52.216
-217.892,952.576,51.728
-208.132,954.04,44.164
-205.204,945.256,32.94
-203.74,950.624,32.452
-215.208,956.48,40.016
-220.576,965.996,44.896
-239.608,966.24,43.676
-237.168,961.848,45.14
-236.192,953.308,52.46
-231.556,940.864,59.292
-243.024,934.032,66.856
-266.448,929.64,66.612
-309.392,913.536,72.224
-377.224,880.84,67.588
-449.204,858.88,74.42
-531.92,834.968,86.132
-478.972,809.592,96.38
-315.736,782.508,82.716
-223.26,738.832,77.104
-196.664,690.52,81.496
-198.616,644.648,92.232
-40.504,612.684,96.136
56.364,578.28,89.304
263.764,600.728,91.256
462.868,602.436,51.728
438.468,555.832,14.64
546.56,534.116,23.912
617.564,470.432,-45.628
650.26,489.952,-72.468
795.44,484.096,-66.612
868.396,379.664,-23.424
1044.808,274.744,-19.276
1122.644,184.952,-80.764
948.428,114.924,-94.184
941.108,153.476,-105.896
1314.672,89.304,-158.112
1540.86,-32.208,-136.396
1605.764,-87.108,-130.296
1571.604,-117.608,-63.44
1483.032,-95.648,-46.848
1697.264,-50.508,-116.144
1790.228,-9.272,-125.416
1707.268,9.272,-115.9
1684.332,9.76,-98.576
1762.412,13.908,-73.688
1802.428,47.58,-62.464
1781.688,97.6,-97.356
1716.296,152.744,-138.836
1621.868,183.244,-162.748
1557.696,157.38,-181.292
1512.312,113.46,-195.688
1391.044,58.56,-177.144
1249.768,44.164,-177.632
1064.328,55.876,-204.228
885.232,97.356,-228.384
769.332,120.78,-260.348
656.116,139.812,-320.128
607.072,168.116,-407.968
548.512,193.248,-448.716
512.644,215.208,-492.88
461.892,220.82,-547.536
386.496,251.32,-589.992
298.412,279.868,-584.868
224.236,310.124,-567.788
175.68,333.304,-531.432
162.748,352.336,-477.752
134.688,372.1,-391.132
95.404,390.888,-306.22
42.456,426.024,-179.34
43.188,424.56,-38.796
152.744,402.356,93.452
250.1,364.78,223.016
296.46,336.964,337.208
341.6,388.936,445.544
351.848,395.524,560.224
529.968,391.376,625.372
739.076,385.764,714.188
919.148,422.608,811.788
1005.524,426.512,873.764
1057.984,438.224,924.516
1098.244,481.168,932.568
1212.192,515.816,900.848
1361.276,484.34,834.236
1424.228,445.056,800.808
1430.816,417.24,745.42
1360.788,354.532,644.648
1316.136,282.552,531.188
1339.804,214.964,370.88
1315.404,216.916,136.152
1233.42,249.856,-152.988
1149.24,319.884,-402.356
1100.928,380.396,-534.116
1092.388,417.24,-636.84
1084.336,425.78,-720.776
1054.08,428.22,-717.848
999.18,425.536,-666.12
988.2,427.488,-571.204
1012.112,393.572,-502.396
1071.404,381.86,-432.368
1139.236,373.808,-324.52
1113.86,372.832,-234.24
1062.62,395.28,-158.112
1081.408,427.732,-105.164
1171.2,461.16,-90.768
1185.84,488.0,-55.144
1137.528,497.272,-25.62
1035.536,513.376,-6.832
945.988,545.096,15.86
861.564,567.056,25.864
828.38,588.772,45.872
847.656,616.588,54.9
842.288,628.3,65.148
801.54,651.236,79.056
735.66,670.024,89.792
674.904,697.84,104.92
616.832,724.192,121.268
563.884,753.96,141.276
591.212,782.752,145.18
616.1,811.544,154.94
658.312,837.408,145.912
640.256,845.46,155.916
560.956,856.684,157.868
500.444,847.412,169.336
425.048,839.116,178.852
414.556,851.316,153.964
366.488,851.804,148.108
244.0,815.448,140.544
179.096,798.856,113.46
131.028,823.5,82.472
56.364,856.928,71.736
-24.644,881.084,83.204
-139.324,873.52,95.404
-153.964,819.596,67.832
-143.716,781.288,48.312
-212.768,786.656,46.848
-532.408,760.792,106.628
-800.808,716.384,96.868
-885.232,653.432,57.584
-821.304,646.844,34.16
-708.332,695.888,-1.952
-673.928,755.912,-27.816
-583.404,843.752,-38.064
-445.788,904.02,-60.268
-324.276,933.788,-79.056
-317.2,946.964,-94.428
-366.244,938.668,-104.188
-388.692,939.156,-108.092
-412.604,919.148,-108.336
-422.608,896.456,-100.284
-416.508,874.252,-91.988
-425.048,864.492,-78.812
-396.988,890.6,-77.104
-390.644,892.796,-71.98
-417.728,877.912,-68.076
-419.68,871.568,-71.492
-398.696,879.864,-63.684
-393.328,892.796,-54.656
-365.268,916.708,-42.456
-343.796,928.176,-40.016
-339.404,918.66,-40.992
-355.508,912.804,-43.432
-389.912,905.728,-38.552
-416.752,896.7,-46.604
-420.168,892.552,-47.58
-416.996,898.164,-23.424
-404.064,913.78,0.244
-385.032,926.224,27.572
-388.936,911.34,54.9
-417.484,877.424,60.268
-436.516,840.58,54.168
-453.352,836.676,38.308
-434.564,864.98,22.448
-389.912,908.656,9.516
-338.184,945.012,-4.636
-321.348,955.748,-13.176
-316.224,940.864,-24.888
-350.628,916.952,-32.696
-412.604,896.212,-20.74
-443.836,894.504,-10.736
-427.0,901.336,2.196
-391.864,907.924,13.908
-368.684,912.56,23.668
-358.436,907.436,22.448
-358.436,907.68,11.712
-369.172,905.484,-0.488
-375.028,908.656,-4.148
-369.172,904.508,-12.444
-365.024,917.44,-7.564
-376.248,914.756,-8.784
-377.956,907.436,-3.172
-385.764,897.92,-1.708
-372.832,915.244,8.784
-366.0,925.492,12.688
-355.752,926.224,14.64
-354.044,922.32,11.224
-347.7,925.736,13.42
-367.464,919.88,12.444
-371.612,915.488,3.66
-376.248,910.364,-3.904
-382.104,910.364,-3.172
-369.66,917.684,1.22
-356.24,917.44,1.464
-361.852,907.68,-4.148
-370.88,900.604,-5.124
-366.244,912.316,-0.732
-355.02,925.248,8.54
-350.14,922.32,11.468
-344.772,911.34,5.124
-345.992,910.608,-2.44
-357.948,913.292,-3.904
-361.852,917.44,-8.052
-362.584,921.1,-14.152
-355.996,922.32,-17.568
-351.36,920.612,-15.372
-337.94,930.372,-10.004
-332.572,935.008,-5.124
-346.968,925.736,-4.148
-366.0,910.12,-6.344
-380.152,898.652,-8.54
-375.76,901.092,-10.004
-360.388,911.096,-5.856
-338.916,922.564,0.0
-339.404,920.124,0.976
-351.116,914.756,6.344
-361.852,908.168,7.076
-369.416,911.584,0.732
-362.096,918.172,-4.148
-352.092,925.492,-11.712
-344.528,930.616,-11.224
-347.212,931.104,-9.272
-351.116,921.832,-3.416
-356.728,913.78,5.368
-357.948,905.972,4.148
-359.168,902.068,-1.464
-359.656,908.412,-7.808
-353.068,917.196,-12.688
-355.02,921.832,-15.616
-349.408,927.932,-11.224
-345.992,923.54,-6.588
-352.092,917.928,-5.124
-355.996,912.316,-3.66
-362.34,913.048,-4.636
-366.0,913.78,-2.928
-358.436,921.832,0.732
-343.064,923.296,5.612
-344.04,918.172,4.392
-342.576,920.124,0.976
-345.26,922.564,-2.684
-353.8,925.248,-11.224
-352.092,927.2,-17.812
-344.04,932.324,-19.764
-337.696,931.104,-12.2
-341.844,925.248,0.488
-345.016,918.904,6.832
-345.504,912.804,10.736
-360.876,908.656,6.832
-368.928,908.168,6.344
-377.224,911.584,3.172
-369.66,911.584,1.22
-350.384,919.148,-2.196
-345.504,922.32,-4.88
-347.456,923.54,-5.612
-348.676,925.492,-1.708
-354.532,918.66,-0.488
-366.732,912.316,2.684
-375.028,901.824,9.516
-386.008,894.26,18.788
-404.552,882.792,21.96
-429.684,874.252,21.716
-466.04,875.716,21.472
-552.416,881.084,14.64
-596.58,874.008,4.392
-615.368,861.808,-11.468
-589.504,821.06,-15.128
-526.796,765.916,13.176
-457.5,718.58,46.116
-384.544,682.712,79.056
-355.996,664.9,105.408
-238.144,659.776,122.0
-53.192,666.12,116.876
116.632,686.86,116.632
241.072,696.132,87.596
284.016,704.428,77.104
467.748,717.604,57.828
580.964,728.584,34.892
589.992,711.504,7.564
580.964,701.012,4.392
680.516,669.536,-8.784
793.732,601.704,-63.928
690.032,545.34,-50.02
738.1,467.26,-60.024
801.784,420.168,-65.148
814.228,344.528,-84.668
885.476,322.568,-133.468
1046.028,245.22,-132.98
1207.556,163.724,-113.216
1206.58,90.768,-33.672
1342.976,51.728,-14.884
1295.396,22.692,19.276
1285.148,2.928,16.836
1421.544,-2.928,16.104
1543.056,-28.548,36.6
1523.292,9.028,18.544
1425.936,62.22,19.52
1431.792,156.648,25.376
1544.764,179.828,24.644
1644.56,170.8,35.38
1724.592,174.704,48.312
1750.456,218.624,52.216
1728.74,258.64,48.556
1742.404,250.588,32.94
1681.16,213.5,-27.572
1597.224,212.28,-87.596
1455.216,189.344,-140.788
1319.064,168.848,-150.548
1133.624,125.416,-193.248
992.348,128.588,-221.796
864.98,135.908,-255.956
746.396,137.372,-299.388
613.904,147.376,-329.4
526.308,159.088,-397.72
461.648,179.34,-446.52
391.376,188.368,-501.664
334.036,212.036,-531.676
285.724,241.316,-522.404
246.44,263.032,-499.712
192.028,294.02,-405.04
170.068,315.98,-283.04
148.108,336.476,-162.748
122.0,361.364,-41.48
135.908,387.716,54.168
145.424,405.772,172.508
194.224,395.28,303.536
247.904,396.5,416.752
370.636,425.536,526.552
558.76,452.864,602.68
660.996,448.472,694.424
730.78,473.36,788.364
824.72,467.016,864.736
919.636,470.188,914.512
1006.012,481.412,910.12
1087.02,494.832,860.344
1161.44,521.428,783.972
1146.312,554.368,740.296
1164.612,545.828,677.832
1150.704,521.916,628.544
1185.84,478.728,552.172
1193.16,429.928,480.192
1199.992,366.244,386.008
1189.256,325.984,291.092
1154.852,334.524,161.772
1112.64,335.256,35.38
1087.508,375.028,-127.124
1054.568,404.064,-271.084
1057.252,454.328,-406.504
1038.952,473.116,-459.208
1007.964,463.112,-430.416
928.908,428.708,-390.888
934.764,399.428,-343.308
1023.092,385.276,-305.976
1067.012,400.648,-254.248
1048.224,419.68,-188.368
1006.5,416.508,-127.612
1024.556,400.892,-89.792
1065.548,402.844,-63.928
1077.504,421.632,-21.228
1046.516,428.464,29.28
1041.148,426.268,74.664
1060.18,386.008,128.344
1081.652,369.66,149.328
1126.548,358.192,159.82
1263.92,357.216,155.428
1333.704,360.388,180.804
1294.908,372.588,191.784
1216.584,391.376,197.396
1165.588,409.188,205.692
1151.436,452.376,174.46
1195.356,475.068,136.64
1165.344,519.232,118.584
1051.884,561.2,90.036
924.516,589.016,85.4
762.012,605.608,84.424
612.196,620.004,74.664
508.74,660.02,61.0
432.124,681.98,56.364
353.8,703.94,57.34
268.4,714.92,67.1
173.728,721.508,68.32
65.636,721.508,79.788
-53.68,705.648,71.98
-183.0,694.424,46.604
-307.196,692.472,23.18
-357.948,713.944,-17.08
-391.132,760.304,-64.172
-529.968,818.376,-52.216
-632.204,901.092,-57.828
-596.58,969.412,-37.576
-507.032,976.244,-5.368
-404.552,945.988,19.032
-344.528,892.064,46.848
-326.96,862.296,63.684
-297.436,885.964,83.692
-285.968,930.86,101.016
-273.768,946.964,79.056
-287.188,939.644,52.216
-339.892,925.248,11.712
-387.228,919.392,-21.716
-410.896,926.956,-19.52
-380.884,930.86,7.808
-307.196,949.404,36.6
-275.476,951.356,71.98
-289.628,939.888,93.94
-330.132,905.972,94.672
-344.04,893.284,83.692
-321.348,905.24,78.324
-306.708,923.296,73.688
-279.624,938.668,59.292
-290.116,935.984,45.384
-309.392,938.668,41.236
-338.672,925.004,37.332
-337.94,919.392,25.62
-323.544,924.028,22.936
-297.436,936.472,33.184
-292.8,941.352,44.408
-278.648,942.328,53.436
-290.36,938.424,52.216
-310.368,927.688,48.8
-320.86,932.812,50.02
-310.612,934.52,51.484
-298.412,941.352,40.748
-279.38,949.16,32.94
-278.404,960.872,40.016
-289.384,962.824,48.312
-295.972,951.844,58.316
-287.676,938.912,54.656
-294.264,928.908,57.34
-294.02,933.3,57.828
-293.044,937.936,55.876
-303.048,936.716,44.408
-304.024,937.204,42.456
-299.144,933.056,42.7
-298.656,926.224,40.016
-296.948,927.688,31.964
-290.848,934.764,29.036
-284.992,941.84,30.5
-278.404,946.72,30.256
-266.936,951.6,29.036
-269.376,957.7,33.672
-267.424,957.7,28.792
-274.5,953.064,29.768
-278.404,947.696,27.816
-285.724,939.156,21.716
-295.24,935.008,12.932
-288.652,941.352,14.396
-285.724,947.94,27.572
-279.868,946.476,37.576
-275.72,938.912,47.092
-272.304,933.544,46.604
-271.572,936.716,40.016
-277.916,941.108,38.308
-279.868,949.404,38.552
-272.304,956.724,35.38
-269.864,954.284,25.376
-271.328,949.16,22.448
-276.208,946.964,34.648
-274.256,945.256,41.724
-284.992,941.596,39.772
-295.24,942.328,34.648
-287.92,943.06,32.452
-269.62,947.208,35.38
-254.736,952.82,28.304
-251.32,957.944,20.008
-270.84,956.724,19.276
-284.26,951.112,19.52
-302.316,940.132,24.888
-298.168,934.276,22.692
-288.164,936.228,24.644
-275.476,946.232,31.476
-268.4,951.844,35.624
-266.204,948.916,36.112
-265.472,945.744,31.72
-270.108,948.428,28.304
-280.6,953.796,29.036
-274.5,956.724,28.304
-265.716,958.676,30.256
-269.864,951.356,31.964
-275.232,943.792,32.208
-282.308,939.888,33.672
-286.7,939.644,36.112
-277.672,941.352,31.72
-273.768,941.84,25.132
-272.548,944.524,16.836
-269.62,949.892,16.836
-269.376,957.456,20.008
-267.18,957.944,23.912
-254.248,952.576,25.132
-257.908,946.72,24.156
-269.864,946.964,23.18
-288.896,947.452,17.324
-296.948,940.132,13.176
-288.164,939.156,12.2
-276.208,945.012,23.668
-261.324,947.696,29.768
-251.32,945.5,28.06
-272.06,939.644,21.228
-279.868,941.108,21.472
-273.28,946.476,19.52
-266.692,949.16,18.544
-256.688,951.112,10.98
-259.372,952.82,9.272
-280.356,953.796,9.028
-289.872,952.332,4.88
-278.404,948.428,5.124
-277.916,942.084,10.98
-270.84,938.424,16.348
-264.008,942.816,27.816
-279.868,941.352,35.38
-294.264,937.204,33.184
-302.804,929.884,30.988
-304.512,931.592,31.72
-316.956,929.884,32.94
-325.252,924.028,32.696
-344.284,911.828,26.352
-355.508,892.552,20.496
-394.792,866.444,14.152
-446.276,845.948,20.984
-456.28,837.652,46.848
-453.596,843.508,40.016
-426.512,861.32,34.404
-396.256,853.024,25.132
-303.292,824.232,14.396
-238.632,793.488,15.128
-225.212,765.672,21.716
-165.188,748.348,54.412
-27.572,723.46,70.272
52.46,693.692,61.976
148.596,695.156,44.408
288.652,678.32,14.884
334.524,648.796,14.64
379.664,600.24,29.524
507.52,540.46,23.18
604.144,472.14,-7.808
665.144,442.372,-23.668
593.652,385.032,-29.524
758.84,307.684,-25.62
1000.888,222.04,-76.128
1265.872,222.284,-66.124
1327.604,224.724,-71.492
1291.98,208.62,-91.5
1166.808,144.448,-65.148
1323.7,78.324,-59.292
1569.408,45.14,-56.852
1668.472,43.188,-53.924
1674.084,88.816,-56.12
1555.256,123.952,-37.82
1498.16,179.096,-19.276
1686.772,174.704,-23.424
1851.716,158.6,-14.64
1840.736,173.24,-19.276
1746.064,210.816,-44.896
1631.384,269.864,-74.42
1549.888,323.3,-101.016
1554.768,342.82,-111.752
1544.276,309.392,-134.2
1431.06,271.328,-141.52
1282.464,239.852,-124.196
1170.468,201.788,-118.584
1072.624,169.336,-148.352
967.216,157.38,-150.304
842.288,139.324,-171.776
738.832,119.804,-215.452
657.336,113.704,-261.08
553.636,139.568,-305.488
478.972,191.784,-342.576
418.704,227.652,-395.524
355.264,275.232,-461.16
292.556,321.348,-513.62
228.14,361.608,-528.504
188.856,399.672,-541.436
141.764,432.124,-516.304
107.604,469.212,-449.448
97.356,503.128,-388.448
92.72,519.72,-313.784
82.472,513.864,-243.268
80.52,497.76,-172.264
75.396,463.356,-100.772
180.804,470.92,10.492
267.424,437.736,118.584
349.408,364.78,240.34
559.248,343.796,372.588
706.136,362.34,521.916
795.44,379.664,697.84
967.216,339.648,856.196
1186.328,333.548,1016.992
1283.684,332.816,1118.74
1302.472,333.548,1122.4
1281.976,389.668,1045.296
1229.76,460.672,907.68
1216.096,535.336,782.752
1242.448,536.556,660.264
1252.94,501.42,546.316
1227.564,434.808,441.396
1220.976,368.684,305.488
1182.912,348.92,164.7
1119.228,346.236,25.62
1090.68,374.296,-102.48
1061.888,405.284,-298.656
1039.196,463.6,-517.768
1025.044,512.644,-611.708
1029.68,523.38,-622.932
1001.376,505.08,-591.7
973.316,490.196,-514.596
994.056,443.836,-393.816
1056.032,425.048,-269.376
1088.728,398.452,-149.328
1125.572,379.42,-56.608
1165.344,386.008,-16.592
1140.456,410.408,14.152
1078.236,457.988,35.624
1025.288,529.724,8.052
996.74,563.396,-19.032
940.62,583.892,-30.744
883.036,619.028,-39.772
840.092,626.836,-30.256
776.896,677.344,18.3
730.048,727.852,62.952
697.108,752.008,119.804
666.364,784.704,174.216
682.956,808.128,195.688
681.98,812.032,217.892
668.072,829.112,224.724
583.648,845.948,217.892
491.66,857.172,223.016
409.676,880.108,204.96
396.256,902.068,179.34
402.356,937.692,178.364
416.752,958.432,198.616
381.86,957.944,231.068
339.16,925.492,253.272
305.0,884.256,255.224
255.712,846.924,241.56
223.016,845.216,236.924
147.62,844.728,234.24
75.884,841.312,223.504
0.976,830.576,212.036
-51.484,828.868,194.712
-61.732,823.744,169.092
-136.396,806.664,131.516
-227.652,802.028,93.452
-352.336,791.78,61.0
-449.692,782.02,20.74
-569.008,774.944,-12.2
-577.304,796.172,-59.78
-533.384,833.26,-97.356
-459.94,875.228,-117.364
-407.236,924.516,-123.464
-369.172,950.38,-119.804
-321.104,959.652,-115.412
-263.032,960.384,-97.844
-229.116,976.0,-62.708
-215.94,976.732,-39.772
-210.572,968.192,-27.572
-236.192,952.82,-17.08
-232.776,958.92,-11.224
-235.46,954.528,-14.64
-243.268,950.868,-20.252
-248.636,949.404,-36.6
-242.292,956.236,-45.14
-248.148,959.164,-48.312
-248.148,965.02,-45.872
-244.976,965.996,-53.436
-242.048,967.704,-49.288
-242.78,973.316,-38.308
-239.608,976.488,-16.348
-230.092,963.312,-8.54
-214.232,956.968,-5.856
-219.356,959.408,-5.368
-227.896,955.748,-8.296
-233.752,958.92,-5.124
-220.576,966.728,-6.832
-221.064,964.044,-10.98
-223.26,960.872,-21.228
-233.752,955.26,-28.792
-236.192,952.576,-28.548
-234.972,952.088,-33.184
-242.78,955.504,-23.18
-249.124,955.504,-20.008
-250.1,962.824,-17.324
-255.468,959.652,-6.832
-239.364,958.432,-0.732
-228.628,954.772,3.416
-225.7,957.944,3.416
-229.116,961.848,-0.732
-226.432,960.872,-4.148
-217.892,958.432,-2.196
-207.644,955.992,-13.176
-207.888,955.748,-17.08
-221.064,956.968,-20.008
-238.876,957.7,-22.692
-259.372,954.772,-16.592
-252.052,955.016,-4.636
-232.044,952.576,8.784
-224.968,950.868,13.176
-226.188,955.748,14.396
-241.56,956.48,15.616
-251.808,955.26,12.444
-249.124,959.408,4.392
-229.604,970.632,-2.44
-217.404,982.1,-10.004
-206.668,998.692,-13.42
-197.396,1021.628,-13.908
-209.84,1022.604,-15.86
-227.652,1006.988,-19.276
-252.052,973.804,-21.96
-272.06,947.452,-22.448
-282.552,930.86,-16.836
-278.16,924.028,-9.028
-266.448,919.636,-1.952
-253.272,923.052,6.344
-239.12,923.54,16.348
-239.364,922.808,21.716
-234.484,923.296,24.644
-223.992,929.64,19.276
-209.84,942.572,4.636
-195.932,958.432,-8.052
-186.416,972.584,-19.52
-173.728,981.124,-29.524
-183.488,987.956,-33.672
-196.42,993.812,-36.6
-192.028,988.2,-42.212
-213.744,968.192,-39.04
-227.896,955.504,-30.744
-226.92,942.816,-30.256
-219.6,931.836,-34.892
-213.5,917.928,-42.212
-213.744,919.88,-43.188
-212.28,921.344,-41.48
-213.744,923.052,-44.408
-216.428,933.3,-57.096
-215.208,947.208,-55.632
-195.932,971.852,-49.532
-185.196,987.956,-34.16
-187.636,1000.156,-25.132
-206.18,1002.596,-12.444
-214.72,1004.304,-1.464
-216.916,999.668,8.784
-220.088,993.08,6.832
-231.556,982.344,-1.708
-246.684,973.072,-9.76
-262.544,963.068,-12.932
-265.96,954.528,-8.784
-252.052,946.232,-2.928
-227.652,938.424,4.636
-226.432,923.296,8.052
-223.504,920.124,6.1
-213.988,926.468,-4.636
-218.136,938.668,-20.008
-215.696,951.356,-30.5
-207.888,967.704,-35.38
-193.004,973.804,-30.256
-190.076,972.828,-31.476
-195.932,972.096,-30.988
-203.496,980.392,-28.792
-206.912,986.736,-24.644
-202.276,983.808,-20.008
-201.056,975.512,-17.08
-200.324,964.288,-19.276
-204.716,959.408,-14.64
-205.204,958.188,-9.028
-208.132,955.016,-4.88
-213.988,951.844,-4.636
-220.088,946.232,-11.468
-216.672,941.596,-14.884
-208.62,946.476,-13.176
-201.3,952.82,-5.124
-198.86,952.576,-1.464
-192.516,953.796,-4.88
-186.904,957.7,-6.344
-187.88,962.336,-9.76
-184.464,970.876,-9.028
-185.928,981.856,-7.564
-188.124,986.492,-7.564
-186.66,986.248,-8.052
-187.148,997.472,-2.44
-182.024,1007.476,4.392
-164.7,1014.796,17.324
-159.332,1004.792,20.984
-158.6,987.468,24.4
-171.044,968.924,20.496
-177.388,957.212,20.984
-189.1,943.304,16.104
-196.176,937.448,10.98
-181.78,942.572,5.612
-176.168,946.476,-7.32
-157.136,955.016,-15.616
-139.324,977.952,-18.544
-111.508,997.228,-14.884
-109.556,1003.816,-10.492
-100.284,1007.476,-7.808
-95.648,1010.16,-9.76
-86.864,1008.696,-19.276
-86.132,1016.26,-27.816
-83.204,1027.972,-23.424
-86.376,1024.8,-23.18
-105.896,1005.768,-25.62
-127.368,987.224,-27.084
-126.392,976.732,-26.596
-118.828,967.948,-29.036
-107.116,960.14,-33.428
-103.944,960.384,-30.256
-116.144,965.752,-24.4
-112.24,971.608,-20.74
-112.24,970.144,-21.96
-111.996,972.096,-19.276
-108.336,976.244,-17.08
-99.308,985.516,-16.348
-110.044,987.468,-20.984
-120.536,991.372,-24.4
-118.096,997.228,-17.568
-113.948,994.544,-11.468
-113.948,985.76,-7.076
-133.712,974.78,-10.004
-140.788,964.776,-20.74
-171.776,954.284,-34.892
-195.444,947.94,-42.7
-224.236,955.016,-45.384
-217.648,953.064,-41.48
-211.304,932.568,-41.48
-204.228,906.948,-33.916
-194.712,901.336,-27.084
-194.468,894.992,-13.42
-198.128,879.864,-1.464
-193.004,851.072,-4.148
-258.884,827.648,-21.472
-272.792,802.028,-20.984
-229.848,748.104,-48.068
-77.836,694.668,-60.756
22.692,647.576,-64.416
124.684,612.196,-35.868
135.908,572.18,-0.244
175.436,475.068,4.636
317.444,402.112,-33.672
649.772,358.68,-40.748
802.516,292.8,-14.884
917.684,233.996,20.984
1087.264,185.684,6.344
1083.848,103.212,-17.324
1221.22,89.792,71.736
1578.436,29.036,96.868
1799.988,-32.452,49.776
1642.12,25.864,68.808
1389.336,38.308,77.836
1201.944,32.696,72.956
1309.792,41.968,-1.952
1474.004,38.308,-39.284
1511.58,24.156,-38.308
1347.368,38.552,-22.204
1209.264,57.096,5.124
1270.02,55.632,18.788
1437.892,74.664,10.004
1596.736,102.724,41.724
1759.972,150.792,88.328
1886.852,137.616,121.512
1975.424,151.524,123.952
2028.372,225.456,121.268
1993.48,232.288,113.704
1847.568,183.0,71.492
1606.252,175.436,-8.052
1441.064,161.528,-38.796
1270.996,100.284,-80.276
1075.064,32.94,-93.208
814.716,-28.548,-119.316
601.216,-33.184,-187.88
445.788,-18.544,-264.008
314.516,33.428,-339.16
243.512,69.54,-411.384
150.792,125.172,-471.408
40.504,155.672,-528.016
-11.956,215.696,-576.328
-39.284,280.356,-580.232
-10.736,351.848,-573.4
18.788,378.688,-545.828
52.216,425.048,-495.32
38.796,468.48,-453.596
-14.64,478.24,-391.376
11.712,517.524,-282.064
55.632,492.392,-169.092
162.992,456.036,-10.98
290.116,381.372,169.58
433.588,350.628,383.08
530.212,331.352,570.96
602.68,337.452,711.992
653.188,386.496,825.696
890.356,472.14,950.38
1115.812,473.36,1028.704
1267.824,440.176,1084.336
1406.904,436.516,1067.012
1399.096,473.604,1031.144
1283.684,516.792,955.748
1296.616,527.772,808.616
1415.444,515.328,586.82
1389.824,502.64,406.504
1243.424,456.036,290.36
1191.452,426.756,175.192
1190.232,390.4,-21.228
1195.356,384.788,-218.868
1148.996,390.888,-333.304
1101.66,431.88,-481.168
1053.104,461.648,-631.96
1025.288,479.948,-661.972
1041.148,478.24,-623.908
1020.164,457.988,-547.78
1012.112,426.024,-451.4
1013.576,381.128,-360.144
1038.708,384.788,-302.804
1064.816,430.904,-250.832
1088.728,477.02,-191.052
1158.268,514.596,-140.544
1232.688,547.78,-111.02
1234.64,558.272,-57.828
1201.7,569.252,-28.304
1120.204,579.5,-7.808
1054.08,582.184,-3.66
1014.064,589.26,-20.496
938.668,623.664,-16.104
807.396,669.536,16.836
676.612,721.264,49.288
546.072,743.468,84.668
482.632,778.116,101.016
423.34,787.632,117.852
388.204,800.32,150.06
385.276,819.108,159.82
328.424,821.06,189.344
292.312,838.872,211.06
274.988,839.604,227.896
177.388,835.944,247.904
61.0,812.52,243.268
-34.648,775.188,224.236
-126.88,740.54,201.544
-210.328,739.564,179.096
-246.44,792.512,167.872
-295.972,825.208,151.768
-357.216,793.976,107.36
-442.86,736.636,68.808
-571.204,686.86,37.332
-656.36,670.024,7.32
-715.652,703.208,0.732
-706.38,795.928,-14.64
-643.428,867.176,-18.056
-533.384,893.528,-37.82
-399.916,930.616,-37.576
-280.844,960.872,-22.936
-228.384,996.496,-3.172
-246.684,996.252,20.008
-293.288,964.288,35.868
-334.524,919.636,34.16
-364.78,898.652,29.524
-375.028,896.944,14.396
-358.924,905.484,2.196
-340.38,913.536,-3.66
-342.332,909.876,-14.64
-337.452,911.584,-16.592
-337.94,914.512,-18.544
-346.48,907.192,-9.028
-331.352,921.832,5.612
-329.644,916.952,13.664
-309.392,915.244,13.664
-315.736,910.852,0.0
-318.908,923.296,2.44
-316.468,944.524,7.076
-317.932,943.548,0.976
-303.048,948.428,-4.148
-297.924,948.916,-3.66
-306.22,940.376,-3.66
-292.8,941.84,0.732
-284.016,946.476,0.488
-283.528,943.548,3.416
-291.336,944.768,1.464
-305.244,937.204,6.832
-314.272,933.788,10.004
-316.224,933.788,14.152
-310.368,932.08,14.884
-287.92,936.96,10.248
-261.324,952.82,5.124
-242.78,960.14,0.488
-247.172,965.264,-6.344
-260.348,961.36,-9.516
-278.892,954.284,-10.736
-294.996,947.94,-7.564
-295.972,948.916,-0.976
-286.212,946.72,1.708
-274.988,950.624,12.688
-259.128,956.236,20.74
-258.152,952.82,25.62
-271.816,943.304,25.864
-282.308,930.372,20.008
-294.508,922.808,12.444
-290.848,917.44,-0.732
-292.8,919.148,-18.056
-289.14,938.912,-28.548
-274.012,959.408,-33.184
-270.108,969.412,-22.692
-269.132,975.268,-8.784
-269.62,967.216,4.392
-274.012,961.116,12.688
-269.376,959.652,20.496
-253.272,963.556,26.352
-229.604,966.484,30.256
-214.476,959.896,25.132
-208.132,940.132,12.444
-229.36,912.072,-8.052
-273.768,895.48,-26.352
-315.004,890.844,-44.652
-344.04,902.556,-58.56
-344.284,922.32,-61.244
-316.712,944.28,-53.192
-277.184,963.312,-39.284
-250.832,986.004,-13.42
-228.628,1004.304,16.836
-219.112,1018.212,44.896
-216.916,1014.552,69.052
-204.716,998.692,78.324
-197.152,969.412,74.176
-211.792,923.54,48.8
-246.928,889.136,15.86
-289.872,873.764,-9.272
-330.132,874.74,-32.94
-362.096,889.38,-42.456
-357.46,913.78,-50.02
-307.44,942.816,-45.872
-258.152,972.828,-28.06
-216.916,993.812,-2.928
-192.76,1011.136,19.52
-182.268,1020.652,44.408
-186.416,1013.576,60.024
-183.732,988.932,58.56
-189.344,958.188,41.724
-222.284,935.74,17.568
-253.516,924.272,-4.88
-278.404,929.152,-27.572
-296.46,941.352,-39.772
-294.996,951.112,-46.604
-268.156,959.408,-48.556
-250.832,968.68,-40.26
-231.312,980.636,-22.692
-212.036,987.224,-3.172
-209.84,981.124,13.664
-217.892,966.484,22.936
-231.8,954.772,22.448
-245.464,949.892,10.248
-253.516,953.308,-3.172
-251.076,966.972,-11.956
-248.392,970.144,-18.056
-243.512,964.776,-20.74
-234.972,956.48,-19.52
-240.096,941.596,-19.276
-251.808,930.616,-15.128
-267.668,930.128,-8.784
-275.72,936.228,-0.244
-275.964,940.376,3.172
-259.616,948.672,5.368
-249.368,955.504,1.952
-253.516,958.92,1.952
-266.936,960.14,4.148
-285.724,946.964,0.976
-298.9,930.128,-5.612
-305.732,916.22,-5.368
-294.996,912.804,-3.66
-288.896,904.996,-5.856
-290.604,907.924,-17.324
-285.48,918.904,-22.692
-264.74,941.596,-31.232
-255.224,961.36,-35.136
-249.856,972.34,-37.576
-243.756,977.708,-38.308
-246.928,977.952,-33.672
-252.784,970.632,-26.596
-256.2,958.432,-18.3
-266.448,947.696,-9.516
-272.792,941.108,-1.22
-274.988,936.96,-1.464
-274.744,931.836,-6.588
-264.984,937.204,-12.932
-249.856,953.308,-22.936
-246.196,964.776,-27.572
-246.684,968.436,-28.792
-250.588,964.532,-25.864
-252.784,963.8,-25.376
-262.3,957.456,-23.18
-256.688,957.212,-19.032
-241.56,961.116,-18.544
-240.828,967.704,-18.544
-245.464,965.996,-23.424
-240.828,959.652,-25.132
-238.876,956.236,-20.984
-242.048,947.452,-16.592
-246.196,939.156,-14.64
-252.052,939.644,-14.64
-252.784,941.596,-21.228
-264.496,950.868,-28.304
-270.352,955.748,-30.744
-265.228,956.236,-30.744
-265.228,951.356,-29.524
-263.276,951.844,-30.012
-265.228,952.82,-21.96
-258.884,959.652,-17.324
-244.244,961.848,-12.688
-237.9,961.604,-7.808
-241.072,958.92,-5.856
-246.928,949.648,-5.856
-252.052,939.644,-14.396
-262.788,934.52,-28.06
-267.18,929.152,-43.676
-273.036,935.008,-52.704
-277.916,943.792,-51.972
-272.548,946.72,-45.14
-267.912,942.572,-36.112
-270.596,940.864,-21.716
-257.664,944.036,-11.468
-263.276,939.888,-3.904
-269.62,934.276,0.244
-287.92,921.832,-2.196
-313.052,909.144,-14.64
-424.072,900.36,-34.892
-496.052,883.524,-52.948
-570.96,856.44,-67.1
-540.704,811.788,-59.292
-491.172,751.276,-37.088
-490.928,704.672,0.976
-438.224,676.124,58.072
-375.76,641.232,87.108
-319.152,609.024,105.652
-88.084,613.904,96.38
161.772,634.4,51.728
284.992,625.86,49.044
329.888,641.964,56.12
471.408,611.708,48.8
438.712,526.064,55.388
517.036,450.912,74.664
778.36,379.664,57.096
986.492,324.764,-25.864
1095.316,340.38,-0.488
937.204,260.348,27.084
822.28,138.836,49.532
1077.26,73.444,-48.556
1275.144,22.204,-85.4
1271.972,13.664,-84.912
1221.952,-47.58,-50.508
1188.524,-118.096,-34.648
1337.852,-218.624,16.104
1618.696,-233.02,10.492
1718.004,-217.16,25.62
1517.436,-160.552,28.792
1278.072,-116.388,46.848
1413.004,-79.3,14.64
1674.328,-81.496,27.084
1838.052,-129.564,52.948
1844.152,-125.66,67.344
1838.784,-62.952,62.464
1878.556,-11.468,54.168
1875.384,-4.636,16.104
1846.348,-27.572,-21.228
1776.564,-28.548,-34.404
1639.68,-25.864,-33.916
1524.756,-19.52,-36.844
1369.328,-34.648,-57.34
1181.448,0.976,-89.792
1024.312,47.092,-133.224
876.448,80.52,-192.028
749.08,108.824,-225.944
654.896,126.88,-286.944
566.324,146.4,-375.516
463.844,196.664,-433.1
400.892,229.604,-517.768
361.852,274.256,-584.868
322.568,308.172,-621.224
271.328,336.232,-610.488
183.976,327.204,-558.516
96.868,309.148,-510.448
48.068,294.264,-417.24
-13.176,297.68,-320.372
-8.296,317.444,-229.848
-9.272,347.456,-102.236
4.392,346.236,21.96
18.544,333.304,152.012
51.24,328.912,260.592
125.904,375.272,353.312
220.576,338.428,452.864
341.112,324.52,566.324
582.428,327.692,669.292
803.98,321.348,781.532
942.084,337.208,890.356
987.468,346.724,1008.452
1071.892,319.64,1058.472
1261.48,323.544,1052.616
1465.22,353.312,1012.6
1499.868,335.256,969.412
1415.932,297.924,898.408
1386.896,265.716,783.24
1336.876,222.04,596.336
1366.156,226.92,324.032
1409.588,275.476,-6.344
1381.772,339.404,-261.08
1302.472,400.404,-436.272
1234.152,438.956,-617.564
1187.304,481.656,-722.24
1133.136,468.724,-684.908
1081.408,437.004,-609.268
1014.308,401.136,-519.72
1008.452,353.8,-391.132
999.668,328.668,-291.824
1017.48,325.252,-220.82
1086.044,345.748,-172.508
1149.484,373.564,-175.68
1204.872,395.768,-140.788
1254.16,410.896,-87.84
1233.176,412.116,-17.08
1253.672,419.68,35.38
1276.608,445.788,57.34
1284.904,451.644,56.608
1239.032,465.552,61.244
1175.592,481.412,59.048
1076.284,526.064,48.312
958.432,555.832,52.46
874.74,597.068,62.464
824.476,622.932,47.824
727.608,665.388,43.432
626.836,699.06,37.332
543.632,729.56,43.92
484.584,759.572,27.816
431.148,782.264,23.912
394.06,801.784,31.72
315.004,802.76,13.664
213.988,800.076,7.564
99.796,784.216,6.344
-1.22,788.608,-10.492
-86.376,784.704,-15.128
-144.448,803.004,9.272
-192.516,822.036,37.088
-156.404,832.528,35.38
-148.108,815.692,46.848
-206.668,797.148,84.18
-304.512,801.052,108.58
-385.52,803.736,126.636
-450.668,802.028,132.004
-477.996,811.056,114.192
-454.328,849.608,79.544
-452.864,895.968,64.172
-445.3,928.664,48.068
-404.796,944.036,43.676
-335.256,942.328,25.376
-292.8,935.74,12.688
-269.376,942.816,10.248
-247.416,968.68,13.664
-226.676,995.276,20.984
-215.452,999.668,27.328
-203.252,988.688,30.988
-221.796,966.972,38.064
-239.608,955.992,49.044
-264.252,946.964,60.512
-283.528,945.988,69.784
-277.916,953.552,64.172
-267.912,953.064,57.828
-239.12,956.236,44.896
-225.212,961.604,33.428
-222.04,972.584,33.672
-242.78,966.484,28.548
-266.692,954.528,21.716
-281.576,949.16,19.764
-272.06,945.5,21.472
-264.008,943.548,20.984
-260.348,945.5,20.496
-252.052,947.208,18.056
-248.392,948.672,18.056
-251.32,949.404,23.18
-252.052,946.964,29.768
-241.56,951.6,38.796
-229.848,959.164,46.116
-223.26,958.92,42.7
-221.064,957.456,44.408
-214.72,957.944,38.796
-210.816,962.58,36.6
-213.256,964.044,34.16
-232.044,954.04,26.84
-255.468,942.572,19.276
-264.984,945.012,10.98
-266.204,949.892,10.736
-251.564,953.308,14.64
-232.532,956.724,20.74
-215.696,958.676,31.232
-217.404,960.384,45.14
-222.04,958.676,46.36
-231.068,951.844,39.284
-244.0,953.308,29.28
-251.808,962.58,24.4
-230.824,981.612,21.472
-214.232,985.028,23.424
-202.032,979.904,26.352
-201.544,966.24,25.864
-218.624,960.872,19.52
-232.776,962.824,21.228
-233.508,959.408,24.4
-223.992,952.576,28.304
-223.992,949.648,34.404
-218.38,952.332,29.524
-217.16,952.332,24.644
-212.036,955.992,17.324
-211.792,966.24,14.152
-211.304,975.756,11.224
-211.304,978.44,12.932
-208.864,973.072,18.3
-209.84,961.848,22.692
-216.916,959.896,20.496
-213.5,967.46,13.908
-210.572,973.56,12.444
-207.156,975.024,9.028
-206.912,973.316,11.712
-206.912,965.508,15.372
-217.404,952.82,17.812
-231.556,940.376,20.74
-234.484,934.276,20.74
-226.676,943.548,18.788
-208.864,958.92,17.812
-187.636,969.168,15.372
-183.488,976.488,6.832
-188.856,982.832,-0.732
-186.66,987.956,-9.028
-188.856,990.396,-7.808
-189.344,985.028,-6.588
-197.396,968.68,0.488
-209.596,957.7,4.392
-223.016,947.94,3.416
-228.872,941.352,5.856
-219.844,942.084,9.028
-223.016,944.524,7.076
-221.308,947.208,4.636
-200.08,962.336,5.368
-182.512,974.048,2.928
-176.9,981.612,0.732
-175.436,984.296,0.0
-174.46,983.564,-7.808
-185.196,977.708,-12.444
-194.224,970.388,-7.32
-190.564,970.876,-0.488
-193.248,968.68,4.392
-207.156,960.384,4.88
-214.232,952.332,5.368
-215.208,947.94,0.488
-210.084,954.284,1.952
-198.86,965.996,3.416
-189.832,965.508,-0.488
-191.296,965.752,-0.976
-205.448,962.824,-5.612
-226.92,962.824,-11.712
-237.656,960.628,-15.372
-235.948,962.092,-12.688
-226.92,966.728,-1.22
-213.012,967.46,9.272
-203.008,967.704,16.348
-203.496,965.508,20.984
-208.864,960.14,19.032
-215.94,956.724,15.616
-230.336,960.384,1.952
-240.34,960.384,-14.396
-238.388,957.7,-17.324
-227.408,963.312,-14.64
-219.6,967.948,-13.908
-219.844,965.02,-11.712
-223.992,959.652,-6.588
-230.092,956.236,-4.392
-235.46,954.284,-1.464
-238.388,958.676,0.488
-233.264,956.724,-1.952
-221.308,965.02,-3.66
-206.912,971.608,-4.148
-206.18,965.508,-8.54
-211.304,961.36,-15.128
-223.016,954.04,-23.912
-236.436,943.304,-29.036
-241.072,942.572,-32.208
-238.144,948.672,-34.892
-241.56,951.844,-32.208
-239.852,960.14,-21.96
-229.604,962.824,-9.272
-232.776,957.212,-5.368
-233.508,955.748,-3.416
-229.116,960.14,-6.1
-223.504,966.972,-7.076
-209.84,978.44,-10.736
-198.372,981.124,-13.42
-194.468,978.44,-22.204
-204.96,974.78,-30.5
-227.164,968.192,-33.428
-243.512,963.068,-33.184
-247.172,959.652,-28.06
-245.952,953.796,-22.936
-237.656,953.064,-12.688
-233.264,957.212,5.856
-226.676,963.312,17.324
-226.676,954.528,17.08
-230.824,950.624,0.244
-233.752,950.624,-10.98
-233.996,962.092,-20.252
-231.068,969.412,-31.476
-230.336,967.216,-38.308
-234.728,958.432,-34.16
-241.072,952.332,-28.304
-245.952,943.06,-22.204
-251.564,933.056,-16.348
-258.884,934.52,-12.2
-258.152,937.692,-7.32
-254.492,938.668,-6.588
-280.6,927.2,-10.004
-365.268,921.588,-20.496
-445.788,906.704,-32.208
-535.58,891.82,-52.216
-505.812,843.02,-51.728
-471.164,785.68,-46.36
-460.184,745.664,-13.664
-413.092,736.148,42.944
-310.856,711.748,75.884
-170.312,703.452,71.004
-110.288,730.78,39.284
16.348,741.028,46.36
149.084,742.736,27.572
217.648,718.824,6.344
243.024,717.36,31.232
260.592,669.536,49.288
418.704,586.576,38.796
596.092,525.088,35.868
582.672,453.352,81.74
520.94,334.28,80.52
590.724,194.712,42.212
910.608,132.248,-15.616
1318.088,102.968,-62.708
1430.328,62.22,-12.932
1233.42,-35.624,70.76
1162.66,-118.584,131.028
1320.284,-178.12,126.88
1688.724,-152.988,93.696
1682.868,-108.092,83.692
1515.728,-83.692,69.54
1378.6,-40.016,58.316
1241.472,3.66,51.24
1214.632,38.552,31.964
1270.996,28.548,17.568
1317.356,-13.908,42.944
1333.948,-38.308,74.664
1417.884,-37.088,93.94
1485.716,-9.272,128.832
1614.304,9.272,134.444
1767.048,-10.248,218.624
1890.756,57.828,233.264
1984.452,102.968,217.892
1988.6,127.124,155.184
1982.744,147.864,85.156
1874.408,139.08,19.52
1693.116,131.76,2.684
1517.924,87.596,-5.124
1311.988,14.884,-36.844
1042.124,0.244,-85.888
864.492,7.32,-142.74
705.16,27.816,-222.04
548.268,45.628,-303.048
392.108,80.276,-384.3
255.956,112.484,-445.056
124.44,146.156,-523.38
32.696,168.116,-582.672
-1.708,158.844,-632.936
-8.54,181.78,-637.328
-41.236,240.584,-560.956
-109.068,278.892,-481.168
-153.72,311.588,-361.852
-156.648,324.764,-215.696
-43.188,335.744,-68.808
83.692,382.836,94.184
183.0,409.432,255.224
177.876,404.064,407.48
179.828,416.02,533.14
282.308,442.616,652.7
497.028,474.092,753.716
734.196,479.216,839.848
943.792,488.976,899.628
989.908,529.968,953.552
944.524,526.064,973.316
1019.432,534.848,937.204
1179.74,574.376,884.744
1305.4,568.032,842.288
1415.688,531.432,746.396
1372.5,479.216,620.736
1259.772,469.7,451.156
1180.228,477.02,247.172
1178.764,515.572,40.016
1181.448,545.096,-141.032
1114.348,560.956,-257.908
1059.936,547.536,-302.072
1057.74,528.504,-401.868
1105.808,536.556,-510.936
1161.684,535.092,-514.352
1207.8,523.38,-451.156
1226.832,480.924,-393.328
1194.624,454.572,-318.908
1133.38,451.156,-230.092
1062.864,454.572,-156.16
1064.328,454.816,-83.936
1111.42,451.4,-16.836
1174.86,453.108,45.628
1195.844,484.096,92.72
1134.112,530.7,99.552
1049.444,564.616,101.26
979.172,591.7,104.676
1000.4,629.764,92.964
977.22,664.9,101.26
855.464,717.848,111.02
743.224,742.98,114.436
680.028,773.48,105.652
615.368,791.78,104.432
534.36,819.84,97.6
449.692,831.552,93.94
324.52,822.28,91.5
258.152,811.788,94.184
165.188,811.544,104.432
58.56,822.036,114.436
-6.832,819.352,117.608
-67.1,801.784,134.444
-107.116,805.444,153.232
-136.884,811.056,151.768
-127.124,820.572,111.996
-172.508,823.5,85.4
-263.276,817.888,70.272
-353.8,809.348,53.68
-408.7,806.664,32.696
-442.128,820.572,8.784
-442.128,850.828,-11.956
-431.636,884.744,-34.892
-427.244,910.608,-49.532
-400.648,925.248,-63.684
-324.276,945.012,-70.272
-250.588,966.484,-72.712
-210.816,985.272,-58.072
-206.18,994.3,-33.916
-212.768,988.932,-13.908
-216.184,966.484,-12.444
-220.332,940.864,-18.3
-219.844,927.932,-12.688
-216.672,919.392,10.492
-187.148,919.148,22.448
-174.704,928.908,33.428
-210.572,941.84,34.648
-246.44,953.308,27.084
-248.392,964.776,18.788
-225.944,985.028,-1.952
-224.724,998.204,-11.712
-231.556,1019.92,-9.272
-225.944,1029.436,3.416
-196.664,1037.976,21.228
-172.508,1023.824,35.136
-169.336,992.592,31.476
-208.132,976.732,66.124
-198.616,957.456,34.16
-183.976,956.48,27.816
-209.84,973.316,9.516
-240.828,975.024,10.736
-244.488,970.144,24.644
-215.208,953.064,20.252
-207.644,931.836,20.496
-219.356,922.076,21.472
-234.24,911.584,40.26
-225.456,917.928,63.928
-208.376,938.668,67.344
-195.444,959.164,69.54
-193.248,982.832,71.492
-175.68,1004.06,65.636
-174.216,1006.744,40.016
-206.668,988.444,18.544
-262.788,982.832,3.904
-312.076,985.272,5.856
-301.828,993.812,15.128
-246.196,967.46,18.544
-199.836,932.324,-2.196
-201.544,892.064,-26.352
-244.0,866.932,-40.26
-296.46,870.104,-41.236
-320.86,915.488,-19.764
-279.38,963.068,7.076
-246.928,975.268,36.6
-226.432,970.876,47.092
-203.74,956.236,40.016
-193.736,946.476,39.04
-180.072,944.28,33.916
-180.56,951.6,9.272
-211.06,953.796,-17.568
-235.948,951.356,-31.964
-233.02,944.524,-38.796
-217.648,943.792,-51.24
-195.444,950.38,-50.752
-175.192,972.096,-44.652
-164.944,982.588,-34.16
-178.852,1003.816,-40.504
-178.364,1009.184,-38.064
-169.336,1014.308,-35.624
-187.636,1030.412,-30.5
-211.792,1028.216,-22.448
-199.348,1013.332,-14.64
-181.536,984.54,-16.348
-169.58,952.088,-17.812
-158.356,929.884,-10.004
-153.476,922.564,-0.488
-148.108,936.716,0.244
-152.012,953.552,-13.664
-164.7,955.016,-17.324
-164.212,950.624,-12.932
-166.896,946.476,-22.448
-205.692,948.916,-21.228
-195.688,973.316,-8.784
-157.136,994.544,4.392
-131.272,1009.428,16.592
-118.584,1011.136,14.396
-125.172,1017.236,22.692
-138.836,1034.316,36.356
-131.516,1032.12,48.068
-130.296,1010.404,44.652
-131.516,982.1,46.116
-134.444,952.82,45.628
-134.932,926.224,29.768
-139.568,911.584,18.3
-171.044,918.904,17.08
-181.048,944.768,18.788
-185.44,964.776,27.572
-208.132,967.216,41.724
-220.576,968.68,54.412
-206.668,974.292,57.828
-208.376,972.828,51.24
-212.524,980.148,39.04
-210.816,984.54,25.376
-226.188,973.316,22.448
-251.564,967.948,24.156
-299.632,960.628,32.696
-415.532,936.472,44.408
-509.228,896.944,56.852
-454.328,831.308,82.472
-366.0,763.964,100.04
-330.62,711.016,95.648
-295.24,678.564,100.772
-282.796,672.22,80.52
-195.2,675.392,68.564
-73.688,682.712,41.968
124.684,691.496,24.4
306.952,668.56,6.1
443.348,668.56,17.568
399.916,663.924,40.016
267.912,600.484,70.028
348.92,562.42,58.56
696.62,535.092,33.428
987.224,507.764,42.7
1041.88,527.284,36.844
930.616,532.164,48.068
794.22,492.636,40.016
826.672,459.452,-3.172
1185.108,457.012,-21.96
1297.836,415.044,35.38
1089.46,293.044,62.952
1001.132,252.296,103.212
1161.44,181.048,136.884
1370.304,30.5,102.48
1514.508,7.32,97.112
1451.068,-24.644,136.396
1337.852,-29.768,147.376
1373.476,-45.384,117.852
1408.612,-19.764,90.036
1261.48,9.516,69.296
1195.356,18.544,48.312
1118.984,11.712,35.868
1098.0,21.228,27.084
1100.44,-3.66,32.452
1066.036,-20.252,48.068
1029.436,-22.448,58.804
988.688,-25.376,77.836
1008.208,-26.352,81.252
1051.884,-21.96,76.372
1114.836,-4.148,93.208
1179.74,55.144,135.42
1304.18,140.788,158.356
1516.46,217.404,193.248
1785.104,265.472,212.036
2060.092,245.708,237.168
2246.02,220.576,203.984
2243.336,201.788,161.772
2142.564,143.472,103.212
1931.992,72.224,58.316
1662.86,10.736,16.836
1434.232,-66.368,-3.66
1208.776,-127.612,-13.664
990.64,-154.94,-58.072
754.692,-152.012,-110.532
593.408,-100.284,-197.396
452.376,-40.26,-273.768
362.828,24.888,-375.272
292.312,64.66,-428.464
233.752,90.036,-459.208
168.36,142.252,-472.872
136.64,199.348,-467.26
106.384,251.564,-430.416
50.264,337.208,-374.54
25.376,381.86,-317.932
-5.856,418.948,-260.836
-73.444,443.592,-187.88
-53.436,483.608,-94.428
42.7,462.868,18.3
145.18,432.612,166.652
280.112,387.472,313.784
394.304,348.188,468.236
409.432,303.78,610.732
524.356,314.76,704.672
797.636,368.44,773.724
953.308,400.16,906.46
991.372,401.868,1036.756
1023.824,360.144,1076.284
1097.024,410.408,1095.072
1239.276,452.132,1094.34
1381.284,426.024,1034.56
1359.568,391.62,968.68
1265.872,355.996,847.412
1221.22,347.944,631.472
1267.092,365.024,410.896
1261.968,380.396,165.432
1211.46,419.68,-85.888
1138.26,463.6,-223.504
1112.884,467.016,-284.504
1119.716,455.304,-344.528
1096.048,475.312,-400.404
1049.932,464.088,-405.284
1028.704,492.88,-424.072
1018.212,515.328,-417.484
1075.796,546.316,-374.296
1087.02,510.692,-283.772
1100.44,477.508,-173.728
1066.768,447.74,-52.948
1055.3,429.44,14.152
1077.504,441.396,86.62
1141.92,453.84,133.712
1213.168,456.28,159.088
1243.668,459.452,194.956
1205.604,432.368,214.964
1152.168,442.128,211.792
1146.556,481.656,192.516
1125.816,542.412,158.112
1059.448,611.952,121.756
959.652,653.432,104.92
846.436,669.536,116.388
757.62,688.08,123.464
650.992,706.868,157.136
604.876,732.732,192.028
575.596,751.032,200.324
542.9,743.712,205.692
470.432,736.636,236.68
436.516,742.492,244.488
409.188,749.08,219.844
356.24,727.364,210.328
231.068,716.872,198.372
102.236,726.144,177.876
3.172,764.452,172.508
-85.4,791.536,162.504
-91.744,824.476,130.052
-21.96,826.672,66.368
-63.928,787.144,32.452
-321.836,693.204,-26.352
-725.412,675.148,-78.08
-905.972,735.66,-118.584
-872.788,797.88,-172.996
-703.94,845.216,-143.228
-586.82,856.44,-99.552
-464.088,844.24,-22.692
-320.128,838.628,68.564
-158.112,861.076,79.788
-34.404,941.108,51.24
-44.408,1032.608,44.164
-225.212,1071.404,20.496
-363.072,1048.712,-29.524
-327.936,1019.432,-48.312
-233.02,1011.624,-26.352
-173.728,1003.084,26.596
-196.908,964.044,59.78
-279.624,902.312,97.6
-296.948,869.86,98.088
-256.932,881.572,91.5
-223.992,926.468,81.008
-216.184,957.7,60.024
-223.992,971.364,43.432
-267.668,964.776,42.212
-279.38,953.552,42.212
-203.008,960.872,43.92
-163.724,971.852,57.096
-159.82,982.588,66.124
-171.044,987.468,62.22
-210.328,980.392,60.512
-218.136,975.024,49.044
-191.296,974.536,35.868
-167.384,991.616,37.576
-167.628,997.228,42.212
-179.828,986.492,52.216
-204.472,962.58,61.976
-196.42,944.28,67.588
-189.588,940.132,67.832
-208.376,939.156,70.516
-213.256,943.304,77.348
-211.06,946.476,78.08
-208.376,947.696,85.644
-205.692,945.256,73.932
-183.244,952.576,67.1
-172.508,970.388,68.808
-154.208,990.152,59.536
-157.38,992.104,50.508
-160.064,991.128,43.432
-146.156,980.636,40.26
-136.884,981.612,37.82
-128.832,976.732,35.868
-140.056,972.34,28.06
-162.016,965.752,34.16
-153.232,972.828,41.968
-132.736,976.976,43.92
-123.22,986.736,56.364
-106.872,992.592,62.22
-107.848,985.76,69.052
-120.048,977.22,64.904
-141.764,971.852,58.804
-140.544,972.584,50.508
-154.94,983.076,45.872
-139.324,986.98,36.844
-116.388,993.08,34.16
-111.508,991.372,37.088
-109.068,986.98,44.164
-125.904,984.784,57.096
-114.192,973.56,54.168
-117.364,975.756,53.436
-124.196,975.268,48.312
-118.096,988.2,43.188
-112.972,990.396,41.724
-115.412,984.296,37.332
-124.44,978.684,38.064
-105.896,973.072,27.328
-116.144,974.292,30.744
-134.688,975.268,37.088
-124.196,971.608,41.48
-121.512,972.096,50.264
-97.6,973.804,50.752
-97.6,980.88,50.752
-98.088,981.612,51.972
-95.648,984.052,50.996
-103.7,982.1,47.58
-121.512,981.612,39.772
-122.244,979.172,37.332
-114.924,979.66,42.7
-104.188,977.464,47.824
-84.912,980.88,51.728
-73.688,985.272,51.484
-79.788,988.688,49.776
-96.38,993.568,52.46
-99.064,993.812,50.996
-95.648,995.276,48.312
-92.72,990.64,44.652
-97.356,986.98,46.116
-99.064,982.588,44.896
-104.676,983.564,40.016
-100.528,989.42,37.332
-99.064,989.664,46.36
-94.184,983.076,49.776
-85.644,981.612,56.364
-86.376,976.976,59.292
-90.28,976.976,55.144
-99.308,980.636,51.728
-105.164,987.468,46.604
-115.168,988.444,47.824
-111.752,979.172,47.824
-115.412,973.804,49.532
-113.948,980.148,53.436
-103.7,983.076,52.46
-94.916,987.224,52.216
-98.088,990.884,50.264
-97.356,989.908,49.044
-97.6,989.42,49.532
-90.28,992.104,48.312
-92.72,996.74,50.996
-98.82,996.74,49.288
-96.136,990.884,50.264
-100.284,979.904,48.8
-111.264,965.752,47.824
-127.368,955.016,44.652
-137.86,953.064,44.408
-132.736,956.968,42.944
-140.788,952.332,44.652
-154.94,949.16,45.384
-148.108,946.232,42.7
-149.084,944.524,44.164
-148.108,941.596,50.508
-143.472,933.544,59.78
-118.828,934.032,65.88
-107.604,930.128,58.316
-94.916,943.548,42.944
-65.148,966.484,30.744
-23.18,993.324,23.424
16.836,998.692,15.128
20.984,993.324,21.96
40.016,990.64,27.084
13.664,985.272,40.748
2.196,979.904,47.092
-45.384,965.508,42.456
-114.68,929.152,37.088
-150.06,894.748,20.252
-130.54,878.644,8.296
-58.56,871.568,3.416
-30.988,858.88,17.812
-45.384,832.284,23.912
-49.776,805.2,39.528
41.48,775.676,43.432
224.968,753.96,73.688
320.616,742.004,113.216
377.956,719.312,132.492
471.896,683.2,142.984
547.536,629.276,134.688
500.444,583.404,138.104
604.144,589.504,153.964
769.82,558.272,147.864
745.176,469.944,186.172
825.94,425.78,153.72
983.564,408.944,154.696
869.128,342.088,171.776
803.736,287.188,185.44
1080.432,233.02,165.188
1266.848,203.252,153.232
1329.556,189.832,116.388
1022.116,136.396,159.576
1026.02,113.704,142.984
1365.668,68.32,127.368
1389.336,52.704,154.208
1390.068,34.16,150.548
1198.04,25.864,187.88
1073.6,34.16,170.312
1225.856,47.58,118.096
1314.428,16.592,128.344
1287.1,-15.616,152.012
1252.208,-44.408,175.192
1219.756,-17.08,170.312
1229.028,32.452,164.944
1251.964,60.024,153.964
1346.88,59.292,173.728
1608.692,43.188,243.512
2038.132,104.432,277.672
2294.332,185.684,249.856
2213.812,154.696,206.18
2094.008,183.976,141.52
2037.888,172.996,61.976
1874.896,117.852,14.64
1608.936,25.62,-10.492
1341.512,-25.132,-66.368
1046.516,-27.572,-110.532
809.836,1.464,-144.448
628.3,19.764,-183.244
492.88,19.52,-199.592
390.156,29.524,-204.96
276.94,38.796,-231.068
152.744,68.564,-288.164
79.788,109.556,-332.084
77.836,145.668,-391.864
111.752,189.832,-430.416
118.828,253.516,-437.004
114.436,341.112,-389.18
87.108,391.62,-338.184
66.124,430.416,-281.82
77.348,452.864,-203.008
110.044,467.016,-113.704
185.684,490.196,8.54
267.912,496.296,154.208
350.14,460.672,318.664
437.248,420.656,469.456
524.844,402.356,645.624
636.108,413.092,782.02
787.388,426.024,886.696
938.18,433.588,970.388
994.056,428.708,1023.58
986.98,447.496,1044.808
990.884,457.744,1001.376
1081.408,471.408,933.788
1150.704,501.42,818.62
1146.068,497.516,702.964
1129.232,455.548,605.608
1122.4,421.144,520.94
1165.832,368.928,432.612
1249.524,321.836,295.728
1288.564,328.424,121.268
1234.396,359.168,-27.084
1151.192,389.668,-135.908
1188.524,446.032,-350.384
1211.216,470.676,-475.068
1196.82,467.992,-465.796
1158.512,435.296,-404.552
1121.912,365.512,-294.264
1098.976,326.716,-197.884
1079.212,338.916,-105.896
1062.864,361.364,-52.46
1050.176,375.028,-9.272
1096.536,394.548,-0.976
1084.58,391.132,9.272
1051.396,440.908,21.472
1093.364,485.56,43.676
1158.512,504.836,73.688
1199.016,490.196,116.632
1246.108,458.476,167.14
1206.336,458.476,198.372
1125.816,488.0,222.04
1031.388,537.288,223.504
1012.356,581.208,192.272
950.624,619.028,178.12
918.416,656.848,154.696
852.292,664.656,145.18
746.396,684.42,167.628
660.508,701.744,178.364
595.36,715.408,180.804
559.98,722.24,201.788
555.588,740.052,211.304
538.508,736.148,217.892
442.86,726.876,230.092
323.056,707.844,236.436
253.76,704.184,237.168
166.652,717.116,244.244
67.588,717.604,219.6
-97.844,677.1,189.832
-320.128,658.8,161.772
-491.416,703.452,120.78
-561.2,808.86,57.096
-437.98,877.912,-10.98
-243.268,916.22,-82.472
-75.64,968.436,-88.084
0.488,1006.012,-49.288
-52.216,997.228,4.392
-107.116,988.932,29.768
-67.344,993.324,21.228
-47.824,1008.452,16.348
-77.592,1034.56,32.452
-94.672,1028.46,44.164
-80.276,1007.72,59.048
-30.744,988.444,73.688
28.548,986.004,84.668
74.42,991.128,88.572
86.376,1003.816,72.468
68.32,992.592,57.584
38.308,980.636,45.384
17.324,978.196,31.72
20.008,1004.06,29.524
23.18,1004.792,22.936
-1.464,998.448,39.772
-58.56,984.784,78.08
-66.856,973.316,102.236
-31.72,980.88,111.508
-11.956,990.152,121.024
8.54,1008.94,130.784
7.808,1015.04,140.3
13.664,1008.208,141.276
11.224,1005.768,141.032
-8.296,998.204,132.492
-31.476,988.932,124.44
-36.112,986.736,114.924
-8.784,992.104,110.532
9.516,990.396,93.208
3.904,974.292,75.884
-15.372,961.36,68.564
-34.892,949.16,71.98
-65.148,939.644,79.3
-88.328,938.424,87.352
-102.724,947.208,90.28
-99.064,960.14,79.788
-76.372,983.32,77.836
-14.884,999.668,72.468
25.864,1002.84,72.224
30.256,993.812,80.032
6.1,980.148,95.648
-23.18,967.704,107.848
-51.728,959.408,102.724
-59.048,963.068,85.644
-36.112,977.952,70.516
-29.036,998.204,63.928
-12.2,1016.26,62.952
7.32,1026.264,69.296
11.224,1027.24,79.3
7.564,1018.944,92.232
13.42,1013.82,98.82
30.012,1006.012,98.332
30.5,997.96,88.084
2.684,986.736,79.3
-18.056,977.22,69.296
-38.308,977.952,71.98
-55.876,970.144,71.492
-45.14,977.708,76.128
-14.64,982.832,88.572
11.956,977.464,90.524
30.5,976.732,81.496
33.672,974.292,70.516
33.428,986.492,58.56
21.472,990.152,45.14
5.612,996.74,33.428
-6.1,1005.036,35.38
-17.324,1010.648,46.36
-26.596,1003.328,65.392
-17.324,993.324,82.472
2.928,986.492,89.304
2.928,987.712,92.476
-9.028,988.444,95.648
-26.352,989.664,96.624
-38.552,992.104,95.892
-31.232,996.984,95.404
-8.54,993.08,94.428
19.52,986.004,87.84
18.056,976.732,81.74
9.76,978.928,70.028
-6.1,976.244,55.388
-7.32,977.952,44.164
-14.152,979.904,40.016
-16.836,987.224,44.896
-9.516,995.764,61.488
0.488,991.372,78.568
-2.928,977.952,92.232
-15.86,970.144,92.72
-18.3,969.9,84.18
-25.62,977.464,77.836
-29.28,990.884,73.932
-15.616,999.912,75.884
22.692,1004.548,75.152
60.512,1004.304,76.86
70.028,1004.06,73.2
56.12,1001.62,69.54
36.112,999.18,67.832
31.476,998.204,64.172
14.64,990.64,59.048
-4.148,990.884,65.392
-10.248,994.056,76.372
-3.172,991.128,78.324
2.196,995.276,72.468
10.248,1005.524,66.612
16.104,1012.356,64.66
12.688,1006.012,70.272
19.52,996.496,83.692
24.4,975.756,85.156
16.348,963.068,83.692
-12.932,961.604,82.472
-40.016,967.46,76.128
-48.556,970.632,71.004
-49.044,972.096,62.464
-34.892,972.828,61.488
-32.94,978.196,56.608
-49.288,989.664,62.464
-74.42,992.104,71.004
-106.628,990.152,76.372
-232.044,991.616,64.172
-201.056,976.488,61.488
-130.54,932.08,36.844
-126.148,899.14,42.456
-127.368,872.544,53.192
-183.244,859.612,72.224
-225.7,846.192,84.18
-169.336,824.232,72.224
-89.792,791.78,55.388
-14.396,762.988,68.32
103.212,744.2,79.788
140.788,701.256,90.28
90.036,674.66,113.704
104.188,625.616,100.04
291.824,589.26,65.392
566.324,572.424,59.048
633.18,537.776,53.192
532.408,528.992,86.62
517.036,512.156,48.556
772.504,492.636,18.056
1097.756,481.168,35.136
1134.356,446.276,73.444
896.212,317.688,155.672
793.732,223.26,182.024
1061.4,191.54,113.948
1340.048,182.756,94.916
1339.316,136.152,118.828
1316.868,66.368,87.84
1314.428,21.228,110.288
1337.608,21.472,101.504
1384.7,93.208,68.32
1269.776,88.084,39.284
1262.944,77.104,35.38
1240.496,22.448,90.28
1318.576,-9.028,111.264
1393.972,-1.708,115.656
1361.276,16.836,129.076
1322.724,67.588,161.04
1471.32,129.808,182.756
1738.988,163.236,203.496
1960.296,185.928,245.952
2118.164,312.32,232.532
2117.92,326.472,218.136
2227.232,250.1,147.132
2294.82,170.068,79.056
2066.436,86.864,104.676
1689.212,-33.916,95.892
1272.216,-77.104,60.756
949.648,-76.128,-15.616
830.088,-4.148,-22.204
685.884,-18.788,-88.328
480.924,-40.992,-120.048
310.124,-36.112,-182.512
228.628,-8.784,-278.648
147.132,46.604,-390.156
153.964,101.26,-483.364
174.704,180.316,-584.868
201.056,279.136,-687.836
179.584,388.448,-695.644
169.58,463.112,-650.992
198.128,476.288,-582.428
204.716,493.856,-477.264
185.684,496.296,-321.836
118.584,467.504,-170.556
142.984,398.94,56.852
213.012,339.648,249.124
234.484,284.748,462.868
279.868,269.864,650.748
252.54,262.788,869.128
289.628,228.14,1051.396
598.532,286.212,1140.212
878.4,334.28,1176.568
1005.768,392.108,1203.896
991.86,410.164,1220.976
1081.896,388.204,1158.024
1195.112,380.884,1026.508
1354.932,452.864,854.244
1373.232,450.668,722.24
1290.028,363.56,652.7
1280.268,244.488,561.444
1365.912,234.484,239.608
1378.112,383.568,-210.084
1259.04,625.372,-608.78
1241.96,769.576,-868.152
1245.864,816.668,-947.94
1222.44,771.284,-831.064
1150.46,624.396,-539.728
1091.9,495.076,-267.18
1051.396,410.164,-101.748
1103.368,394.06,5.856
1119.716,446.764,51.972
1166.564,500.688,51.24
1142.896,551.44,52.704
1183.888,566.324,47.336
1269.776,567.3,72.956
1397.876,560.468,97.112
1400.072,556.076,149.084
1303.692,559.736,197.64
1164.124,542.168,249.368
1047.248,537.532,278.648
924.272,568.52,272.304
766.892,597.312,230.824
523.624,605.364,214.476
287.92,607.56,246.928
115.168,595.604,260.592
5.124,585.356,244.732
-111.264,595.116,238.388
-151.28,626.348,199.592
-157.136,667.828,162.26
-148.108,724.68,118.828
-191.052,794.464,74.42
-195.444,872.056,39.772
-223.504,927.444,26.108
-221.064,969.656,13.42
-198.616,995.764,3.172
-203.496,1001.62,10.004
-205.692,999.424,24.156
-198.86,984.54,36.356
-142.252,974.78,48.312
-45.384,957.212,46.36
11.224,953.064,54.168
48.8,977.22,46.604
29.28,989.664,45.628
-5.856,995.276,36.6
-7.808,993.812,28.548
-2.44,1004.792,31.964
2.684,1004.548,47.824
16.592,1005.28,78.08
23.668,1009.916,101.504
33.428,998.692,130.54
53.436,986.004,136.396
51.484,966.728,131.76
61.976,968.924,116.144
102.48,998.204,103.944
107.604,1020.652,96.624
90.036,1023.824,85.888
72.468,1024.312,71.736
36.112,1008.94,70.76
30.988,997.716,69.052
19.52,980.636,62.22
-6.1,960.628,48.068
-25.864,964.776,37.82
-40.016,983.076,44.896
-37.82,1000.888,56.608
-6.1,1000.156,70.028
3.172,989.42,78.08
-15.616,974.536,87.596
-30.256,967.704,86.376
-39.528,965.02,75.64
-36.356,980.392,71.98
-19.032,1006.5,62.952
-6.1,1016.504,54.168
3.904,1016.504,45.384
19.032,1017.724,38.796
32.452,1023.092,35.624
34.648,1022.116,36.6
15.372,1016.016,40.992
-2.44,1000.644,46.604
-6.588,995.52,50.996
-12.2,990.152,56.608
-5.368,990.396,51.24
-16.592,979.172,47.092
-43.676,962.092,47.824
-66.368,950.624,53.924
-72.956,946.476,62.708
-55.876,951.844,64.66
-34.404,953.796,56.608
-34.892,964.776,50.264
-33.672,980.88,40.504
-40.016,988.444,34.16
-26.84,1005.036,38.064
-20.008,1004.304,28.792
-25.864,994.056,13.908
-33.672,997.96,11.468
-50.02,1003.816,12.932
-69.052,1002.108,18.788
-73.2,1001.132,27.816
-63.684,984.54,37.576
-52.948,967.46,47.58
-39.284,951.844,53.924
-32.696,945.744,61.976
-22.204,950.624,50.02
-38.308,952.576,29.524
-60.512,960.872,11.224
-64.904,976.244,-4.392
-58.804,997.472,-13.176
-50.264,1017.236,-16.836
-38.308,1031.388,-10.492
-28.06,1038.22,3.172
-1.708,1043.832,22.936
1.708,1037.732,41.968
6.344,1023.58,59.292
-1.22,1005.524,73.2
-7.076,983.808,74.42
-17.08,965.02,67.344
-33.916,946.964,46.36
-55.388,938.912,24.156
-62.464,944.036,1.708
-59.78,960.628,-15.372
-61.488,976.0,-22.204
-56.852,988.932,-24.644
-47.824,1001.864,-17.568
-33.184,1012.112,-6.344
-21.716,1014.064,11.956
-23.912,1010.892,26.352
-24.156,1008.452,38.552
-17.568,1006.256,50.02
-6.588,998.448,53.924
0.732,985.76,50.264
-5.368,978.44,40.748
-24.156,969.656,28.06
-43.432,969.412,16.836
-60.512,964.776,5.368
-65.636,961.36,-0.488
-63.928,958.432,-6.832
-48.312,968.68,-1.708
-28.304,988.2,11.468
0.0,1011.136,27.816
14.884,1022.116,42.456
43.92,1039.684,59.536
71.004,1046.76,66.612
76.372,1038.464,60.512
30.744,1018.212,38.796
-18.544,997.96,22.692
-57.096,982.588,3.416
-67.344,978.196,-9.76
-67.832,975.756,-14.64
-61.488,967.948,-11.956
-41.236,964.044,-9.028
-35.38,962.58,0.488
-37.088,969.412,5.124
-41.236,981.612,7.808
-40.748,993.324,8.296
-30.744,1005.524,9.76
-30.012,1006.5,12.2
-31.232,1002.108,17.568
-21.472,1000.4,25.376
-11.468,999.912,25.62
-5.612,990.884,21.96
-10.492,986.004,17.812
-18.788,982.344,14.64
-21.472,983.32,13.664
-25.864,984.052,7.076
-33.672,988.2,-2.44
-34.648,997.716,-1.952
-23.18,1005.28,-2.44
-22.936,1006.256,1.22
-33.184,998.936,9.028
-30.256,989.664,16.104
-23.668,979.904,23.424
-26.596,976.732,28.548
-24.644,976.244,25.376
-35.624,974.78,20.496
-41.48,979.172,15.128
-35.624,986.98,10.492
-23.424,994.544,4.636
-13.664,997.472,-3.66
-20.252,998.692,-8.784
-17.812,1001.62,0.244
-11.712,997.228,11.468
-24.4,981.124,16.836
-44.164,965.996,19.276
-72.956,954.772,15.86
-110.532,946.964,8.54
-172.02,938.424,-5.856
-221.796,927.688,-22.936
-289.14,894.26,-47.824
-350.384,843.508,-62.952
-379.176,784.46,-78.324
-327.936,739.32,-73.444
-272.304,717.848,-46.604
-245.952,707.6,-1.952
-212.768,681.492,42.7
-25.62,641.476,84.424
217.16,616.1,83.692
351.116,616.832,96.624
444.812,658.556,106.14
481.9,659.532,123.708
546.56,614.392,149.328
790.072,570.96,138.592
994.544,573.644,143.96
943.304,559.248,177.388
786.656,487.512,167.872
866.2,437.98,136.152
1132.892,368.196,86.132
1317.844,332.084,93.208
1205.604,310.368,155.916
1077.992,249.368,162.748
1077.504,207.644,138.348
1190.964,186.66,100.284
1426.912,177.144,59.048
