acc_x[mg],acc_y[mg],acc_z[mg]
-568.276,728.584,-191.54
-586.82,706.624,-145.424
-602.68,693.204,-110.776
-611.952,689.788,-102.48
-605.12,688.324,-108.824
-597.8,693.936,-122.976
-608.78,693.204,-115.412
-629.52,686.616,-87.84
-622.444,699.792,-95.892
-605.364,717.116,-115.412
-593.164,732.488,-122.732
-596.58,726.876,-116.876
-594.14,722.24,-104.188
-603.656,714.188,-84.668
-600.484,714.92,-76.372
-585.6,734.684,-102.48
-551.196,765.184,-138.104
-536.556,795.44,-157.868
-538.02,803.98,-164.944
-535.58,807.884,-157.38
-534.116,803.736,-134.932
-535.58,802.272,-122.732
-538.264,803.248,-116.632
-530.7,816.424,-125.904
-520.452,822.036,-135.176
-502.64,834.48,-147.864
-514.596,831.308,-131.76
-525.82,833.26,-134.932
-520.208,839.36,-139.568
-500.688,837.896,-151.768
-497.76,830.088,-140.544
-511.912,819.108,-119.072
-511.668,810.08,-101.504
-511.424,809.348,-97.844
-525.088,807.152,-89.792
-546.316,805.444,-90.036
-546.316,806.908,-97.844
-537.044,811.544,-110.532
-553.148,808.372,-104.92
-564.616,813.008,-104.676
-552.66,817.644,-110.044
-549.0,815.448,-101.748
-556.32,812.52,-92.72
-550.464,816.912,-96.38
-544.608,827.404,-104.676
-529.236,843.264,-120.292
-507.764,856.684,-123.952
-500.2,856.684,-116.876
-506.3,852.536,-101.748
-495.076,853.512,-103.7
-480.192,854.976,-112.972
-491.904,848.388,-118.096
-513.62,840.092,-123.952
-519.72,835.212,-131.272
-522.16,838.14,-135.664
-540.948,834.724,-133.468
-566.812,836.676,-129.564
-556.32,851.804,-143.716
-539.972,851.316,-144.448
-532.896,845.704,-136.152
-530.7,842.532,-119.56
-518.256,839.848,-108.58
-511.668,840.092,-110.288
-517.036,838.872,-109.068
-528.26,831.308,-101.016
-534.116,819.84,-93.696
-532.408,809.592,-89.06
-538.752,801.784,-86.864
-553.148,799.832,-96.136
-551.44,797.392,-102.724
-566.324,794.464,-111.264
-585.6,798.124,-112.972
-597.8,811.788,-116.388
-578.768,828.624,-117.608
-526.308,849.608,-117.12
-482.632,851.316,-111.02
-457.988,829.356,-107.848
-485.56,801.54,-95.404
-529.968,785.924,-108.824
-563.884,780.312,-120.292
-604.388,772.504,-108.824
-642.94,772.504,-90.768
-630.496,790.804,-84.668
-586.332,806.908,-90.28
-550.952,826.916,-106.628
-533.872,838.384,-111.996
-507.276,845.704,-130.052
-522.16,852.048,-135.42
-522.404,855.22,-142.252
-524.112,855.22,-131.76
-544.364,849.852,-117.608
-554.124,846.924,-115.168
-544.852,843.02,-119.804
-546.56,833.504,-128.1
-581.696,806.908,-115.656
-647.332,772.748,-115.9
-749.812,740.052,-143.228
-877.912,703.452,-174.948
-1074.58,683.688,-193.004
-1434.96,724.924,-311.588
-1785.59,678.076,-461.16
-1985.92,446.764,-447.496
-2221.13,121.756,-597.556
-1126.55,-542.656,-403.332
234.24,-468.724,14.884
432.124,-746.396,565.592
1486.94,-980.148,1254.89
1642.61,-806.176,1626.99
1549.4,-186.172,58.072
2544.92,240.828,-595.116
2132.56,-96.38,378.932
1032.85,-181.78,938.424
950.38,-6.1,849.12
1141.92,119.804,601.216
1138.26,193.736,517.768
1136.8,278.404,437.248
1013.33,290.848,378.444
956.724,241.56,441.64
816.912,245.708,495.076
733.22,278.648,509.716
716.628,311.832,447.496
758.352,300.852,490.928
679.54,245.952,499.712
694.18,208.864,573.156
579.256,233.02,659.044
506.056,280.356,635.376
593.408,358.924,517.28
712.236,374.296,417.972
688.812,328.424,473.116
559.248,265.472,532.164
574.62,281.82,508.252
675.148,298.412,480.924
645.136,275.72,429.196
668.56,225.212,429.684
668.804,201.788,422.364
726.388,196.908,246.684
761.036,132.736,170.8
682.956,61.0,61.488
743.712,67.832,-77.592
866.932,80.764,-225.944
850.828,71.98,-339.648
841.556,59.78,-468.724
885.232,73.932,-627.812
849.608,79.3,-688.08
714.188,33.916,-731.024
675.392,8.052,-869.86
747.86,26.352,-981.124
760.548,15.372,-1013.82
605.364,-32.696,-1006.74
487.512,-83.204,-1011.14
492.392,-114.436,-1037.24
596.824,-150.548,-1099.71
681.004,-187.392,-1134.36
663.192,-207.644,-1150.7
597.556,-211.548,-1194.87
566.568,-224.48,-1211.95
621.468,-246.196,-1213.41
646.112,-263.52,-1192.43
631.716,-264.496,-1167.3
613.172,-261.08,-1151.68
599.02,-242.048,-1161.44
589.748,-238.388,-1122.64
607.316,-229.604,-1077.02
665.876,-233.752,-1007.72
734.196,-235.704,-936.716
711.748,-207.156,-881.328
668.804,-132.492,-902.068
618.296,-80.276,-887.184
610.488,-69.54,-844.24
654.164,-68.808,-727.364
758.596,-57.828,-658.556
825.696,-18.544,-655.872
697.84,4.392,-623.664
526.796,-32.208,-506.3
521.428,4.148,-381.616
641.72,72.468,-288.896
700.524,114.192,-246.44
707.112,137.372,-262.788
705.16,132.98,-303.292
585.356,88.328,-115.9
575.84,63.684,181.536
677.344,54.9,172.508
887.184,88.328,28.792
894.992,46.848,160.552
581.208,-34.892,344.528
535.58,-60.756,513.864
665.388,-101.504,564.128
827.404,-113.46,522.648
807.152,-188.124,555.832
663.192,-261.08,472.628
860.344,-296.216,563.64
864.736,-366.0,639.28
944.768,-408.212,646.356
895.48,-450.424,643.428
953.308,-513.376,730.536
967.46,-555.588,781.288
988.688,-568.276,761.768
1076.28,-578.036,761.524
1113.37,-603.412,760.06
1382.26,-601.46,711.26
1472.54,-592.676,548.024
1283.2,-542.412,315.004
1457.9,-408.944,337.208
1462.05,-385.52,384.056
1333.95,-413.092,413.58
1113.37,-417.24,370.148
1026.75,-359.656,337.452
1126.06,-251.076,243.024
1162.17,-181.292,184.708
1088.48,-148.84,219.844
1109.47,-81.984,198.372
1293.44,-28.792,131.028
1457.17,73.2,50.996
1390.8,121.756,22.448
1197.31,115.9,67.832
1016.26,149.328,78.324
900.36,204.472,40.748
1060.67,301.828,-136.64
1245.86,178.852,-356.728
683.932,78.568,-276.208
56.364,71.736,-248.88
-481.168,267.912,-377.712
-903.532,739.564,-641.232
-1742.4,838.628,-384.544
-2223.08,393.816,250.344
-996.74,323.3,259.128
-102.724,567.544,-81.984
-278.404,857.416,-189.832
-452.132,1026.51,-235.216
-511.668,1065.79,-157.624
-353.556,1115.32,-143.96
-231.068,1210.48,-184.952
-197.396,1263.68,-171.776
-239.608,1221.46,-90.28
-233.508,1145.09,-43.92
-240.828,1055.3,3.172
-252.052,998.936,20.984
-245.952,973.804,10.248
-237.656,954.284,-21.96
-238.876,943.548,-9.028
-217.648,909.632,-7.32
-235.216,892.308,-22.936
-279.38,886.696,-26.108
-277.428,891.332,-36.6
-274.5,914.756,-54.168
-284.504,921.588,-45.872
-266.448,939.888,-47.336
-263.276,965.508,-52.704
-245.22,1007.23,-70.272
-234.484,1008.21,-52.46
-230.58,987.224,-5.124
-228.14,976.732,25.376
-245.952,979.66,36.356
-217.404,990.152,9.516
-209.596,993.324,-19.032
-229.36,990.152,-26.596
-239.364,983.32,-39.284
-256.688,975.756,-36.844
-228.14,973.56,-59.78
-209.84,964.044,-60.756
-193.98,948.916,-50.264
-197.64,943.06,-46.604
-206.424,930.86,-33.428
-184.952,914.024,-27.084
-166.408,905.24,-7.564
-136.152,909.632,-22.692
-144.936,929.152,-41.48
-161.04,944.036,-51.728
-177.632,962.092,-51.972
-187.636,967.46,-45.14
-186.416,969.168,-35.38
-172.752,964.776,1.464
-127.124,982.832,-19.52
-69.296,1029.19,-105.652
-49.532,1052.13,-149.084
-119.56,1026.75,-84.912
-176.9,992.836,31.964
-166.896,988.2,125.66
-112.484,1005.77,125.172
-93.208,1052.86,81.496
-113.216,1089.7,52.216
-131.272,1095.32,66.124
-129.32,1099.71,100.528
-156.648,1113.37,175.68
-154.208,1141.92,214.476
-85.888,1196.33,173.728
-53.68,1253.67,128.588
-65.88,1289.3,110.776
-65.392,1314.92,91.988
-55.876,1352.49,42.7
-14.396,1387.38,-3.416
-0.244,1408.12,-7.076
-69.296,1442.53,0.244
-140.3,1466.93,-33.672
-181.78,1478.88,-73.688
-202.276,1447.9,-53.436
-231.556,1412.03,-4.148
-201.3,1402.76,-63.928
-196.908,1378.6,-156.16
-211.06,1330.78,-233.996
-229.604,1169.25,-206.424
-277.184,957.212,-49.532
-280.356,813.74,58.072
-224.236,667.828,125.172
-143.96,540.948,113.948
-86.132,471.896,19.276
-57.584,434.808,-49.776
-81.984,398.94,-57.828
-164.944,350.384,-9.76
-264.252,308.172,66.856
-291.092,304.756,68.076
-225.212,355.996,-16.348
-204.96,448.472,-104.188
-254.98,526.308,-135.908
-374.052,571.692,-104.432
-481.656,629.276,-72.712
-502.64,678.076,-53.924
-497.028,740.54,-53.68
-504.836,802.028,-57.584
-514.84,847.656,-67.588
-503.616,883.768,-75.64
-463.356,926.956,-84.18
-425.78,966.728,-59.292
-405.284,971.12,-26.108
-386.984,955.748,24.644
-373.32,949.404,52.704
-359.9,970.632,56.852
-336.72,980.148,45.872
-328.18,974.536,43.188
-323.788,957.7,43.676
-325.984,937.692,48.556
-314.028,919.636,43.92
-287.432,904.996,29.768
-288.652,892.796,27.084
-325.252,883.768,24.4
-362.828,877.668,22.936
-382.104,872.788,19.764
-390.4,869.86,27.084
-420.168,864.004,42.212
-430.66,861.076,39.528
-432.124,861.076,39.284
-445.788,868.152,34.892
-461.648,866.932,28.792
-489.464,835.456,71.004
-534.848,820.328,62.952
-562.664,785.68,12.444
-716.384,721.752,-38.552
-1234.64,796.172,-106.384
-2003.24,901.092,-412.36
-2473.43,592.188,-683.2
-1817.56,224.236,-171.532
-1085.07,144.204,663.68
-966.484,-333.548,817.888
232.776,-905.484,790.316
1273.92,-1375.92,1002.35
987.224,-1316.87,2723.77
2321.66,-496.54,-181.048
2652.52,-98.576,-1106.78
345.992,-608.536,1717.52
156.892,-151.036,1838.05
1426.67,240.828,325.984
1429.6,476.044,152.012
1322.48,402.112,359.412
1092.63,272.304,505.08
895.968,256.932,532.896
844.728,195.444,567.3
840.336,163.724,615.856
857.66,214.72,577.548
828.624,270.84,465.552
831.552,282.796,432.856
741.516,269.864,445.544
721.508,307.684,433.1
813.984,356.972,315.492
882.304,329.4,263.764
881.816,273.524,322.812
911.584,274.012,345.016
889.868,269.62,335.988
886.208,258.396,348.188
839.116,241.072,373.564
745.176,229.116,406.992
707.6,234.728,438.956
711.016,242.292,438.712
742.248,206.912,471.408
713.944,154.696,544.364
604.388,106.384,601.948
738.1,132.248,606.828
828.136,113.948,635.62
871.568,97.844,627.08
755.18,96.868,605.852
761.524,169.092,589.748
897.188,260.836,432.124
834.236,282.552,387.716
802.028,268.156,364.78
775.432,303.292,310.124
794.708,342.332,191.784
859.368,348.92,53.924
841.556,334.524,-34.404
843.752,320.616,-192.516
912.072,298.656,-358.436
902.312,266.692,-372.344
874.74,223.016,-461.16
858.88,225.456,-664.412
941.84,191.052,-771.528
910.364,168.116,-793.244
863.516,122.244,-832.04
908.656,107.36,-922.564
995.52,100.772,-993.812
1009.43,66.612,-960.628
896.212,32.696,-856.44
855.952,27.084,-876.204
867.42,24.888,-869.616
963.312,18.788,-873.032
1032.36,-5.612,-842.776
935.984,-36.112,-751.764
841.556,-44.896,-667.34
882.792,-55.876,-652.944
955.016,-42.944,-662.704
951.356,-31.964,-659.044
898.164,-24.888,-630.252
908.412,2.44,-668.316
918.904,-3.904,-629.032
923.784,-19.764,-562.664
885.232,-30.5,-504.836
842.532,-24.644,-431.392
866.688,5.368,-441.64
918.904,25.864,-425.048
931.836,43.432,-435.784
868.884,23.18,-370.636
823.744,3.66,-240.828
816.912,4.148,-140.544
798.368,53.192,-77.836
772.26,59.536,-31.964
740.54,67.1,34.892
649.284,48.8,125.904
612.684,13.908,261.08
607.072,25.62,412.36
640.256,6.1,455.06
708.82,14.152,480.68
728.096,9.76,505.812
719.8,-51.972,595.604
748.348,-112.24,677.832
865.224,-154.94,697.108
969.168,-196.42,741.76
1106.05,-241.56,787.144
1119.72,-365.268,828.624
1183.4,-487.512,1067.74
1188.28,-589.016,1298.08
1250.26,-601.46,1230.74
1392.26,-551.684,1045.78
1444.24,-466.528,803.98
1115.57,-422.608,386.496
1261.48,-209.596,-94.672
1601.37,-39.772,-362.584
1484.74,-9.516,-429.684
1237.81,-5.368,-477.264
1108.49,28.06,-527.284
1065.3,56.12,-514.352
1039.68,55.876,-451.4
1047.0,57.584,-344.284
1077.02,30.256,-206.668
1066.52,-0.976,-79.544
964.532,-17.568,-11.224
937.936,-18.788,74.908
1051.64,-16.592,217.16
1201.94,11.956,286.456
1170.96,31.72,414.556
1156.07,55.388,426.268
1262.21,173.484,240.096
1290.76,265.96,69.784
1169.98,309.88,81.984
1165.59,314.76,87.84
1220.0,287.432,148.596
1142.9,271.816,103.212
889.136,273.768,162.016
656.116,406.504,158.844
510.936,501.908,39.284
299.144,607.804,-72.956
86.62,718.336,-34.648
17.812,817.4,-85.156
-59.048,868.152,15.372
-136.884,910.12,101.26
-255.468,886.208,265.96
-229.116,940.132,192.028
-250.832,1026.26,40.992
-330.376,1053.1,10.248
-336.72,1063.11,9.028
-238.388,1047.0,18.3
-164.212,1057.98,24.644
-161.528,1081.9,33.916
-198.372,1131.67,-16.592
-251.32,1154.12,-44.408
-248.88,1108.74,-20.496
-172.752,1046.76,39.04
-100.772,1011.38,68.808
-75.152,1014.06,52.704
-76.86,1025.53,59.78
-55.632,1008.45,55.876
-52.948,987.224,47.336
-96.624,956.48,75.396
-115.656,934.032,96.136
-116.388,915.0,102.968
-105.896,914.756,73.932
-92.72,929.152,48.8
-80.276,936.472,23.18
-120.048,940.132,53.924
-105.408,949.16,50.752
-83.448,960.14,36.844
-100.528,969.168,21.96
-120.292,981.368,35.624
-111.264,988.2,40.26
-99.552,1003.33,21.716
-91.5,1028.46,0.488
-98.332,1038.22,17.08
-97.844,1041.88,33.428
-94.428,1058.47,47.824
-61.244,1077.02,38.064
-55.632,1099.95,45.628
-55.876,1136.31,56.12
-40.504,1196.58,52.46
-4.392,1227.32,40.016
-6.832,1270.02,38.308
-63.44,1337.61,60.024
-97.112,1404.71,31.964
-39.528,1442.53,-22.936
5.124,1415.2,-26.84
-20.008,1394.46,24.156
-60.024,1388.36,46.848
-107.36,1396.66,23.18
-137.372,1385.68,-40.748
-124.196,1376.16,-124.44
-167.14,1391.04,-124.196
-205.692,1401.05,-67.588
-202.276,1354.44,7.32
-129.564,1255.14,54.412
-5.612,1201.21,26.352
45.872,1165.59,-10.736
31.964,1134.11,-23.668
-16.836,1063.11,-22.204
-115.412,1015.04,-21.472
-158.844,953.064,-6.344
-91.012,878.644,-8.54
-5.856,841.312,34.404
73.688,735.904,115.9
122.244,626.836,119.804
82.716,551.196,29.524
-17.568,497.272,-31.72
-99.308,442.616,-30.988
-166.164,414.556,1.22
-189.1,394.304,-6.832
-200.812,394.304,-13.42
-215.452,434.564,-29.768
-227.652,498.248,-46.604
-272.548,555.832,-53.192
-350.384,595.848,-54.168
-392.108,631.228,-68.564
-399.916,679.052,-96.868
-371.368,740.052,-140.544
-334.524,787.632,-142.74
-343.308,802.028,-110.532
-361.852,833.016,-81.74
-345.016,855.708,-82.228
-327.936,891.332,-95.648
-308.416,925.736,-110.288
-291.092,947.208,-115.656
-291.092,961.848,-111.752
-288.896,970.144,-93.94
-272.548,979.904,-104.92
-226.676,989.42,-121.756
-202.032,986.736,-115.168
-222.528,980.636,-90.524
-250.1,987.712,-88.328
-272.792,987.712,-94.672
-296.704,979.66,-84.424
-331.352,972.34,-79.3
-328.424,970.144,-78.08
-344.528,962.092,-64.66
-361.12,950.624,-58.316
-360.632,949.404,-64.416
-364.536,956.968,-87.84
-462.136,982.1,-155.916
-587.552,994.544,-211.304
-838.872,1056.52,-320.86
-1277.83,1259.53,-750.788
-1198.28,1067.26,-993.324
-539.728,908.412,-573.156
-1319.8,839.116,218.136
-1668.23,394.06,1067.01
-447.74,-240.34,1189.99
790.316,-827.892,961.604
1724.35,-406.748,1418.37
1706.54,-461.892,35.868
1259.77,20.496,-306.22
394.792,-335.256,1293.44
482.876,-19.52,1604.54
1162.42,313.54,476.288
1260.5,551.44,75.396
1192.67,457.744,352.58
966.728,390.888,554.856
765.916,335.256,565.348
732.0,292.068,651.968
689.056,245.464,693.936
758.84,205.692,661.728
768.6,128.1,773.724
634.888,8.052,934.032
263.276,-19.276,1017.72
319.396,15.372,1039.68
358.192,-48.068,1166.08
228.628,-26.352,1091.66
-565.348,-54.656,883.28
-264.496,106.384,552.904
19.032,73.444,517.28
-216.916,-132.248,545.096
-212.768,-360.388,143.472
60.512,-664.9,-436.028
416.264,-808.372,-1148.26
611.952,-720.532,-1568.19
788.608,-651.48,-1859.28
906.216,-371.612,-2268.71
945.5,-304.268,-2317.76
1011.38,-441.152,-2181.12
1069.94,-557.296,-1990.55
995.276,-594.14,-1798.77
844.484,-546.56,-1651.39
672.708,-483.364,-1488.16
627.812,-416.752,-1342.73
682.956,-373.32,-1151.92
689.3,-338.916,-946.964
698.572,-324.52,-790.072
709.552,-348.92,-650.016
698.084,-327.448,-528.504
801.296,-220.088,-405.284
812.032,-103.944,-373.32
668.56,-57.584,-373.076
475.312,-116.388,-282.308
280.6,-265.472,-32.94
338.672,-453.352,281.088
482.632,-464.576,534.36
414.312,-469.456,617.564
171.532,-583.16,977.952
77.104,-635.376,1419.1
307.44,-637.084,1642.61
427.0,-622.932,1727.52
505.08,-649.04,1724.35
348.432,-750.788,1828.29
580.964,-758.108,1753.14
813.008,-741.028,1542.57
895.724,-740.052,1308.57
944.524,-801.784,1036.02
1012.11,-906.216,788.608
1257.33,-968.436,457.744
1553.55,-765.428,-249.368
1433.99,-413.336,-756.888
1602.84,-27.816,-1087.75
1645.54,103.212,-1072.38
1394.7,-12.444,-640.744
1177.3,-93.208,-405.772
1215.85,-140.056,-343.308
1284.17,-167.872,-292.312
1207.07,-175.436,-214.232
1127.04,-156.648,-155.184
1126.55,-168.36,-90.768
1149.48,-207.644,35.624
1125.82,-273.28,155.672
1086.04,-305.0,265.716
1075.06,-300.12,301.34
1086.53,-259.372,259.616
1085.56,-244.732,248.392
1084.82,-227.652,231.312
1109.71,-232.044,217.648
1080.19,-251.564,249.612
1025.78,-260.592,255.956
996.74,-236.436,214.964
1043.34,-219.844,163.724
1017.97,-228.872,171.044
958.676,-233.752,174.948
961.848,-229.36,144.448
979.416,-235.46,161.04
946.476,-241.804,183.0
916.952,-247.904,191.784
935.984,-243.268,196.908
942.084,-236.924,190.564
929.396,-226.92,159.332
975.512,-219.356,159.332
986.004,-232.532,194.224
979.416,-234.484,201.056
998.692,-228.872,189.588
1027.97,-231.312,200.324
1034.07,-237.9,222.772
1111.18,-227.652,227.896
1234.15,-199.104,176.9
1314.18,-218.868,213.256
1376.65,-242.048,228.384
1423.01,-227.652,284.26
1501.33,-163.724,282.796
1580.88,-65.636,41.48
1592.34,-73.444,-212.524
1545.5,-195.444,-251.808
1520.36,-410.896,-99.796
1050.91,-530.456,-5.856
256.932,-286.7,188.368
-571.936,69.052,61.0
-1478.88,735.416,420.168
-1729.47,1098.24,596.58
-840.58,916.22,191.784
352.092,1056.52,-117.364
378.444,1025.04,-315.248
-274.256,1067.5,49.044
-255.956,1011.38,-32.452
-48.8,1092.63,-129.808
101.992,1141.19,-171.044
25.62,1117.52,-63.44
-24.156,1075.8,-7.808
24.156,1064.82,-58.804
66.612,1067.99,-86.62
95.892,1071.65,-73.444
92.72,1068.96,-45.872
68.808,1086.04,-73.688
56.852,1091.66,-86.864
26.596,1042.37,-46.604
28.304,1006.99,-37.332
17.08,982.588,-29.524
23.424,968.68,-27.816
57.584,967.704,-20.496
64.66,988.444,-17.324
85.888,1019.92,-8.54
80.52,1035.78,25.132
71.98,1065.06,60.512
92.476,1128.5,26.352
89.548,1179.01,8.54
73.2,1231.96,-4.148
74.664,1265.63,-27.084
50.996,1271.0,-22.692
12.932,1288.56,-27.084
-33.916,1323.7,-9.516
-18.3,1334.44,19.276
37.088,1327.85,24.4
36.356,1353.96,20.496
15.86,1455.46,-54.656
11.956,1485.47,-123.22
5.856,1457.41,-107.848
-11.712,1431.55,-76.372
-50.02,1397.39,1.464
-109.556,1347.61,75.884
-136.884,1318.33,85.4
-93.94,1268.07,66.856
-47.336,1220.24,59.536
-3.66,1160.22,55.144
-42.944,1141.19,104.188
-134.932,1175.84,124.44
-96.38,1186.57,24.888
-32.208,1189.99,-48.8
-3.66,1123.86,-33.672
-5.856,950.136,10.004
-46.116,808.372,9.516
-59.536,713.212,-23.424
-21.96,613.172,-55.632
21.716,504.348,-60.512
-26.596,401.624,16.836
-77.348,338.184,105.408
-90.768,301.34,172.752
-80.764,325.74,155.184
-65.148,389.668,64.172
-95.892,454.572,19.032
-205.692,496.54,18.544
-308.66,525.332,25.132
-373.32,576.328,37.576
-396.012,628.544,49.532
-381.616,686.372,54.656
-365.756,714.188,78.324
-358.192,751.764,70.76
-321.348,786.168,62.708
-272.304,814.228,65.392
-286.456,842.288,103.212
-245.708,865.224,80.52
-163.968,917.44,30.256
-123.708,963.556,14.64
-129.564,978.196,14.64
-166.652,978.44,60.756
-128.344,996.496,50.508
-9.76,1009.67,-6.588
-13.664,1003.57,25.376
-71.98,995.764,84.424
-63.44,996.74,93.452
-47.092,998.692,101.504
-38.308,995.764,89.548
-24.156,1001.13,60.268
-44.408,989.176,69.784
-87.108,967.948,104.432
-148.108,941.84,134.688
-291.336,1008.94,68.808
-806.908,1344.93,-350.384
-1803.16,1460.58,-993.812
-1925.16,748.104,-785.68
-1059.94,348.92,235.216
-1286.37,-1.708,1459.36
-214.232,-732.0,1736.06
2165.99,-1734.84,1430.57
2773.55,-502.64,465.552
1926.14,493.856,-768.356
747.128,-158.6,641.476
30.256,205.448,1410.32
980.88,409.432,610.976
1417.64,637.816,-24.888
1556.96,597.556,-32.208
974.292,378.932,397.72
703.208,309.88,619.272
640.256,343.796,659.532
872.3,309.392,543.632
1010.65,277.184,487.756
840.824,73.2,597.068
487.756,-134.688,963.068
181.292,-236.924,1293.2
212.524,-244.732,1278.56
132.004,-424.56,1271.97
-249.612,-603.656,1368.11
-304.756,-707.112,1449.12
-770.308,-809.348,1438.14
-1157.29,-659.776,1080.43
-1099.46,-555.1,699.792
-944.036,-722.484,208.62
-772.504,-942.572,-357.948
-403.332,-1478.4,-1172.42
463.112,-1554.28,-2374.61
1021.38,-1142.9,-2868.22
1006.26,-1035.78,-2922.63
983.076,-472.628,-3278.63
896.944,-441.884,-3190.06
893.284,-512.888,-2828.94
775.92,-488.0,-2394.62
708.82,-454.084,-2041.55
621.224,-435.54,-1658.47
452.376,-384.3,-1215.36
377.224,-340.136,-1005.28
363.072,-380.152,-799.588
374.052,-371.856,-504.836
561.688,-265.472,-374.052
783.24,-194.712,-389.18
664.168,-308.172,-349.652
455.304,-389.18,-85.644
547.78,-424.316,224.968
862.052,-351.604,257.908
959.896,-279.868,93.696
671.0,-494.1,35.136
120.048,-595.604,542.412
181.78,-691.984,1085.31
545.828,-721.996,1343.46
544.364,-820.572,1403.24
256.2,-995.276,1648.95
215.94,-998.204,1885.88
510.692,-984.54,1853.67
665.632,-987.956,1715.32
652.456,-958.92,1525.73
1023.34,-843.264,1129.96
1487.67,-728.828,560.956
1412.52,-633.424,416.508
1221.71,-588.772,466.284
1553.55,-426.512,120.292
1967.13,-183.976,-396.744
1806.58,-4.392,-424.804
1604.54,11.712,-236.924
1495.48,-6.588,-111.996
1345.42,-21.96,-69.296
1229.27,-24.4,-58.072
1122.64,-60.268,-12.2
1031.88,-60.024,-8.54
1035.54,-75.884,35.38
1096.54,-91.5,87.108
1114.1,-130.296,185.928
1174.37,-178.852,362.34
1158.27,-188.124,442.616
1014.8,-154.696,451.4
961.848,-60.756,327.692
982.1,41.724,202.032
986.248,89.548,191.296
960.384,111.508,206.668
954.04,112.972,237.168
974.292,115.168,261.08
987.224,121.512,260.348
1012.11,138.104,234.24
1013.82,147.132,209.108
989.176,155.916,205.692
955.504,148.596,221.308
984.052,140.056,230.58
1093.85,123.708,246.928
1182.42,130.052,254.248
1201.46,143.96,239.12
1203.41,165.676,196.908
1155.34,175.192,206.912
1221.71,176.168,265.96
1505.97,207.888,134.688
1210.48,177.632,167.14
921.1,285.236,235.216
1036.27,457.012,119.804
856.196,346.968,10.736
355.752,461.404,173.24
-121.756,702.964,134.2
-421.388,947.208,-7.32
-480.436,1056.03,-49.288
-360.876,1007.72,-30.5
-144.936,971.12,-9.028
-57.584,966.24,-11.468
-137.86,964.532,50.508
-125.904,965.996,37.576
15.86,1008.21,-26.352
167.872,1015.53,-62.708
113.704,992.104,28.304
24.644,989.908,60.268
-93.696,1019.19,92.964
5.124,1021.87,42.7
160.308,1042.61,-49.532
127.368,1051.88,-30.5
66.124,1042.86,10.248
6.344,1047.25,19.032
31.476,1057.25,-34.648
38.064,1039.2,-40.016
55.632,992.592,6.832
77.104,994.056,2.928
35.624,996.252,3.904
13.42,996.008,1.464
-7.564,1000.16,9.516
-20.252,1007.96,4.88
42.944,1028.7,-38.796
55.144,1037.73,-48.312
16.348,1042.61,-15.616
18.788,1056.76,-14.152
16.348,1079.46,-6.1
-25.376,1107.03,6.588
-47.58,1162.42,0.732
-15.86,1223.66,-13.42
38.796,1282.22,-18.788
20.008,1357.62,-23.912
-29.28,1436.67,-29.036
-53.436,1538.66,-35.38
-33.184,1597.22,-24.888
53.68,1607.96,-7.076
85.644,1657.25,-38.796
46.604,1692.38,-77.348
17.568,1701.41,-70.028
-16.348,1636.51,-33.184
-38.552,1512.31,51.728
-81.496,1484.25,121.268
-88.084,1512.31,132.98
-8.54,1480.59,149.328
71.248,1370.06,203.984
47.58,1247.08,207.4
-50.996,1168.27,120.78
-67.1,1050.91,-9.516
-28.548,783.24,-39.772
-34.404,519.476,20.252
-83.936,329.644,58.56
-91.988,179.34,66.124
-123.464,108.336,64.904
-162.748,103.7,49.532
-190.076,118.584,41.968
-200.568,128.588,22.936
-172.264,147.376,0.0
-143.228,193.736,-1.708
-186.904,266.204,9.76
-222.284,359.412,-16.836
-283.528,439.444,9.516
-383.568,482.632,63.44
-440.908,529.968,88.328
-530.212,617.32,55.632
-609.268,672.22,33.916
-630.496,657.824,80.032
-719.556,752.496,-7.32
-896.7,915.0,-193.98
-881.572,968.192,-215.208
-1000.64,1017.97,-185.928
-1393.0,1059.45,-293.776
-895.48,862.296,-390.156
-606.34,589.504,-509.716
54.412,230.58,-235.948
960.14,-123.22,602.68
1155.1,-199.592,1284.42
1123.38,-156.648,765.184
1066.04,-156.16,778.116
1159.49,17.568,601.216
1513.78,-146.888,401.868
816.668,-60.512,869.86
708.332,191.54,686.372
1039.68,314.516,313.54
1110.69,241.316,350.14
981.368,173.728,421.144
889.868,234.972,460.916
645.38,225.212,510.204
688.568,281.332,510.936
723.46,276.696,429.684
822.768,260.836,420.168
874.496,176.656,501.176
827.404,47.092,632.204
732.488,-20.008,821.06
743.956,-56.608,895.236
731.268,-72.712,911.828
699.548,-116.876,915.732
577.06,-133.956,1037.0
546.316,-115.9,1031.63
385.764,-100.284,964.044
-68.32,-122.0,842.044
-233.508,-67.1,548.512
152.012,-11.224,262.056
169.824,-179.096,233.752
40.992,-407.236,-4.88
-168.604,-515.816,-673.196
73.2,-554.124,-1320.53
378.2,-480.436,-1561.84
267.424,-456.524,-1731.67
219.844,-530.456,-1776.56
290.848,-537.532,-1868.06
384.788,-534.36,-1879.78
415.288,-559.98,-1830.98
380.64,-542.656,-1862.21
346.48,-572.668,-1875.87
399.916,-603.168,-1910.52
455.304,-590.724,-1880.75
507.52,-528.016,-1808.77
552.172,-441.152,-1667.5
549.244,-370.392,-1559.65
480.436,-366.732,-1377.62
434.808,-414.556,-1150.95
448.228,-467.26,-885.476
565.104,-427.488,-640.5
686.616,-338.184,-518.744
576.816,-364.536,-502.64
233.996,-532.164,-354.044
-66.368,-574.864,-40.992
-217.16,-445.3,334.768
282.308,-316.956,376.736
611.22,-365.024,160.552
102.724,-620.736,586.576
-236.192,-775.92,1373.72
-37.82,-779.336,1809.75
214.232,-741.76,1792.67
212.768,-827.892,1823.9
454.572,-923.052,1881.24
901.336,-1033.34,1891.73
1671.4,-1089.7,1732.64
2581.03,-892.308,1262.94
2710.84,-592.188,875.472
2338.98,-487.268,780.068
2143.78,-314.516,499.712
1969.08,-153.72,242.78
1649.2,-49.776,11.224
1332.0,40.504,-175.68
1170.47,88.328,-245.22
1089.22,87.84,-245.22
1090.44,88.084,-298.168
1084.34,116.632,-361.364
978.928,98.82,-314.272
904.02,97.356,-219.112
879.864,99.796,-70.516
843.508,169.092,16.836
827.16,261.812,33.428
865.956,389.668,-58.316
792.756,457.256,-31.232
693.448,463.112,71.004
673.928,461.892,195.444
697.84,476.532,234.728
783.972,525.576,152.988
936.228,541.68,78.08
1048.22,496.296,38.552
1029.19,419.924,126.392
1006.26,374.296,191.296
1295.88,391.376,86.132
1997.14,398.452,-65.148
2186.24,344.528,-256.688
1546.47,74.664,55.632
1111.18,-10.004,177.388
983.32,-34.648,127.124
343.064,18.544,-29.036
-653.676,318.42,117.608
-1254.89,749.812,147.864
-1107.76,994.788,134.444
-712.724,942.084,220.088
-227.408,849.852,234.484
205.204,977.464,35.624
189.344,1110.2,-64.172
-42.456,1174.37,15.86
-20.74,1198.53,26.108
85.644,1192.18,41.968
131.76,1155.83,100.284
146.156,1132.4,105.164
132.248,1085.8,9.028
1.952,1123.86,51.24
21.716,1051.64,32.208
68.076,1030.41,2.684
54.412,995.276,15.616
74.176,964.776,34.892
74.908,972.828,34.892
55.388,995.764,24.888
37.332,1000.64,45.628
60.512,987.956,43.432
59.78,983.076,49.288
53.436,998.936,56.852
54.9,1017.24,37.576
57.096,1038.71,53.68
23.668,1055.3,63.196
8.784,1094.58,69.54
60.024,1129.96,58.56
76.86,1182.18,53.192
47.824,1266.12,58.072
46.116,1342.98,96.868
98.576,1376.16,82.228
65.392,1397.14,75.152
15.86,1428.86,68.076
-5.124,1438.87,49.532
-50.752,1447.9,44.652
-75.152,1438.14,34.892
-65.88,1429.84,50.508
-53.192,1417.15,63.196
-75.884,1400.8,47.824
-95.16,1390.07,14.884
-92.232,1402.51,-4.88
-119.804,1356.4,38.552
-86.62,1281.49,86.864
-40.26,1263.43,109.312
-10.004,1250.5,128.588
1.708,1235.13,161.772
-29.524,1246.6,182.756
-34.16,1244.89,104.676
-10.248,1160.95,50.264
-44.896,1037.98,136.884
-37.088,852.048,220.82
59.536,659.776,231.556
139.324,510.204,155.916
169.824,376.492,43.432
81.74,268.644,11.224
-90.768,238.876,66.856
-120.048,233.508,41.724
-67.588,237.412,65.636
-28.06,262.544,90.768
-70.272,305.976,117.852
-143.228,380.64,149.572
-187.148,455.792,133.956
-221.552,513.132,121.512
-290.36,556.808,132.004
-353.068,579.744,138.592
-384.544,556.32,130.54
-428.952,504.104,104.676
-547.536,527.772,54.9
-775.188,617.32,-17.812
-1044.32,647.576,-97.6
-1472.3,705.648,-149.816
-2024.96,872.544,-472.14
-2120.6,631.96,-628.056
-1667.01,162.016,-433.344
-693.448,-4.88,-85.888
-215.696,-130.784,94.916
35.868,-595.848,359.168
942.328,-1308.33,912.804
1124.35,-2154.52,2781.36
1911.25,-924.028,1475.47
3144.43,101.748,-2119.38
1314.18,-743.712,847.412
-198.616,-503.86,2115.72
1032.36,-114.924,724.924
1128.99,146.4,329.888
1312.96,163.48,303.048
1169.25,119.072,341.6
952.576,72.468,488.244
797.148,69.54,574.132
801.54,116.144,557.296
925.248,120.048,494.832
927.2,40.992,498.736
913.78,-25.864,580.232
699.792,-88.816,719.068
668.072,-132.98,831.308
669.78,-152.744,870.348
669.292,-175.68,851.316
744.444,-209.84,937.448
747.128,-213.256,910.608
266.692,-212.036,741.272
89.304,-167.628,544.364
366.976,-148.84,472.628
324.764,-220.82,425.78
-121.268,-355.264,143.716
-266.936,-469.456,-247.172
-104.676,-560.224,-745.176
211.304,-495.32,-1528.42
406.992,-458.232,-1851.96
497.76,-423.096,-1859.52
623.664,-325.008,-1973.96
549.0,-343.552,-1916.86
402.112,-423.828,-1811.94
344.772,-486.78,-1768.76
381.372,-517.524,-1740.45
476.532,-511.912,-1702.39
566.324,-495.808,-1630.41
649.284,-442.616,-1545.74
649.04,-457.5,-1477.18
486.292,-513.376,-1245.62
454.816,-506.056,-1024.56
634.888,-491.416,-944.28
807.396,-482.632,-782.02
857.904,-495.076,-696.132
650.504,-570.96,-528.504
223.504,-550.22,-352.336
-63.196,-464.088,-11.468
163.724,-486.536,310.856
285.968,-487.512,516.792
193.248,-470.92,588.772
209.108,-442.372,786.9
490.928,-425.536,806.42
710.528,-470.676,792.756
864.492,-526.552,891.82
1065.3,-580.72,895.236
1105.81,-627.812,878.888
1090.92,-696.376,995.276
1215.36,-761.036,1002.35
1321.99,-816.424,1045.05
1344.68,-872.788,1102.15
1372.74,-940.376,992.348
1641.63,-857.66,639.768
1965.42,-596.336,268.156
1978.11,-401.136,32.208
1724.84,-460.916,21.472
1691.65,-427.244,-7.076
1765.1,-288.408,-211.548
1518.66,-317.932,-195.932
1311.01,-294.996,-192.76
1150.22,-214.476,-153.232
1144.36,-36.6,-106.384
1283.2,33.428,-50.996
1263.68,39.284,-47.092
947.452,179.584,-24.4
1020.16,388.692,-78.568
1736.06,483.364,-254.004
1921.26,309.148,-537.532
580.476,209.108,-203.008
-602.68,577.548,-24.4
-990.396,857.172,-77.592
-1559.16,585.356,226.188
-1738.5,316.956,388.448
-536.068,434.808,-93.208
3.904,589.26,-447.496
-200.568,724.924,-262.056
-364.292,809.836,-30.744
-210.572,896.456,72.224
12.932,1036.51,64.904
56.364,1150.7,74.176
35.624,1189.99,87.108
4.148,1161.93,104.188
-25.62,1134.84,99.064
-49.044,1085.31,105.408
-60.268,1058.72,93.696
-63.196,1042.37,62.464
-75.152,1036.02,31.232
-72.468,1028.22,8.54
-43.188,1020.41,-11.956
-20.496,1008.21,-17.324
-36.356,996.008,-10.248
-47.092,996.252,-17.568
-46.36,977.464,11.224
-4.148,970.144,40.504
-14.152,980.148,53.192
-10.98,994.3,32.696
1.708,997.96,12.932
-32.94,993.08,8.784
-47.336,981.856,1.952
-15.128,984.784,-15.128
-3.904,984.052,-10.248
-22.204,993.08,-13.176
-45.14,1004.79,-25.62
-60.268,997.96,-14.152
-45.872,993.812,-11.224
-54.412,1006.5,2.44
-10.736,1039.93,-20.74
1.708,1081.65,-21.96
-18.056,1124.11,-7.32
-28.548,1167.05,20.008
-20.008,1212.92,54.168
-12.444,1268.56,83.936
-19.52,1355.66,60.024
7.564,1399.58,28.304
-8.296,1403.98,25.62
-89.06,1447.16,24.644
-138.592,1512.56,-28.06
-119.072,1521.34,-87.84
-88.084,1494.01,-103.7
-64.416,1453.75,-105.896
-58.072,1406.17,-76.372
-43.92,1382.26,-7.32
-12.444,1343.22,68.564
38.308,1292.96,129.076
79.056,1257.33,172.02
44.652,1226.83,212.524
-37.332,1218.05,263.276
-102.968,1227.56,319.64
-147.62,1223.9,289.14
-135.908,1228.78,179.828
-80.032,1225.37,50.996
-7.32,1185.35,-28.548
-1.22,1090.92,56.364
-123.464,951.356,262.3
-214.964,907.68,374.54
-206.912,948.916,288.652
-121.756,956.236,142.008
-130.052,933.056,85.156
-107.36,861.076,50.996
-38.308,746.152,1.708
37.332,627.08,-37.576
141.032,526.064,-181.048
218.136,445.788,-275.72
213.744,359.656,-232.288
141.032,253.516,-70.76
61.0,230.092,49.288
-5.856,260.348,40.992
-133.224,292.068,10.492
-264.008,346.724,48.312
-270.596,445.3,50.508
-280.844,527.04,47.58
-324.764,594.872,46.604
-326.716,658.312,4.148
-334.28,737.612,4.392
-374.296,791.536,38.308
-417.484,845.216,50.752
-357.948,925.98,-14.396
-391.376,1008.7,-111.996
-572.18,1127.28,-215.696
-826.672,1291.25,-453.352
-1312.96,1482.54,-1056.76
-1672.62,1450.34,-1469.37
-2385.59,1363.23,-825.208
-3687.33,-627.568,762.744
-304.756,-4753.61,4672.6
2130.61,-4146.05,4217.54
1754.36,848.144,-3312.06
1780.47,783.484,-1106.78
721.02,138.592,970.144
1762.17,42.7,94.916
920.368,-46.36,319.64
841.312,-251.564,1034.8
996.496,-133.224,830.576
1008.45,133.956,473.604
992.836,293.532,354.776
961.116,430.904,291.824
1021.87,418.46,134.2
878.156,222.284,366.976
747.86,128.1,656.116
669.292,99.552,705.16
741.516,51.484,709.308
855.952,15.372,730.048
791.536,-55.144,710.528
632.204,-150.06,876.448
384.3,-274.256,1133.14
357.46,-324.764,1225.61
11.712,-288.652,1021.87
-92.476,-286.7,1055.54
-220.332,-376.492,1113.62
-368.684,-345.26,878.888
-394.06,-339.648,432.368
-287.92,-525.088,80.52
-190.808,-614.88,-620.492
288.896,-528.748,-1329.56
542.412,-514.352,-1148.02
341.844,-615.368,-1243.42
252.296,-567.544,-1784.37
400.16,-511.912,-2091.57
392.352,-573.156,-2042.77
447.008,-671.976,-1925.89
556.076,-676.368,-2039.11
379.176,-647.576,-2084.25
176.168,-641.72,-1979.57
183.488,-620.248,-1953.46
348.676,-600.24,-1916.62
470.432,-597.068,-1720.93
469.456,-608.78,-1448.87
501.908,-599.752,-1252.21
462.868,-631.716,-1062.38
437.248,-627.568,-857.172
526.552,-573.888,-727.364
588.284,-539.484,-616.832
622.932,-484.584,-573.644
711.748,-396.988,-469.7
604.632,-376.004,-415.288
265.472,-425.536,-303.048
34.892,-422.608,-86.132
63.196,-415.776,115.412
96.38,-487.756,346.236
115.412,-503.372,579.744
58.072,-553.148,801.052
-45.384,-674.172,1192.92
124.684,-742.98,1590.64
430.416,-736.392,1633.58
689.544,-730.048,1536.22
1006.01,-842.044,1410.56
1257.82,-921.588,1420.81
1335.9,-952.576,1446.68
1356.88,-999.912,1386.9
1342.98,-995.764,1259.28
1410.32,-902.068,1001.38
1538.91,-729.56,600.972
1515.0,-535.824,164.456
1467.42,-306.708,-200.324
1452.29,-170.068,-350.628
1371.28,-96.38,-331.596
1298.08,-63.196,-341.112
1234.15,-16.104,-389.668
1183.89,35.38,-459.94
1150.46,67.832,-436.272
1115.81,33.916,-310.368
1096.78,-33.184,-146.644
1085.56,-82.228,-0.244
1030.17,-144.448,96.624
980.148,-204.472,207.4
1044.32,-230.336,318.908
1159.24,-223.016,329.156
1185.35,-183.0,306.952
1085.56,-192.516,362.584
982.1,-196.176,449.936
980.392,-181.292,471.896
1153.14,-141.276,389.912
1101.66,-110.532,347.456
933.788,-93.208,372.588
904.02,-31.72,333.792
951.112,8.296,295.484
985.272,39.04,276.208
978.928,52.948,267.424
929.64,73.932,276.696
910.12,101.748,280.112
912.804,113.216,274.5
959.408,135.908,242.78
991.128,134.932,241.56
997.716,127.856,266.936
990.64,139.324,282.552
998.204,162.016,265.96
1016.26,174.46,253.028
1010.16,166.408,275.964
992.836,158.6,303.048
964.776,175.924,312.564
949.16,203.008,301.828
960.628,220.82,271.572
958.188,233.508,255.712
934.764,245.708,241.072
929.152,250.1,248.392
912.804,263.276,249.612
886.94,291.824,221.308
893.772,293.532,199.104
987.224,230.092,258.884
1468.39,111.264,279.38
2285.06,-96.136,268.156
2219.42,-302.56,362.34
1421.06,-418.704,529.48
774.456,-314.028,368.196
214.232,72.956,87.352
-480.68,638.548,-170.556
-1342.49,1182.91,-51.24
-1454.0,1237.57,121.512
-50.752,867.42,31.476
602.192,816.668,-93.208
106.14,966.484,-0.976
-191.784,1059.45,-83.204
-97.356,1054.57,-149.084
7.076,1071.4,-148.108
135.42,1037.0,-74.664
241.804,985.028,24.156
228.872,985.516,69.54
221.552,1011.87,48.8
179.34,1034.07,18.056
190.076,1035.78,14.64
251.808,1026.26,9.272
251.564,1014.31,20.984
243.268,992.592,37.332
252.052,976.488,44.164
239.364,966.728,50.508
224.724,969.9,37.82
214.232,976.244,34.16
218.136,981.368,40.992
214.476,1001.38,50.02
207.156,1051.64,46.604
183.0,1120.2,44.408
181.78,1203.41,20.496
228.14,1251.96,-24.156
231.068,1296.13,-42.944
174.704,1308.82,-31.476
121.512,1313.94,-5.612
112.728,1306.13,28.792
154.696,1284.42,63.44
167.628,1301.74,68.32
168.604,1338.83,61.244
166.408,1344.2,53.436
147.864,1326.63,48.8
22.448,1335.66,53.192
-91.988,1352.0,54.9
-142.008,1319.06,85.888
-51.728,1299.54,17.812
-34.16,1335.41,-36.6
-81.252,1389.34,-73.444
-136.884,1417.15,-90.524
-163.48,1400.07,-42.212
-142.984,1307.6,53.924
-103.944,1235.37,159.576
-73.688,1163.88,217.16
-63.196,1116.54,184.952
-23.424,1135.33,113.948
77.104,1214.39,5.856
106.384,1262.46,-43.676
75.152,1169.74,-26.352
-9.516,1086.04,118.584
-2.928,1021.63,162.26
71.98,927.932,150.792
101.26,841.556,151.768
41.48,735.904,108.58
-41.48,607.072,69.052
-64.172,498.736,-4.392
-73.932,377.712,-35.136
-80.032,267.18,-26.108
-16.592,224.48,-59.292
75.396,233.264,-132.736
67.344,248.88,-94.916
-35.38,269.62,25.62
-113.216,261.324,152.5
-177.144,288.652,241.072
-204.472,381.128,229.116
-220.088,512.888,144.692
-258.396,627.324,67.1
-343.552,706.624,53.192
-349.652,785.68,26.84
-304.024,861.564,15.616
-285.48,909.388,36.6
-297.924,923.296,86.62
-276.208,949.404,105.408
-232.776,984.052,105.652
-210.084,1010.4,104.188
-188.856,1026.26,91.744
-179.828,1019.92,94.428
-180.804,1008.94,109.556
-191.54,997.716,122.732
-216.184,1008.21,122.0
-206.424,1011.14,98.332
-198.128,996.008,100.528
-216.916,1014.31,94.916
-336.232,1058.96,54.168
-670.268,1238.79,-196.664
-1284.42,1467.42,-688.324
-1899.78,1264.9,-1010.89
-1402.51,711.748,-830.332
-656.848,317.932,-113.216
-1126.55,-284.504,967.46
-87.84,-1458.39,1834.15
1507.43,-2155.5,2379.98
2000.31,-715.896,1033.58
2094.74,628.544,-1485.23
1367.38,111.752,-37.332
-6.344,247.66,1098.24
285.724,429.196,817.888
835.944,416.02,309.636
1074.58,356.972,343.308
980.392,251.076,414.312
792.756,212.524,558.272
618.54,150.548,755.18
617.076,98.82,843.508
696.62,34.892,816.424
757.864,21.716,868.884
749.812,28.304,919.392
695.888,54.412,907.436
616.344,75.64,930.372
566.08,101.504,923.296
739.076,49.288,845.704
624.152,7.808,949.404
629.032,-48.312,960.384
692.96,-94.428,952.82
391.132,-163.48,923.052
330.62,-117.852,861.076
529.968,-90.524,813.74
547.78,-116.876,762.256
499.224,-170.312,599.752
272.06,-204.228,339.648
134.2,-195.688,103.7
249.124,-294.02,-55.632
421.632,-396.5,-330.132
454.084,-408.944,-783.24
314.76,-258.64,-1253.43
309.88,-154.208,-1529.39
412.36,-210.084,-1493.28
465.796,-312.808,-1469.61
403.82,-304.512,-1557.94
422.608,-235.46,-1705.32
415.044,-225.212,-1768.76
381.86,-284.26,-1669.69
319.396,-343.552,-1535.25
321.836,-423.096,-1471.32
389.668,-441.396,-1448.38
440.664,-467.016,-1404.46
466.04,-490.44,-1368.6
476.776,-486.048,-1352.0
542.656,-472.384,-1328.34
636.84,-470.188,-1278.56
694.912,-472.628,-1213.17
702.476,-491.416,-1133.38
672.952,-484.096,-1040.42
663.924,-457.5,-950.624
672.22,-439.2,-828.38
672.464,-432.856,-703.452
643.184,-395.28,-633.912
550.952,-342.576,-561.2
459.452,-277.672,-444.568
405.04,-221.552,-327.204
439.688,-191.54,-309.392
443.592,-163.236,-290.116
482.388,-125.66,-231.068
444.568,-142.984,-115.9
279.38,-235.216,7.564
125.172,-347.212,214.72
243.268,-421.632,532.652
242.292,-521.428,762.988
267.912,-582.672,940.864
330.132,-705.404,1168.76
332.572,-843.752,1487.18
434.076,-936.228,1680.67
630.252,-971.364,1553.3
747.86,-975.024,1427.89
861.808,-991.372,1438.38
1025.29,-1000.89,1377.87
1125.08,-965.508,1212.68
1244.16,-911.34,1070.43
1262.7,-889.38,916.22
1341.02,-840.336,722.24
1514.51,-722.728,523.624
1558.18,-633.912,396.744
1492.06,-558.516,343.552
1491.82,-509.228,302.072
1489.62,-427.0,212.036
1504.26,-351.604,166.408
1731.18,-283.284,94.428
1774.12,-234.728,-18.788
1348.83,-249.124,86.376
1209.75,-173.728,173.24
1304.18,-97.356,155.672
1351.03,-54.656,143.228
1212.92,28.548,86.62
886.208,148.596,145.424
505.568,352.336,114.192
317.444,705.648,52.948
342.332,943.792,-140.056
429.44,866.932,-98.82
376.004,707.6,124.928
495.076,371.612,378.688
930.86,123.22,467.016
2247.0,-82.472,476.776
3163.95,8.296,69.54
2109.14,-234.728,281.82
975.268,-413.092,583.404
151.28,-181.536,424.804
-247.172,-11.956,192.272
-660.264,1.22,132.492
-1172.91,86.376,204.716
-1333.7,305.244,207.644
-1107.52,458.476,94.184
-854.244,559.004,-30.256
-687.348,686.128,-70.028
-525.332,838.384,-54.412
-437.004,966.728,54.168
-223.016,1072.62,83.204
-10.248,1164.12,53.436
100.528,1211.7,71.004
59.78,1219.51,142.984
-55.388,1183.64,225.944
-101.748,1136.06,245.464
-132.004,1105.81,219.6
-104.188,1084.58,161.284
-86.62,1060.18,133.712
-95.16,1034.8,121.268
-81.496,1024.8,101.016
-62.464,1000.89,101.016
-66.856,989.664,111.02
-51.972,970.144,124.196
-47.58,939.644,161.528
-49.532,921.1,185.44
-64.904,905.484,204.96
-74.176,912.316,196.908
-71.248,935.984,166.652
-47.092,947.94,152.988
-2.928,966.484,152.012
-1.464,976.976,162.748
-30.256,999.18,143.96
-73.688,1019.68,122.732
-75.396,1022.12,113.704
-61.488,1014.06,124.44
-11.468,1007.48,125.172
25.62,1011.38,121.756
-9.272,1016.26,144.936
-32.696,1018.7,146.4
-51.484,1009.92,142.74
-43.432,992.348,139.08
20.496,976.244,118.096
41.236,966.728,119.804
13.664,974.536,112.728
-15.128,965.752,119.56
-10.492,961.848,108.824
-33.916,945.256,130.296
2.44,946.232,121.512
29.28,964.776,101.504
37.576,980.148,99.796
36.844,990.884,98.576
43.92,997.716,107.604
106.14,1011.38,103.456
161.772,1036.27,101.26
146.888,1059.94,103.212
99.796,1076.04,105.164
57.34,1073.84,101.016
51.24,1072.38,98.088
74.42,1067.5,94.916
59.78,1081.41,92.232
25.864,1113.62,96.868
8.784,1142.9,106.14
33.428,1179.98,102.48
57.584,1234.15,69.296
48.068,1309.3,22.448
52.704,1377.14,-2.196
48.068,1391.53,48.068
75.396,1389.58,91.744
78.324,1394.46,141.276
86.132,1477.42,121.024
126.636,1582.34,51.24
104.432,1619.92,8.54
42.456,1586.98,29.768
-30.744,1532.32,86.864
-41.968,1497.67,89.06
-1.952,1524.51,61.976
33.672,1557.7,71.98
63.928,1498.89,124.928
110.776,1432.77,132.736
151.28,1360.06,133.224
174.46,1254.16,133.468
191.296,1082.87,141.764
219.112,843.508,234.972
214.476,681.004,248.88
204.716,581.696,151.036
236.68,465.308,2.928
93.696,361.852,28.792
-101.26,326.472,127.856
-182.512,316.712,141.276
-199.592,333.06,85.888
-198.616,345.504,3.416
-185.928,366.732,-60.756
-197.152,416.02,-108.824
-233.508,445.3,-112.728
-308.416,457.988,-48.312
-366.976,487.512,42.7
-386.008,523.136,91.256
-384.056,576.816,106.14
-346.968,653.92,25.864
-283.284,733.708,-69.54
-188.368,811.544,-134.688
-105.896,859.124,-119.56
-51.24,901.58,-75.64
79.544,942.328,-111.996
192.76,963.8,-101.992
226.188,978.684,-48.556
242.048,1016.99,-65.392
205.204,1035.29,-26.352
168.848,1036.02,4.636
134.444,1035.05,27.084
121.024,1050.42,19.52
93.696,1050.91,35.38
81.984,1045.05,22.204
90.28,1039.44,-1.708
60.268,1021.87,16.592
3.416,993.812,66.856
-26.108,1014.06,33.672
8.784,1048.96,-69.052
6.588,1042.12,-67.344
-38.308,1021.14,-44.896
-78.812,1012.11,-24.156
-19.032,1005.52,-48.068
49.288,977.464,-45.628
38.796,947.696,-22.204
84.424,903.288,37.332
117.364,845.704,122.732
153.232,815.692,156.404
322.812,834.48,57.34
450.424,848.144,-48.556
291.092,897.676,-95.16
141.764,930.128,-203.496
-247.66,1059.2,-529.48
-447.252,1320.53,-850.584
-1099.46,1491.57,-3.172
-1694.82,-178.852,1173.4
1094.1,-2305.07,2297.5
2297.5,-1395.19,799.344
2099.38,-267.18,-407.724
965.996,-638.06,935.984
323.3,-248.148,1173.4
971.12,19.52,552.416
1191.45,117.364,223.504
1501.58,71.004,254.492
1440.09,25.62,273.524
1111.91,-32.208,469.7
898.652,-9.272,532.408
1076.04,29.524,394.548
1017.97,-34.648,408.944
980.148,-75.152,551.44
927.688,-68.808,559.004
942.572,-100.528,559.492
958.92,-142.74,666.852
900.848,-168.848,723.948
828.868,-197.884,739.32
700.036,-208.62,781.288
604.632,-200.812,841.312
452.62,-220.088,926.956
405.284,-256.444,1000.4
415.532,-278.648,1011.38
361.12,-252.052,924.028
190.32,-237.412,792.268
70.516,-179.584,653.432
128.1,-183.732,503.616
194.468,-156.16,273.524
99.308,-98.576,-61.244
121.512,-77.836,-235.704
207.888,-201.788,-376.492
241.804,-275.232,-551.684
393.328,-269.62,-871.324
524.112,-254.736,-1144.12
546.072,-281.82,-1235.37
410.896,-348.676,-1197.06
441.64,-416.02,-1276.61
546.56,-464.088,-1474.74
550.464,-482.632,-1486.45
474.336,-522.16,-1441.31
426.512,-533.384,-1530.86
497.272,-511.18,-1650.9
536.068,-538.264,-1677.99
504.348,-575.108,-1647.0
504.592,-603.412,-1642.12
522.892,-590.724,-1635.04
560.956,-553.88,-1590.39
575.108,-535.824,-1482.3
576.084,-576.084,-1343.71
498.248,-607.316,-1175.84
435.296,-616.344,-1005.28
441.64,-569.252,-881.816
487.756,-521.184,-767.136
510.448,-504.592,-617.32
583.16,-405.284,-588.04
637.572,-351.36,-557.296
553.88,-320.86,-445.788
484.828,-353.312,-326.96
479.216,-388.692,-232.532
629.764,-345.504,-174.704
746.152,-418.46,-93.94
659.532,-441.396,42.212
572.424,-440.664,204.716
547.78,-429.44,260.104
611.22,-372.344,307.196
703.696,-374.54,317.932
561.444,-516.06,457.5
443.836,-601.216,659.044
569.008,-619.272,742.004
679.296,-550.708,670.024
622.932,-586.576,679.784
737.612,-637.328,742.248
681.248,-751.276,818.376
655.628,-857.66,985.028
604.632,-908.9,1094.34
510.692,-887.672,1025.78
555.588,-865.468,908.168
656.604,-869.128,836.676
637.572,-897.676,860.588
663.924,-888.892,864.736
778.36,-891.82,822.28
816.18,-897.92,788.364
911.34,-888.648,733.708
946.964,-879.864,665.388
774.212,-876.204,584.624
850.828,-785.68,422.852
1187.79,-753.472,252.784
1401.05,-654.896,111.508
1320.53,-552.172,106.872
1211.46,-472.628,90.768
1207.31,-372.588,-16.348
1238.06,-270.108,-82.472
1183.89,-216.184,-47.092
1078.72,-225.944,44.652
989.42,-248.148,129.32
975.512,-263.276,167.14
1028.46,-284.992,219.356
967.948,-299.632,299.632
869.616,-301.584,373.564
841.556,-294.996,416.02
928.42,-286.944,432.612
1190.96,-280.844,409.188
1491.33,-286.212,353.068
1555.99,-343.064,366.732
1510.36,-411.14,386.008
1410.56,-513.132,437.492
1350.78,-490.928,430.172
1178.76,-352.824,291.824
686.616,-141.032,199.592
291.58,94.184,215.696
-155.184,410.652,186.172
-545.34,782.02,163.724
-805.2,997.96,257.42
-397.72,987.224,141.276
265.228,911.584,-39.772
345.016,934.764,-34.892
81.984,995.52,39.284
82.716,1075.06,-64.172
165.92,1107.76,-139.08
148.108,1091.9,-82.472
210.816,1086.04,-59.536
240.096,1067.99,-28.792
311.588,1027.0,15.372
349.896,997.228,57.828
378.444,993.08,83.692
386.496,990.884,85.4
329.4,979.66,99.552
325.984,974.78,77.836
320.128,957.212,68.32
288.164,935.74,71.492
295.728,942.572,51.24
299.632,935.496,58.56
282.064,924.028,79.3
273.524,926.468,75.152
272.792,926.224,66.612
274.012,937.936,44.652
301.828,957.944,31.232
305.732,965.996,41.724
305.244,973.316,60.268
316.712,975.268,61.732
307.196,987.956,47.58
286.456,989.176,50.752
293.776,988.932,55.388
300.608,983.32,50.02
298.9,978.684,54.656
296.46,971.364,56.12
284.992,992.104,60.268
307.44,1026.02,44.164
320.616,1066.28,34.892
335.744,1121.42,47.58
324.764,1191.21,73.688
344.284,1272.46,99.308
377.712,1332.0,136.396
401.136,1446.92,125.172
365.024,1555.01,89.792
340.136,1584.05,63.684
312.808,1580.14,40.992
317.932,1601.13,27.084
341.844,1615.28,36.112
342.332,1565.26,82.716
299.632,1475.22,125.904
216.184,1404.22,148.596
127.368,1374.7,149.084
43.92,1339.56,161.284
-35.868,1288.08,207.156
-60.268,1277.58,266.692
-33.916,1308.08,296.216
18.3,1324.43,309.392
35.624,1223.17,374.052
-50.264,1115.08,426.512
-138.348,999.18,468.724
-65.636,811.544,459.94
56.364,641.232,350.628
74.176,541.924,167.14
66.856,443.348,-35.136
-23.18,379.176,-127.368
-134.444,307.196,-127.856
-204.472,205.936,-97.112
-235.46,102.48,-46.848
-180.316,45.384,-34.404
-93.94,50.264,-26.84
-44.408,100.772,-16.836
-69.784,207.888,18.544
-164.212,333.06,28.548
-261.812,451.156,17.08
-297.924,552.172,-18.3
-296.948,634.156,-61.244
-304.756,716.628,-42.456
-330.376,785.436,7.076
-335.5,854.976,38.552
-296.704,929.64,27.816
-266.204,1006.01,-8.54
-217.648,1080.43,-71.004
-159.088,1120.2,-112.24
-177.144,1121.91,-79.788
-194.712,1112.64,-37.82
-189.1,1105.81,-30.256
-171.288,1095.56,-14.396
-165.432,1070.67,2.928
-166.164,1037.73,34.16
-156.16,1008.7,51.24
-137.128,984.296,59.048
-154.94,977.464,69.296
-163.48,955.748,88.328
-161.528,922.808,119.072
-175.436,919.636,131.028
-187.88,936.472,120.048
-193.492,974.292,64.66
-177.876,990.396,23.424
-170.8,987.956,9.516
-174.216,983.32,13.664
-188.612,981.612,32.94
-171.288,986.248,24.888
-148.108,988.2,24.888
-162.016,969.9,55.388
-168.36,965.996,52.46
-141.276,984.784,29.524
-143.472,989.176,41.724
-159.332,984.784,56.364
-152.988,986.98,52.46
-128.832,993.812,34.892
-138.592,982.832,59.048
-150.304,974.536,77.104
-145.18,975.756,77.592
-143.472,986.004,60.512
-142.008,987.712,64.904
-138.592,989.908,73.2
-137.372,990.884,81.252
-127.124,993.324,68.808
-121.024,997.96,52.948
-125.66,1000.16,47.336
-141.764,993.568,54.9
-154.696,979.172,74.664
-163.48,977.22,72.956
-147.62,998.936,36.6
-136.396,999.668,26.84
-146.644,994.3,35.136
-155.428,985.516,61.732
-162.016,979.416,75.64
-144.692,984.052,62.22
-141.52,988.688,66.612
-143.96,989.908,71.248
-135.908,983.076,77.104
-130.784,985.028,76.86
-136.64,978.44,89.548
-145.424,982.344,90.524
-137.86,986.98,74.908
-123.464,995.276,57.096
-139.08,996.984,56.12
-147.864,993.324,55.388
-167.384,985.516,66.612
-162.26,983.564,66.124
-156.892,992.104,56.852
-161.772,983.564,52.704
-177.388,964.044,75.884
-186.904,952.576,87.108
-169.58,949.648,84.668
-169.336,958.92,72.468
-175.192,959.652,68.564
-169.336,945.988,84.18
-198.86,927.2,91.256
-267.912,932.324,39.772
-440.664,1084.34,-95.16
-1085.56,1415.44,-510.204
-1917.11,1741.67,-1184.62
-1647.24,971.608,-959.652
-1031.63,113.46,183.0
-871.08,-118.34,1072.87
-95.16,-745.664,1112.4
1535.25,-1377.87,931.836
1953.95,-943.06,964.776
1931.99,-239.608,469.456
1637.24,-170.556,1.464
471.408,-226.188,832.528
140.056,-23.424,1165.1
853.512,59.536,791.048
1272.22,201.544,363.56
1317.11,335.988,111.752
961.116,220.576,366.488
646.6,128.832,661.484
519.72,130.54,762.256
566.568,147.62,716.628
560.956,119.56,705.404
565.592,-11.956,841.312
486.536,-149.084,970.144
478.728,-245.952,1039.44
337.696,-337.452,1151.68
219.844,-398.452,1290.76
233.264,-412.36,1293.2
288.652,-468.48,1199.26
428.464,-570.472,1158.02
309.636,-610.976,1108.98
33.184,-603.168,959.652
416.996,-486.292,665.876
426.024,-428.464,316.468
483.364,-295.972,-133.956
539.728,-285.48,-360.388
487.024,-272.06,-443.592
651.48,-269.132,-718.092
841.312,-212.036,-1077.5
748.592,-168.604,-1129.72
567.056,-187.88,-1095.32
508.496,-225.944,-1212.92
617.076,-296.704,-1271.0
703.452,-306.22,-1386.9
682.956,-263.52,-1420.32
627.324,-209.84,-1430.57
630.496,-193.98,-1487.42
685.396,-198.372,-1531.59
763.476,-213.744,-1511.58
806.42,-223.016,-1498.4
797.392,-235.46,-1457.9
766.892,-249.124,-1426.67
808.616,-248.88,-1395.19
885.232,-277.428,-1333.46
904.264,-345.748,-1204.63
903.532,-421.876,-1029.68
897.432,-493.368,-883.28
866.2,-537.532,-728.828
831.552,-520.94,-614.392
807.884,-486.78,-511.424
721.752,-485.804,-401.136
595.604,-471.896,-231.068
481.9,-445.788,-67.832
445.544,-394.06,77.104
494.832,-382.348,213.988
616.588,-358.924,185.44
711.748,-328.912,117.12
574.376,-347.456,208.864
320.128,-426.268,386.496
402.6,-550.464,607.072
481.9,-627.324,728.096
272.304,-644.16,850.828
225.212,-670.512,961.604
309.148,-742.736,1042.37
320.86,-786.656,1154.12
471.652,-850.584,1178.76
585.112,-878.888,1180.47
700.524,-889.38,1174.13
805.2,-890.112,1108.98
901.092,-912.56,1030.9
924.272,-905.24,973.316
988.932,-868.396,835.7
1027.73,-864.492,728.584
1040.66,-854.0,657.58
972.096,-822.768,574.132
903.044,-769.332,458.72
855.708,-723.46,348.188
856.928,-710.772,291.824
933.3,-702.232,183.0
955.748,-664.656,117.364
1021.14,-619.516,43.432
1134.11,-555.588,-87.108
1202.43,-497.76,-137.616
1313.21,-447.496,-166.164
1282.46,-439.688,-68.32
1118.98,-407.724,-20.984
1106.3,-357.704,-84.18
1182.42,-331.596,-49.288
1435.45,-411.628,124.196
1933.46,-488.244,94.916
1795.11,-679.54,239.12
1559.4,-878.156,404.796
1477.42,-786.9,268.4
1247.33,-573.4,121.268
732.0,-386.984,88.084
147.864,-4.148,-46.116
-786.656,799.344,-98.088
-1162.9,1601.86,-161.772
-1092.14,1356.64,-38.552
-302.804,783.24,6.1
404.064,602.192,-70.516
178.364,702.232,-18.544
-59.048,853.756,-38.796
50.02,947.452,-144.204
186.416,989.664,-133.468
240.096,993.324,-42.456
215.208,971.852,81.008
287.92,975.024,99.796
344.04,1014.06,37.332
336.476,1073.36,-28.304
314.272,1105.56,-33.428
320.616,1083.6,-8.296
339.648,1036.76,30.012
328.668,1013.33,48.556
319.152,998.448,35.136
293.776,981.612,25.62
290.604,958.188,29.036
273.28,950.38,28.548
259.616,957.212,5.856
230.336,946.964,9.516
219.6,944.28,7.32
237.412,942.572,-2.196
225.944,939.156,16.592
212.768,939.888,29.036
195.444,959.652,2.196
209.108,962.092,-6.832
206.668,958.92,7.076
201.544,939.644,24.644
190.076,951.844,30.5
224.968,945.744,35.624
276.696,946.72,43.92
