acc_x[mg],acc_y[mg],acc_z[mg]
381.372,651.968,-141.276
625.86,559.492,-59.78
713.944,589.504,-63.196
869.372,573.644,-61.976
1006.012,502.64,-55.632
921.588,467.992,-22.692
714.676,585.112,-21.96
499.468,698.328,-69.052
202.764,803.004,-156.648
14.396,927.444,-196.176
-25.132,945.256,-230.092
-55.144,1002.352,-314.028
-110.044,1110.444,-337.94
-232.044,1168.028,-289.628
-348.432,1190.476,-213.012
-403.82,1123.132,-129.808
-468.724,1040.66,-64.416
-539.728,1030.412,-39.284
-485.316,1030.9,-45.14
-330.62,984.296,-37.82
-231.8,954.528,26.108
-194.712,890.112,83.936
-120.78,785.924,143.472
-92.72,721.02,211.06
8.296,708.332,204.228
350.14,665.388,118.34
826.672,681.004,-16.104
839.36,801.296,-92.72
547.048,905.728,-36.356
397.964,903.532,57.584
300.12,816.668,43.432
335.012,785.68,-46.848
467.504,883.524,-213.744
547.536,1061.4,-359.9
621.956,1159.732,-386.252
721.996,1112.396,-317.932
664.168,968.68,-172.02
519.232,987.468,-63.196
445.788,1060.912,-92.232
312.32,1082.14,-120.536
122.244,1065.548,-80.276
-13.176,1040.172,-34.648
-59.048,1016.26,-17.812
-23.18,967.216,-15.128
60.512,949.16,5.368
152.5,903.288,55.632
268.156,839.116,126.392
324.52,779.336,147.132
262.056,650.992,182.024
234.24,888.404,-79.056
278.404,1015.528,-125.416
310.124,917.196,-70.516
188.368,969.9,64.66
80.032,937.692,136.884
47.824,950.624,188.368
87.84,1017.236,104.432
85.644,1062.864,48.8
43.676,1054.568,71.004
13.664,1038.464,105.652
16.348,1011.868,149.328
97.6,987.712,134.932
223.504,986.248,55.632
215.208,976.488,15.128
111.996,988.2,14.152
38.064,985.76,10.736
45.14,1015.528,-12.932
74.176,1044.32,-82.472
55.388,1070.428,-122.976
54.656,1079.944,-144.448
43.432,1084.58,-130.052
16.104,1065.548,-116.876
-2.684,1051.396,-96.38
-26.108,1039.684,-85.156
-69.54,1011.624,-59.78
-118.096,978.684,14.396
-66.124,934.276,69.052
-61.244,931.592,60.268
-9.516,975.512,-33.184
16.836,977.952,-71.736
29.768,964.776,-38.064
33.428,941.84,27.572
-77.348,950.868,74.42
-72.468,997.472,58.316
47.824,999.424,-15.616
209.84,966.972,-33.428
160.552,906.46,-27.572
101.504,1003.084,-20.74
62.22,1029.68,-13.908
29.036,1026.264,10.248
130.296,1000.4,-22.204
83.936,1040.416,-70.76
-131.76,1155.34,-92.72
-281.576,1279.536,-97.6
-204.472,1277.828,-134.932
-169.336,1199.504,-174.948
26.84,1155.096,-182.756
442.128,1064.328,-181.78
807.152,964.776,-138.348
924.028,833.26,-36.356
806.664,719.068,57.096
566.568,614.148,80.764
336.72,634.4,23.668
214.476,719.312,-48.312
151.036,753.228,-91.5
36.6,762.256,-55.876
-126.636,787.876,2.684
-211.304,843.508,14.884
-233.996,930.86,-7.808
-236.192,1010.16,-22.936
-200.568,1076.772,-20.008
-150.304,1152.412,-7.808
-156.404,1184.864,50.508
-161.528,1148.752,112.484
-76.372,1123.62,108.824
-48.312,1123.132,113.216
-100.772,1104.832,142.74
-106.384,1126.548,130.052
-69.54,1121.18,87.596
-5.612,1096.536,35.624
31.232,1071.404,11.468
63.928,1044.808,-3.416
65.88,1011.136,11.712
44.652,966.728,33.428
34.16,938.668,32.452
60.512,931.104,29.768
95.16,918.172,20.008
154.452,868.396,-0.488
109.312,884.988,1.708
11.712,917.928,16.836
-46.604,954.772,34.892
-42.212,971.12,34.648
-8.052,971.852,6.588
12.2,969.656,0.976
9.516,959.164,18.056
4.88,1000.644,-8.052
-8.784,1038.708,-27.084
-28.792,1066.28,-41.724
-57.584,1069.696,-32.696
-61.244,1043.588,-23.912
-73.932,1004.06,0.488
-72.224,977.464,30.256
-142.008,929.884,75.884
-188.124,925.98,105.408
-198.86,932.324,85.888
-160.308,955.992,34.404
-27.816,963.068,-46.36
42.456,956.968,-87.352
63.684,961.116,-85.4
42.7,952.332,-64.172
5.856,961.36,-50.508
5.856,978.684,-56.364
8.54,978.928,-71.492
11.712,988.932,-99.552
-0.976,1006.744,-113.46
-41.48,1021.872,-116.632
-80.276,1013.332,-111.752
-86.864,1021.14,-120.78
-71.492,1016.992,-123.708
-75.396,1000.4,-122.244
-60.756,986.98,-117.608
-71.98,993.324,-120.78
-65.636,999.424,-124.928
-50.996,1001.62,-116.144
-56.12,1014.552,-99.552
-46.36,1008.94,-74.176
-8.296,1022.116,-54.168
46.848,1000.4,-21.228
22.448,1004.548,-3.904
14.152,992.104,30.256
46.116,964.288,77.836
42.456,946.964,99.308
57.096,957.944,69.784
73.444,967.46,34.892
49.288,965.996,26.352
41.724,974.048,17.568
21.472,985.516,8.54
-1.952,1012.112,-5.124
-3.904,1007.72,-13.176
11.224,1005.524,-20.252
-1.708,996.252,-8.296
-14.396,989.908,3.172
-45.14,986.736,17.08
-41.724,990.396,-0.488
-40.26,993.568,2.928
-40.016,1004.548,1.22
-24.156,986.98,3.66
-31.476,990.396,2.196
-21.472,995.52,-9.516
-11.712,986.248,-24.888
26.84,985.516,-39.528
62.708,1000.4,-45.384
65.88,993.324,-33.672
35.624,993.08,-14.64
10.004,991.372,-8.296
-3.172,985.272,-13.908
-8.54,976.976,-6.588
-22.204,974.78,13.42
-30.256,976.488,12.932
-39.04,980.392,6.1
-49.288,987.224,1.464
-30.012,977.952,-18.056
-4.148,994.788,-39.528
-7.32,1009.184,-37.82
-47.092,1018.7,-13.664
-156.892,1058.96,-11.956
-358.924,1123.132,-82.716
-249.856,1113.372,-127.368
-33.184,981.856,-65.148
-254.98,724.436,-101.504
-344.772,701.988,-75.396
-151.768,385.52,-162.26
497.516,392.108,97.112
991.128,28.792,418.46
1007.232,3.172,110.044
1446.92,264.74,-65.392
1529.392,263.276,-350.384
1512.312,-357.216,287.188
1484.496,-568.52,635.376
1299.056,-392.596,698.084
941.108,-136.152,747.372
866.2,-131.272,944.036
903.288,-230.824,1168.272
873.52,-243.268,1219.268
820.816,-147.376,1137.528
833.26,-76.86,1054.08
912.804,-76.86,972.096
772.016,-52.704,847.9
565.836,-26.108,773.236
448.472,-97.112,690.764
526.796,-160.552,481.9
629.764,-172.02,278.16
504.836,-146.4,148.596
415.776,-120.78,70.272
488.488,-119.804,-92.72
578.036,-150.548,-263.032
644.892,-161.528,-377.956
659.044,-167.872,-436.76
785.924,-207.644,-483.364
847.656,-245.22,-525.088
903.044,-200.324,-547.292
989.908,-178.608,-533.384
1049.2,-233.752,-488.488
1165.832,-264.252,-453.596
1325.408,-267.18,-488.976
1443.992,-283.04,-514.84
1503.284,-321.348,-501.42
1534.76,-361.852,-486.292
1524.268,-398.696,-450.912
1470.588,-419.924,-352.58
1449.36,-469.944,-217.892
1518.412,-528.992,-167.384
1556.964,-583.404,-125.66
1447.896,-590.724,-66.368
1309.304,-587.796,1.952
1175.104,-614.636,103.7
1119.96,-651.724,157.624
1025.532,-650.504,178.608
898.652,-660.752,201.056
808.616,-662.704,227.896
717.36,-645.868,248.392
575.596,-598.532,295.972
462.868,-574.132,374.784
400.16,-572.668,471.408
396.988,-555.832,561.2
386.74,-540.216,635.864
355.996,-483.364,658.556
324.764,-452.62,715.408
353.312,-480.192,837.896
425.78,-545.34,968.436
478.24,-518.012,983.076
505.812,-474.336,959.896
653.676,-503.372,1026.264
750.056,-571.936,1145.824
825.94,-628.788,1220.0
820.572,-664.656,1266.116
896.212,-687.592,1286.368
998.692,-678.808,1220.0
1042.368,-625.616,1060.912
1095.072,-623.42,949.892
1130.696,-682.956,916.952
1217.316,-784.216,898.896
1347.124,-850.828,792.756
1279.78,-879.864,640.5
1318.332,-924.76,527.528
1400.56,-958.188,381.372
1386.896,-942.328,194.956
1251.72,-901.824,1.952
1165.344,-868.396,-205.692
1170.468,-744.932,-502.152
1208.044,-592.432,-697.596
970.388,-506.544,-791.536
763.232,-380.64,-818.864
813.496,-226.676,-712.48
915.488,-169.336,-540.704
1120.448,-164.944,-386.252
1359.08,-252.052,-128.832
1388.116,-451.888,162.748
1382.992,-345.748,372.1
1240.496,-384.544,49.776
668.804,49.044,75.64
52.704,430.66,80.764
-88.572,764.696,6.344
68.564,943.548,-137.128
-70.272,775.676,-68.32
-92.476,839.604,-22.448
-183.0,1040.172,-127.124
-54.412,1138.016,-229.604
-132.492,1063.108,-185.928
-303.536,914.024,-32.696
-310.612,972.096,-106.872
-243.268,1014.308,-70.76
-157.136,903.288,24.644
-51.24,952.576,48.312
-9.76,1074.088,-43.92
-35.868,1040.66,7.32
-20.496,1025.776,29.036
-8.052,1073.112,-5.124
-79.788,1040.66,3.172
-103.944,1054.324,-52.216
-89.548,1074.576,-89.304
-67.832,1026.508,-57.096
-101.748,971.852,-32.696
-89.548,970.144,-61.732
-59.536,981.124,-88.816
-1.952,987.224,-86.132
6.832,957.456,-34.648
-16.104,930.128,-5.124
-14.396,927.444,-5.856
1.708,951.6,-25.376
-4.392,972.34,-42.7
-58.804,977.952,-48.8
-73.2,981.368,-63.196
-61.244,985.516,-60.756
-50.996,1002.108,-62.464
-61.488,1006.5,-71.98
-35.136,1008.94,-64.904
-39.284,996.496,-40.992
-44.896,993.812,-43.432
-30.744,1020.652,-71.98
-34.648,1014.064,-65.148
-30.5,992.592,-54.656
-44.652,980.148,-53.436
-27.572,986.004,-56.608
-33.428,983.32,-55.388
-42.7,997.472,-59.78
-48.068,977.708,-46.848
-31.72,961.848,-36.356
-2.684,975.268,-39.772
21.228,1000.4,-40.748
10.004,1026.508,-60.024
-45.384,1026.508,-65.88
-55.876,1020.164,-66.612
-61.488,1028.46,-81.252
-56.364,1045.784,-95.16
-68.32,1045.54,-75.884
-65.636,1055.788,-55.388
-46.604,1079.7,-66.856
-36.844,1111.908,-98.82
-3.66,1151.436,-128.1
16.348,1161.684,-104.188
-3.66,1118.496,-50.02
-31.72,1096.78,-60.268
-86.864,1123.62,-139.324
-158.112,1137.04,-216.184
-202.764,1150.216,-251.32
-205.692,1181.692,-289.628
-181.536,1190.964,-289.628
-128.1,1158.268,-274.744
-41.968,1119.716,-240.584
-21.228,1080.676,-192.028
-77.836,1060.18,-158.6
-78.324,1067.988,-170.556
-22.936,1062.376,-181.292
32.208,1045.052,-135.176
11.956,1046.028,-93.208
-34.16,1058.96,-85.156
-60.512,1028.704,-74.908
13.908,1009.672,-72.468
79.788,1022.116,-46.36
30.012,1019.676,-8.296
-35.868,1025.288,-15.616
-50.996,1024.8,-14.152
8.296,1015.772,-16.104
48.068,1033.828,-3.66
6.832,1048.224,13.42
-29.036,1043.588,15.86
-58.316,986.004,38.064
-59.048,936.96,61.488
-28.548,954.772,50.02
-38.308,1004.304,26.352
-103.456,991.86,34.892
-151.036,971.608,48.8
-155.916,980.392,37.088
-99.796,988.444,37.332
-63.684,966.728,86.62
-52.948,937.448,131.272
-86.62,927.2,150.304
-162.748,898.896,148.108
-169.092,880.352,129.564
-179.828,858.392,144.204
-195.2,849.852,149.572
-183.976,844.24,172.508
-215.452,840.58,175.924
-232.044,854.732,157.868
-223.748,849.12,139.568
-179.584,823.012,155.916
-170.8,767.38,207.888
-187.392,776.652,200.324
-237.656,761.768,184.708
-250.832,747.86,176.412
-251.32,742.492,187.88
-241.804,748.104,198.616
-272.06,722.24,240.828
-268.4,796.172,191.784
-278.648,861.808,147.376
-299.388,844.484,170.068
-277.428,825.94,200.08
-269.132,775.432,263.032
-282.796,782.02,279.136
-296.46,818.62,249.368
-339.892,849.852,212.28
-376.248,839.848,214.72
-345.016,849.12,208.376
-338.184,854.488,216.184
-339.404,889.868,193.248
-317.444,908.168,175.68
-341.6,919.636,168.116
-339.16,927.932,145.18
-325.496,929.396,139.324
-315.98,934.52,142.496
-309.88,915.976,157.136
-324.032,916.952,158.356
-314.272,946.476,119.804
-311.344,962.092,93.696
-318.664,950.624,92.964
-326.228,942.816,95.16
-338.428,935.008,94.672
-335.012,942.572,81.74
-340.136,942.572,79.056
-357.948,920.612,96.624
-344.04,910.12,121.756
-320.86,902.312,144.448
-311.344,902.312,148.84
-322.812,901.58,142.984
-351.116,901.336,135.908
-363.072,900.604,130.54
-338.428,927.2,111.264
-308.416,950.136,102.48
-300.364,944.524,118.34
-309.392,930.128,130.296
-307.44,929.884,125.416
-322.08,915.244,127.124
-334.036,885.476,139.324
-342.82,883.524,130.54
-327.692,913.536,108.092
-347.212,931.348,91.988
-357.216,925.004,98.82
-343.064,909.632,117.364
-335.256,908.168,124.684
-325.496,918.416,125.66
-325.984,914.024,131.516
-318.176,921.344,128.588
-322.08,926.956,128.588
-345.992,907.68,141.52
-338.428,912.072,134.688
-325.74,926.468,120.292
-336.964,925.492,114.192
-334.036,919.148,125.172
-336.72,918.172,134.2
-333.548,918.416,132.492
-321.104,915.732,142.008
-306.952,920.856,140.788
-309.392,927.2,145.912
-333.792,920.856,151.28
-330.376,917.928,145.668
-323.788,929.64,133.468
-313.784,935.74,122.976
-305.488,940.864,113.46
-320.616,942.328,119.56
-349.164,914.756,116.876
-331.596,931.104,98.82
-318.42,938.424,80.032
-328.18,909.876,105.164
-323.788,891.82,121.268
-324.276,906.948,112.728
-356.728,902.8,106.14
-312.564,922.564,90.28
-292.8,927.688,95.892
-284.748,913.78,132.492
-269.62,934.276,125.172
-275.232,967.948,103.456
-280.6,944.524,123.708
-309.88,919.88,138.836
-299.388,940.62,121.268
-291.58,960.628,104.92
-306.22,945.744,111.508
-330.376,934.764,116.144
-351.36,907.924,132.492
-313.54,916.22,118.34
-243.756,942.572,109.312
-267.912,933.544,119.804
-325.252,938.18,114.436
-377.956,916.952,68.808
-502.884,858.88,75.152
-527.528,842.776,72.712
-370.636,861.564,-7.32
-136.152,906.704,-93.696
28.792,945.988,-115.412
147.864,920.612,-246.44
201.056,695.644,-259.86
384.544,397.232,23.424
562.42,-66.124,566.812
843.752,-275.72,704.916
1435.452,-208.864,310.124
1667.008,266.204,-21.472
1299.788,87.108,113.46
1390.312,-114.924,455.792
1470.344,-25.62,578.524
1300.032,153.232,606.828
1130.696,164.7,846.924
1148.264,-63.196,1142.652
1156.804,-244.732,1322.968
1118.74,-266.692,1331.02
991.128,-283.284,1305.644
984.784,-326.716,1198.04
899.14,-296.46,1030.656
703.94,-216.672,835.7
534.36,-123.952,616.588
492.392,-105.896,423.34
467.504,-98.82,246.196
312.808,-146.888,133.956
295.972,-185.684,-24.888
300.12,-144.448,-244.976
324.764,-82.228,-444.324
408.944,-105.408,-524.356
488.732,-117.12,-569.984
522.16,-136.152,-616.588
656.36,-135.908,-700.524
761.768,-115.656,-740.052
798.124,-90.036,-750.3
815.448,-118.096,-729.072
905.972,-207.4,-665.876
1029.436,-264.008,-611.952
1153.876,-325.252,-570.472
1286.368,-355.996,-610.976
1492.792,-387.228,-674.66
1705.072,-448.472,-608.048
1846.836,-545.828,-433.344
1993.48,-645.38,-320.372
2082.54,-675.148,-314.272
2047.404,-694.668,-295.484
1902.712,-761.036,-190.564
1676.524,-823.256,-40.016
1407.148,-822.768,61.0
1155.096,-812.032,133.712
875.472,-809.348,213.988
587.796,-744.444,253.272
393.572,-649.772,249.856
210.084,-625.616,329.4
159.576,-679.052,482.388
-23.424,-688.812,670.024
-101.26,-657.824,783.24
-89.304,-691.252,922.808
27.084,-741.272,1026.264
152.988,-714.432,1090.924
294.264,-709.552,1160.22
507.276,-763.964,1259.528
760.304,-799.832,1332.972
904.752,-839.604,1405.44
1020.164,-864.492,1450.092
1130.94,-921.832,1404.708
1107.028,-979.904,1334.68
1095.804,-1006.744,1211.704
1118.74,-1007.72,1043.1
1146.312,-963.556,830.088
1105.808,-929.884,691.496
1081.408,-963.312,587.064
1078.724,-1018.944,469.212
1130.696,-1049.2,359.656
1222.684,-1051.64,269.62
1325.164,-1078.48,254.248
1144.848,-1087.02,142.252
1178.276,-975.756,-17.08
1434.232,-814.716,-180.56
1461.072,-682.712,-295.484
1233.176,-588.528,-524.356
1082.628,-510.448,-727.852
1181.204,-382.592,-629.52
1144.604,-380.64,-496.784
1069.452,-327.204,-358.192
873.276,-382.348,-224.724
628.788,-359.168,-111.508
498.004,-189.588,-29.036
677.1,-12.444,167.628
1021.628,-53.924,40.504
1047.98,-161.04,-88.328
562.176,-174.46,-241.072
200.324,561.2,-300.608
208.62,1150.46,-351.116
198.128,961.604,-148.108
-181.78,768.112,-33.428
-144.936,1087.996,-50.752
-238.388,1138.504,-102.968
-213.256,1056.032,-39.528
-184.464,961.36,18.056
-211.548,1001.864,22.448
-266.936,1107.028,-37.332
-309.392,1015.772,-45.628
-224.48,947.208,-18.788
-188.368,956.48,-10.736
-169.092,1000.644,-31.72
-123.952,1030.168,-20.984
-120.78,984.052,5.612
-122.488,965.996,-2.196
-113.948,951.844,-1.708
-111.264,985.76,-14.396
-83.936,1005.28,-16.592
-84.18,949.648,2.196
-89.304,926.712,5.124
-92.964,991.616,-36.112
-125.172,1031.388,-68.32
-125.66,994.056,-51.24
-110.044,964.776,-30.012
-105.652,963.8,-30.988
-114.924,996.74,-56.12
-103.944,1018.944,-76.372
-89.304,994.788,-51.728
-92.232,980.392,-40.016
-91.256,996.984,-48.068
-111.02,996.252,-60.756
-101.26,979.66,-49.532
-82.228,973.072,-35.868
-81.496,961.604,-27.084
-97.844,975.024,-46.604
-100.04,967.46,-46.36
-84.18,987.224,-49.044
-81.496,981.612,-41.724
-90.036,973.56,-39.04
-82.472,973.072,-31.476
-79.788,964.776,-28.792
-65.392,973.56,-23.912
-71.004,987.224,-31.232
-79.056,983.564,-33.184
-88.328,982.588,-42.944
-103.944,1010.404,-60.268
-108.58,1001.864,-61.976
-116.388,995.764,-69.052
-111.996,1002.596,-58.072
-95.16,1003.572,-41.968
-88.816,1004.548,-33.916
-102.236,993.08,-40.504
-107.848,986.492,-49.288
-108.092,993.08,-52.948
-86.864,1008.208,-50.508
-80.52,984.784,-42.212
-88.572,993.812,-61.732
-115.656,997.716,-90.768
-139.08,1007.72,-114.924
-136.884,996.74,-115.168
-142.496,1000.4,-139.812
-169.824,1020.408,-175.924
-186.904,1044.076,-210.816
-191.54,1040.904,-228.872
-225.456,1054.812,-257.664
-260.592,1080.92,-283.772
-280.112,1120.692,-310.368
-290.604,1145.336,-327.448
-264.496,1199.016,-336.476
-239.12,1229.028,-328.424
-211.548,1242.448,-310.856
-188.856,1225.124,-282.552
-177.876,1207.312,-267.912
-141.764,1218.536,-248.88
-119.072,1148.508,-202.032
-80.52,1104.588,-174.704
-64.416,1098.244,-149.816
-44.652,1139.724,-133.956
-28.548,1124.596,-105.896
-36.112,1080.432,-69.296
-31.964,1031.144,-28.792
-20.008,1024.068,-4.148
-16.348,1029.192,-0.244
-16.592,1026.264,7.32
19.764,1025.044,42.212
34.16,1052.128,64.66
51.972,1020.652,109.8
97.112,1014.796,140.3
80.032,963.068,180.316
50.264,915.0,203.008
20.74,907.924,190.076
-23.424,879.376,136.152
-49.288,891.82,129.32
-82.228,922.564,119.804
-83.204,902.8,119.56
-63.928,895.968,112.484
-57.828,859.856,135.176
-71.248,833.016,151.036
-98.576,839.36,138.104
-117.364,820.084,148.108
-90.28,814.716,141.032
-71.736,834.48,176.168
-18.544,777.384,217.404
-66.124,730.536,296.948
-59.78,712.968,293.288
-59.78,760.06,275.72
-115.412,741.272,268.4
-191.54,684.176,285.968
-194.956,689.788,266.936
-235.948,717.36,243.756
-281.332,759.084,194.468
-326.716,766.16,159.576
-331.596,796.416,132.248
-305.732,847.168,120.048
-263.764,894.26,114.924
-224.236,948.428,108.58
-205.936,977.22,114.192
-173.24,1016.016,107.36
-158.112,1035.536,108.092
-160.064,1043.344,117.364
-158.112,1049.688,122.488
-176.9,1042.124,110.532
-203.252,1003.816,125.172
-199.592,981.124,134.444
-201.788,970.144,119.56
-195.932,984.784,93.208
-178.608,1007.232,65.636
-200.324,992.836,47.58
-212.036,974.292,29.768
-200.568,981.368,7.076
-198.128,991.616,-12.2
-202.276,960.628,3.172
-213.744,928.908,23.18
-220.82,914.756,30.744
-206.668,920.124,36.356
-200.324,933.788,41.236
-190.076,947.94,40.504
-194.712,941.84,55.632
-192.272,945.256,62.464
-183.488,958.432,61.976
-187.636,979.416,50.752
-194.224,980.392,54.656
-198.86,975.268,57.828
-205.448,975.024,54.168
-206.912,968.192,69.052
-185.684,972.828,80.276
-171.288,982.344,84.912
-180.316,988.932,75.396
-196.176,977.708,67.344
-202.52,969.9,62.464
-191.296,977.952,60.268
-196.42,962.336,68.564
-203.74,949.404,72.956
-204.472,954.772,72.468
-195.2,956.968,74.176
-205.204,951.844,74.908
-195.444,963.556,59.78
-205.936,963.312,61.732
-204.96,961.848,65.636
-195.688,970.388,66.368
-199.348,967.704,66.124
-184.952,988.688,50.752
-186.66,985.272,43.188
-193.492,975.268,51.24
-209.108,967.948,55.388
-212.768,977.464,46.848
-202.52,970.632,51.728
-212.28,977.464,54.412
-218.868,987.712,33.428
-250.344,969.412,38.552
-277.184,960.14,47.336
-254.98,936.716,64.904
-179.096,971.608,53.192
-52.46,1065.06,58.56
-37.576,1058.716,69.54
-66.856,1002.596,95.404
-74.176,925.98,147.132
1.22,958.432,135.908
77.348,1013.332,118.584
-6.832,985.272,123.464
-85.644,975.756,92.232
-90.036,987.468,33.184
-142.74,951.112,-48.556
-100.284,853.024,-108.58
-241.804,730.048,-101.748
-211.06,679.052,-260.592
-19.032,767.136,-386.252
468.48,657.824,311.588
895.968,56.12,575.352
816.912,-149.572,450.18
1102.88,-164.456,192.516
1593.808,-4.392,130.54
1457.656,-90.28,199.592
1315.892,-194.224,434.564
1289.296,-87.84,474.58
1225.368,54.9,581.94
1169.248,79.3,768.112
1084.336,-22.448,1005.036
1134.6,-67.344,1124.596
1196.332,-52.46,1117.032
1195.844,-69.784,1102.88
1237.812,-166.164,1100.684
1141.676,-265.228,1058.228
912.316,-332.328,976.732
728.34,-412.116,813.74
715.408,-413.58,532.652
639.768,-322.324,228.872
593.164,-245.708,-7.076
508.252,-217.648,-132.248
487.756,-227.652,-221.796
525.82,-263.276,-316.468
466.528,-254.98,-425.536
331.108,-225.456,-465.064
361.852,-209.352,-528.26
396.012,-204.96,-546.56
466.284,-211.548,-546.316
592.432,-227.652,-634.156
779.58,-227.164,-751.764
1007.476,-212.768,-839.36
1218.78,-225.7,-886.696
1463.268,-274.256,-931.592
1703.608,-317.2,-938.424
1809.748,-336.72,-848.632
1846.592,-428.464,-692.716
1861.476,-517.28,-613.416
1874.896,-579.256,-554.368
1757.288,-635.62,-454.816
1671.888,-694.424,-311.344
1569.408,-758.108,-169.824
1448.872,-774.456,-62.464
1296.128,-761.28,-11.712
1147.044,-727.364,-9.76
1002.108,-750.3,65.392
772.748,-744.688,147.62
610.244,-722.972,241.56
471.896,-727.12,345.504
369.66,-727.608,439.2
250.344,-755.424,580.476
130.296,-723.46,718.092
69.296,-705.404,844.24
128.832,-715.164,976.732
313.052,-712.236,1070.428
446.52,-687.348,1127.28
577.792,-633.912,1144.36
675.636,-659.532,1197.796
762.988,-704.428,1258.064
802.028,-738.344,1321.992
848.632,-752.496,1329.068
863.028,-816.18,1277.096
918.904,-871.08,1181.204
1092.876,-915.732,1029.436
1080.92,-886.94,869.616
950.38,-869.616,749.568
945.5,-897.432,660.996
1059.204,-921.588,493.612
1146.068,-976.0,369.66
1205.116,-1047.98,306.22
1345.904,-1076.284,187.392
1508.652,-1041.636,55.388
1348.1,-998.448,-72.468
1346.636,-868.884,-183.244
1348.588,-802.028,-218.624
1215.12,-829.356,-284.26
1235.128,-747.616,-314.028
1258.552,-696.376,-334.036
1068.476,-637.572,-342.82
898.896,-552.172,-390.888
761.28,-454.328,-408.456
727.12,-383.568,-395.524
618.54,-280.844,-372.344
551.196,-132.004,-371.124
482.876,-16.836,-275.476
470.92,21.96,-45.384
735.904,-275.476,-55.144
1061.4,-314.272,-155.184
853.512,18.056,-135.908
596.824,388.204,-306.22
564.128,1276.364,-446.032
594.628,1062.376,-463.112
445.544,1157.536,-284.748
345.504,1249.524,-388.936
165.676,981.612,-196.42
77.104,977.708,-95.648
184.464,1136.796,-54.412
186.66,1037.976,-15.616
64.172,1043.344,-27.084
81.496,1049.2,12.2
67.588,946.232,51.972
48.068,916.708,37.82
59.536,1009.916,37.576
0.244,1009.916,34.16
-49.044,995.764,0.976
-106.384,954.772,-12.2
-122.732,957.212,-27.084
-126.636,906.948,-15.616
-75.152,924.028,-18.3
-90.524,991.616,-57.096
-59.292,1026.996,-91.5
-27.572,1027.972,-72.956
-26.84,989.176,-43.188
-22.936,985.272,-37.088
-19.52,1008.452,-47.58
-7.32,992.348,-36.356
-12.688,1005.524,-50.264
17.324,1004.548,-40.504
10.248,982.832,-39.04
-12.932,984.54,-43.676
-30.744,974.78,-46.36
-20.984,967.216,-49.044
-7.564,973.804,-41.236
-12.2,980.148,-46.116
-12.2,964.044,-43.676
-15.616,967.948,-45.872
16.104,942.328,-21.96
20.984,968.68,-22.204
20.984,1003.084,-29.28
3.416,1003.816,-40.504
-15.128,979.66,-42.944
-31.232,980.148,-50.996
-15.128,1011.136,-61.0
6.832,1009.428,-48.8
13.664,992.348,-38.552
13.176,975.024,-24.644
10.004,981.368,-31.232
2.928,1011.868,-48.8
2.928,1016.748,-48.068
3.904,1008.208,-43.676
-12.688,998.448,-35.624
-28.06,998.936,-40.016
-35.868,986.004,-40.016
-35.136,1023.58,-59.048
-55.388,1065.06,-79.788
-62.708,1095.56,-95.16
-82.716,1084.58,-109.8
-97.6,1107.516,-147.62
-115.168,1172.176,-194.956
-140.3,1188.524,-235.216
-174.948,1188.768,-273.28
-192.516,1218.292,-321.592
-226.188,1233.42,-369.66
-235.216,1215.852,-395.28
-216.672,1188.28,-407.724
-196.42,1184.376,-416.02
-128.344,1172.42,-396.988
-96.136,1145.824,-353.312
-81.74,1128.744,-321.592
-31.476,1141.188,-281.82
-37.088,1130.696,-264.984
-35.136,1124.108,-227.896
-43.188,1101.416,-197.64
-30.744,1074.576,-155.184
-56.608,1069.696,-136.152
-56.364,1067.988,-119.072
-25.864,1076.528,-91.744
2.684,1126.792,-79.544
30.744,1152.412,-42.212
47.58,1056.276,22.936
31.964,965.264,66.856
-10.004,948.428,62.708
-34.404,932.324,66.124
-43.676,904.996,87.596
-51.24,920.856,83.204
-52.216,900.116,103.456
-52.46,889.624,114.192
-24.888,882.548,143.716
9.516,882.304,181.78
-24.644,870.592,202.276
-50.264,876.936,202.52
-105.408,843.508,195.932
-134.444,867.664,181.78
-141.764,885.232,186.416
-142.496,852.536,195.444
-148.352,824.72,194.468
-156.16,824.476,175.436
-148.84,789.34,177.388
-151.524,828.136,176.168
-216.428,705.16,268.156
-173.484,643.428,315.248
-144.448,637.572,310.856
-149.328,685.884,264.984
-142.252,717.116,226.432
-169.092,757.376,200.568
-250.832,768.356,237.656
-322.324,785.436,210.084
-308.904,823.744,160.796
-260.836,846.68,135.42
-226.676,833.504,139.812
-284.26,802.76,158.844
-310.368,793.732,179.828
-272.06,871.324,160.552
-248.392,941.108,142.008
-229.848,970.632,128.344
-253.76,972.096,112.728
-240.34,999.912,80.276
-241.072,1005.28,67.588
-229.36,1013.82,55.388
-231.556,993.812,58.804
-231.8,979.172,64.172
-251.564,978.44,58.316
-250.344,981.856,58.56
-237.168,974.78,70.028
-218.38,964.776,78.568
-215.452,953.308,96.38
-205.936,940.62,117.12
-192.516,960.872,112.972
-204.716,964.288,111.508
-204.716,956.236,116.144
-206.18,949.892,117.12
-208.62,961.848,105.652
-205.204,951.844,110.288
-207.156,964.044,104.432
-215.208,968.192,105.164
-218.868,963.556,110.532
-199.836,965.752,112.972
-188.124,972.34,111.02
-188.124,967.216,108.58
-209.596,945.744,117.852
-211.06,951.356,113.704
-210.328,960.384,102.48
-220.088,954.528,105.652
-208.376,953.064,110.044
-206.18,972.34,96.136
-206.424,964.776,107.604
-212.036,952.576,108.58
-217.892,961.116,99.064
-199.104,971.12,94.184
-240.34,976.0,94.184
-193.98,1057.74,73.932
-273.036,1090.192,72.468
-353.8,1072.868,-18.544
-423.828,938.424,-54.656
-677.588,643.672,-210.084
-631.96,388.204,-505.568
18.3,434.808,-320.128
520.696,407.236,1024.556
389.18,-229.604,1178.276
554.368,-427.488,694.18
1532.076,-366.976,-47.824
1734.108,-105.896,-121.268
1380.308,-251.076,393.816
1567.456,-374.54,636.352
1617.72,-237.656,660.508
1585.268,-85.4,685.884
1426.18,-46.604,871.812
1381.528,-166.896,1090.192
1347.856,-231.068,1178.764
1263.676,-293.288,1226.832
1151.436,-355.508,1254.892
1058.472,-410.408,1221.22
902.068,-397.964,1102.636
698.328,-350.14,950.624
477.02,-317.688,805.444
276.696,-322.324,660.02
130.052,-317.444,475.556
93.94,-335.256,304.268
147.62,-307.928,74.42
167.872,-230.824,-157.624
184.708,-142.008,-378.444
298.9,-137.86,-558.272
426.024,-206.18,-640.744
473.848,-231.068,-624.396
484.34,-180.56,-683.2
607.56,-122.244,-801.296
755.668,-87.108,-895.48
848.632,-140.3,-852.292
896.456,-223.504,-775.188
970.144,-277.916,-678.32
1055.544,-330.864,-609.512
1214.144,-396.256,-570.472
1418.616,-425.78,-598.532
1747.772,-462.38,-669.048
1942.484,-514.84,-652.7
2047.648,-570.96,-643.916
2073.756,-623.42,-582.184
2003.728,-647.332,-504.104
1859.036,-677.832,-360.876
1720.444,-731.268,-251.076
1576.24,-766.892,-173.728
1467.66,-753.472,-141.52
1289.54,-760.792,-51.728
1018.944,-732.0,22.692
727.364,-673.196,81.496
494.588,-629.032,159.332
356.972,-619.272,287.432
359.9,-677.832,409.92
325.252,-691.496,479.216
269.376,-659.288,523.624
257.176,-610.244,577.304
275.72,-581.696,645.868
381.128,-623.664,727.608
430.904,-645.624,770.308
437.492,-629.52,803.98
468.724,-570.716,812.276
520.94,-569.008,879.132
538.02,-590.724,968.436
604.388,-639.524,1028.704
748.836,-721.996,1020.164
870.836,-746.152,1016.504
916.708,-752.252,1000.156
881.328,-788.608,981.368
835.944,-837.652,952.82
848.388,-885.476,927.2
909.388,-845.948,738.1
942.084,-807.396,556.32
1039.684,-836.432,450.18
1268.312,-864.736,292.556
1372.744,-910.852,193.492
1352.248,-956.48,186.172
1288.808,-1036.268,237.9
1250.5,-1083.604,264.984
1220.0,-1115.812,234.484
1086.532,-1063.108,104.92
1302.472,-995.276,-9.028
1428.376,-933.544,-78.324
1249.768,-874.984,-143.96
1098.0,-760.548,-212.524
1196.576,-688.812,-208.62
1170.956,-609.024,-330.62
1252.452,-478.728,-385.764
1091.168,-446.52,-365.024
920.856,-373.564,-337.696
843.752,-305.244,-312.076
715.652,-290.604,-376.492
586.332,-438.956,-402.112
571.692,-376.98,-234.728
492.148,-161.284,-346.236
383.568,306.708,-490.684
185.928,734.196,-796.66
62.952,1159.976,-384.3
242.78,853.268,-188.124
73.444,738.1,-114.192
-31.476,635.62,-64.904
-19.032,886.696,-36.844
-3.172,1009.428,-30.012
47.824,1004.06,-34.404
40.992,1026.508,-32.94
81.008,1077.26,-13.176
82.716,1080.676,10.736
39.284,1082.628,-0.244
-12.444,1040.172,-22.692
-20.984,1016.26,-35.624
-15.128,1014.796,-46.848
2.928,1036.756,-61.488
22.204,1027.728,-58.316
39.284,1021.872,-45.14
21.716,1021.628,-62.22
-10.248,1012.844,-69.296
38.308,1005.524,-58.804
45.872,991.372,-40.504
40.992,955.504,-42.212
59.536,966.24,-47.336
54.412,961.604,-52.704
65.636,980.88,-57.828
59.048,974.78,-67.832
47.58,967.216,-82.716
40.504,966.972,-76.128
58.804,972.096,-65.88
75.152,970.632,-55.388
72.224,965.264,-57.584
56.12,998.448,-62.22
46.36,988.2,-60.024
65.88,992.592,-46.116
56.852,980.636,-33.672
66.368,987.468,-48.068
71.248,1009.672,-55.876
49.776,1005.524,-56.12
70.516,1008.208,-52.46
65.636,996.496,-45.14
63.44,984.784,-51.972
78.324,1000.156,-54.412
80.276,1001.132,-44.896
81.008,1013.576,-41.236
79.544,1004.548,-48.312
77.104,986.736,-46.604
90.036,971.608,-40.992
89.304,1005.036,-49.532
79.3,1010.404,-56.12
62.708,983.564,-51.24
66.612,986.736,-50.752
91.988,990.396,-43.676
85.644,989.664,-38.796
84.912,990.152,-41.968
73.688,994.3,-50.508
56.364,1005.524,-64.66
62.952,1032.608,-103.7
57.096,1073.6,-137.372
-5.124,1082.14,-176.9
-43.676,1114.592,-203.252
-60.024,1105.564,-219.112
-53.192,1126.304,-257.42
-44.164,1165.588,-280.6
-46.36,1158.756,-285.968
-47.824,1168.028,-292.8
-77.348,1198.284,-300.364
-81.496,1196.576,-305.0
-56.12,1200.48,-286.212
-28.06,1204.384,-274.988
-39.528,1177.3,-262.788
-61.0,1130.208,-230.824
-63.684,1101.416,-204.716
-36.356,1078.48,-164.944
-7.32,1055.788,-121.756
19.276,1052.616,-79.788
41.968,1039.44,-43.188
43.92,1105.808,-85.888
27.328,1139.48,-93.696
-0.244,1180.716,-91.744
67.1,1111.176,-61.0
94.672,1019.432,-3.904
89.548,983.32,18.788
78.324,970.876,29.036
77.592,984.052,25.864
71.004,972.584,16.348
66.612,972.828,10.736
61.244,947.696,28.792
66.368,901.58,60.268
49.532,900.116,88.572
0.976,891.82,113.216
-43.188,861.564,157.624
-65.148,872.056,161.528
-77.836,932.08,143.96
-80.032,962.336,111.02
-57.096,975.756,117.12
-57.096,983.32,153.964
-70.028,980.148,194.468
-80.52,941.84,219.6
-65.88,903.288,245.952
-95.648,901.58,227.164
-134.932,938.424,175.436
-115.168,901.092,153.476
-166.652,814.228,127.612
-213.988,736.148,126.88
-235.948,689.3,128.832
-220.332,689.056,100.04
-217.404,671.976,101.016
-211.06,668.56,117.12
-137.372,700.524,130.052
-172.508,681.98,156.404
-162.992,736.88,184.952
-203.252,781.044,196.176
-214.964,764.208,205.204
-207.4,812.276,156.892
-198.86,965.02,91.256
-170.068,1135.088,10.736
-188.856,1083.848,33.428
-236.68,931.104,122.488
-161.528,896.456,142.984
-159.82,928.664,169.336
-118.34,999.912,179.34
-114.924,1021.384,179.828
-161.772,990.396,160.308
-217.892,957.944,150.304
-243.756,972.34,127.368
-236.924,1003.084,97.356
-188.368,1020.652,60.024
-166.408,990.884,76.616
-167.384,931.348,95.892
-196.664,931.348,104.188
-198.616,965.996,78.568
-219.844,969.9,91.988
-185.684,927.688,109.8
-169.824,955.016,117.608
-164.456,978.44,100.772
-162.992,1006.744,82.96
-161.04,990.64,79.3
-153.476,991.616,74.908
-154.94,1002.352,74.908
-173.972,980.88,74.664
-188.368,979.416,62.708
-160.796,993.812,46.848
-156.892,980.392,80.764
-182.512,939.156,111.02
-178.608,939.888,111.752
-169.824,975.268,112.24
-169.336,974.536,107.604
-166.896,976.0,108.58
-175.192,986.004,103.456
-144.204,1017.236,93.94
-139.324,1022.848,103.944
-147.864,1023.58,118.828
-124.196,1034.316,121.268
-243.268,935.008,95.892
-315.736,961.604,83.448
-302.072,1054.812,36.356
-411.872,969.656,-15.86
-468.48,880.108,24.888
-264.984,860.832,-74.42
95.648,664.168,-230.092
700.28,678.564,-355.996
929.396,414.312,-203.74
625.128,139.568,646.356
994.3,-166.652,1153.388
1461.56,-108.824,572.912
1174.616,67.588,309.148
1162.904,-111.996,724.436
1101.904,-180.804,952.332
1003.816,-27.084,990.152
1044.808,168.604,844.972
989.908,123.464,992.836
956.236,-44.408,1111.42
981.612,-131.028,1082.628
969.656,-81.984,979.172
887.916,-111.752,903.532
786.656,-169.092,836.432
674.904,-180.56,698.328
586.576,-169.58,539.728
504.592,-129.076,399.916
384.544,-95.892,288.896
345.26,-111.752,179.096
435.54,-172.996,50.752
592.92,-139.08,-164.944
670.756,-70.272,-361.608
648.796,-60.024,-459.696
691.252,-41.968,-528.26
671.488,12.688,-597.068
778.604,18.544,-679.052
967.948,0.488,-776.652
1128.256,-30.012,-829.112
1221.464,-101.26,-851.316
1278.072,-168.36,-832.04
1286.368,-230.336,-735.416
1266.116,-264.252,-651.968
1275.144,-277.672,-632.692
1254.892,-292.556,-563.396
1257.82,-313.54,-484.096
1299.788,-366.244,-391.132
1349.32,-406.016,-293.776
1395.436,-457.5,-209.108
1494.5,-519.964,-143.472
1545.74,-583.648,-95.404
1550.864,-620.736,-52.704
1474.98,-616.832,1.464
1397.876,-575.596,6.588
1219.756,-568.276,74.42
1006.988,-576.816,196.176
743.956,-586.576,345.748
498.248,-545.34,428.464
312.076,-480.68,502.152
169.336,-424.56,618.296
47.58,-411.384,792.756
15.616,-444.812,952.576
124.684,-510.448,1051.152
294.752,-533.14,1076.528
414.068,-531.676,1143.628
652.7,-499.956,1230.004
715.896,-524.112,1264.896
938.18,-604.876,1288.076
1056.276,-603.656,1273.436
1119.228,-547.292,1155.828
1323.212,-479.948,1004.304
1371.524,-541.436,895.236
1389.824,-617.32,792.512
1378.112,-704.916,682.956
1369.816,-771.04,576.328
1391.044,-776.896,419.68
1398.852,-768.844,291.824
1432.28,-757.864,163.724
1510.116,-696.132,10.248
1544.032,-647.332,-88.572
1513.044,-635.132,-97.356
1420.812,-578.524,-169.092
1416.176,-485.316,-286.212
1334.192,-413.824,-363.56
1173.884,-408.7,-312.32
1002.84,-402.844,-254.736
859.856,-359.656,-245.708
727.608,-310.368,-286.7
615.612,-196.908,-370.88
642.696,-83.692,-418.948
645.624,-42.944,-334.28
746.396,-45.384,-208.864
864.736,-62.22,-56.12
787.632,-53.924,28.06
702.964,6.1,74.664
873.032,104.432,262.788
868.64,183.976,394.304
853.024,216.184,261.812
995.276,101.504,-27.328
915.976,670.512,-81.252
839.604,596.58,-96.136
894.992,720.776,-33.916
908.168,1061.4,-33.916
661.972,925.736,-100.04
292.8,816.912,33.428
251.32,921.832,-21.96
210.572,1123.864,0.732
81.252,1042.856,83.204
-95.16,935.496,66.856
-84.424,958.432,106.872
-71.736,876.204,174.948
-96.624,934.52,143.96
-147.62,1031.632,132.736
-138.836,985.516,142.008
-135.908,939.4,148.596
-168.604,955.992,111.752
-186.172,997.96,85.156
-156.16,984.784,57.34
-136.396,945.988,58.316
-137.616,946.232,55.144
-153.476,959.896,56.608
-122.244,963.8,68.32
-115.168,964.288,58.316
-114.192,1000.644,54.412
-97.356,976.732,67.1
-124.928,986.736,66.856
-121.024,969.656,60.024
-124.928,989.42,53.924
-118.584,1022.848,37.332
-141.032,1010.892,34.404
-142.008,980.88,44.408
-138.836,1002.352,42.944
-114.924,965.02,57.584
-131.272,971.12,60.512
-129.564,998.448,53.924
-102.48,986.248,64.172
-90.524,983.076,62.708
-126.636,1006.5,63.196
-111.996,962.824,65.392
-95.16,962.58,82.472
-104.188,957.212,73.932
-110.776,1001.864,49.288
-144.448,963.068,49.044
-130.784,984.052,52.948
-114.924,985.516,57.34
-83.448,978.684,70.272
-105.164,965.996,76.372
-123.952,944.28,70.272
-129.076,943.06,67.588
-73.444,943.792,81.252
-49.776,944.28,92.476
-53.924,971.364,82.472
-62.22,967.948,80.276
-93.208,952.332,67.832
-145.912,976.732,37.088
-176.656,1012.6,9.028
-192.272,1036.024,-21.96
-176.412,1035.536,-22.448
-143.472,1037.732,-10.492
-150.792,1045.296,-28.792
-176.168,1060.668,-62.22
-222.284,1050.176,-96.624
-236.192,1069.94,-118.584
-237.9,1117.52,-141.032
-249.124,1125.816,-160.552
-232.288,1098.732,-176.9
-216.184,1083.116,-204.228
-210.328,1100.44,-217.648
-207.156,1106.296,-214.232
-181.048,1108.248,-207.156
-166.164,1084.58,-204.472
-127.368,1072.136,-197.64
-130.54,1062.864,-193.98
-182.268,1055.788,-162.992
-160.308,1103.612,-129.32
-95.404,1122.644,-99.552
-39.284,1114.104,-95.892
-14.152,1134.112,-109.556
-27.328,1117.764,-106.872
-53.924,1087.996,-64.904
19.764,1080.676,-5.612
-48.068,1133.624,-55.388
40.992,1126.548,-19.032
69.54,1124.108,-6.1
31.964,1111.664,15.86
-31.232,1097.268,17.08
-15.372,1063.596,16.836
-6.588,1028.216,37.332
-31.232,983.076,45.14
15.616,950.38,98.576
-3.416,946.232,111.02
15.372,950.624,132.492
29.036,888.892,163.48
32.208,847.9,193.736
14.396,827.16,208.864
-39.528,803.248,217.404
-86.864,816.668,221.552
-112.484,781.776,241.804
-60.024,763.232,257.176
-18.3,742.736,277.428
-26.84,746.152,306.708
-33.672,779.824,345.992
-42.456,770.308,362.096
-55.388,742.98,392.352
-60.268,727.852,395.524
-92.72,756.4,364.78
-141.764,785.68,308.172
-197.396,826.672,279.868
-190.076,853.756,244.244
-208.132,871.568,205.204
-240.584,891.82,171.532
-255.224,873.032,161.772
-246.44,858.392,163.968
-241.56,854.244,147.376
-223.748,885.232,120.536
-206.912,885.72,132.736
-193.248,936.228,126.88
-228.628,1010.892,78.812
-221.796,1087.02,4.88
-267.424,1021.14,13.42
-327.936,948.916,55.144
-299.144,967.948,45.14
-306.22,962.336,42.212
-305.244,950.624,52.704
-290.848,948.428,51.484
-245.22,942.816,60.512
-211.304,956.236,72.468
-200.324,980.148,62.464
-208.376,955.504,73.688
-218.868,932.568,84.18
-215.94,934.52,86.62
-219.844,945.988,73.932
-225.944,972.828,61.732
-242.78,963.312,58.316
-245.708,971.12,53.68
-231.8,973.56,53.924
-217.648,956.236,69.784
-213.988,938.668,83.204
-219.112,915.488,94.184
-230.336,911.828,91.256
-228.872,949.404,64.416
-208.864,982.588,43.92
-206.18,993.324,45.384
-211.304,1003.816,35.624
-230.092,999.424,25.376
-232.288,1017.48,20.74
-188.368,1047.736,15.616
-154.696,1052.128,32.452
-114.924,1064.816,54.168
-72.224,1123.62,4.636
-65.636,1291.736,-20.984
-201.3,1025.776,-81.252
85.644,828.136,-45.628
-6.588,697.108,-117.608
-384.788,556.564,-57.096
-102.48,608.78,436.272
753.228,-35.38,613.416
769.088,-210.816,939.888
929.152,-321.104,796.172
1112.152,-50.264,354.532
1409.344,86.864,147.864
1403.244,-134.932,493.856
1371.036,-185.44,762.012
1392.508,-88.328,745.42
1401.78,84.424,702.72
1284.904,124.684,824.232
1191.208,-28.304,1050.176
1118.984,-163.968,1171.932
1081.164,-231.8,1161.928
943.06,-211.304,1063.352
844.972,-178.852,934.52
637.084,-191.784,849.364
508.008,-235.948,765.428
428.708,-225.7,573.4
368.928,-170.068,347.7
293.532,-129.076,167.628
184.22,-124.44,58.804
175.68,-163.236,-15.86
253.272,-155.916,-148.84
294.996,-143.716,-309.88
392.108,-186.904,-440.42
493.124,-239.12,-467.26
626.104,-269.376,-527.04
694.912,-249.368,-612.684
755.912,-168.116,-692.716
791.048,-55.876,-754.936
916.708,-20.74,-798.124
1124.596,-69.784,-802.028
1275.876,-180.804,-724.68
1489.132,-324.276,-631.96
1741.184,-501.664,-510.692
2023.736,-617.32,-447.74
2165.256,-731.756,-358.436
2210.152,-776.164,-262.544
2076.684,-783.484,-137.128
1851.228,-735.904,-91.988
1624.064,-688.08,-82.96
1400.56,-701.5,2.928
1207.312,-720.288,105.408
1015.528,-744.2,224.48
820.328,-736.636,294.996
610.488,-724.436,325.74
456.036,-681.98,306.708
326.96,-662.704,322.812
200.568,-618.296,372.832
-38.796,-517.28,470.676
-221.064,-401.624,592.92
-233.752,-379.908,737.612
-185.44,-437.248,867.908
-173.484,-518.5,983.32
-57.34,-651.724,1113.86
237.412,-726.876,1171.2
454.572,-779.58,1249.524
565.104,-819.352,1399.34
575.108,-855.952,1536.956
684.42,-913.048,1599.176
845.46,-960.14,1522.56
976.0,-985.272,1390.8
1153.632,-999.912,1241.716
1321.26,-1033.096,1089.46
1411.296,-1028.704,948.184
1561.6,-1094.584,831.796
1585.024,-1198.528,728.584
1569.408,-1253.184,612.684
1594.54,-1272.46,434.32
1701.412,-1198.284,200.812
1561.356,-1024.068,-23.912
1395.924,-932.568,-92.72
1272.948,-898.164,-103.7
1100.196,-839.604,-161.04
1013.332,-760.06,-305.488
902.068,-582.672,-463.844
724.192,-424.316,-507.276
538.996,-327.936,-479.216
498.004,-223.992,-506.3
565.836,-168.116,-539.728
594.872,-150.792,-424.56
540.704,-211.06,-167.628
564.616,-241.56,24.4
531.432,-244.732,87.352
722.728,-143.472,72.468
862.296,-90.036,46.116
957.7,-26.108,75.884
1004.06,-35.624,84.912
1076.772,-41.236,102.236
1203.164,-21.228,122.0
1193.404,-31.476,138.836
1133.624,-85.156,227.164
1078.48,-96.868,323.056
978.44,-206.18,355.752
1044.808,11.956,336.72
1019.432,55.144,399.916
950.136,63.196,342.088
794.952,171.776,120.78
711.748,305.244,-276.452
846.436,851.56,-729.316
874.74,1312.72,-756.888
804.224,1159.244,-492.148
464.332,651.48,-223.26
130.784,862.784,-157.38
36.6,883.28,-18.788
155.672,700.768,230.092
146.888,795.928,246.684
32.94,935.74,231.8
-25.132,985.272,165.676
-4.88,911.096,175.68
-49.776,858.636,187.88
-63.196,872.544,168.604
-33.184,952.82,124.196
-49.776,1026.508,71.736
-111.752,1034.072,61.0
-107.604,983.808,65.636
-79.544,920.612,85.644
-63.44,992.348,78.812
-3.66,1041.636,75.152
4.636,986.736,96.38
-0.976,982.344,86.62
1.952,985.76,87.596
-20.008,1019.432,73.932
-56.608,1037.488,55.144
-65.636,1002.596,54.656
-72.712,1007.964,57.828
-76.616,1026.264,48.556
-57.828,1015.284,49.288
-35.624,979.66,65.636
-26.108,954.528,94.184
-19.52,971.852,77.836
11.956,982.588,87.84
20.496,978.44,100.772
-6.344,991.128,84.912
-34.892,999.424,62.708
-46.604,998.936,59.048
-39.772,974.292,74.908
-41.48,967.948,75.884
-39.04,977.708,67.588
-40.748,967.216,64.416
-31.72,990.152,66.612
-10.492,984.54,68.808
-2.44,992.348,75.152
-3.172,985.272,74.176
-8.784,979.904,76.86
-37.82,963.8,78.568
-41.236,969.168,65.88
-8.54,996.252,58.316
11.468,1000.888,64.172
-7.564,1003.084,65.392
-16.592,1020.164,59.048
-21.96,1014.796,52.704
-3.904,985.272,53.436
-10.492,965.264,70.516
-23.424,996.74,53.68
-14.64,1016.992,40.504
-22.936,1020.164,37.332
-42.456,1007.232,28.304
-70.272,1016.26,23.912
-61.488,1057.74,-14.152
-134.444,1123.864,-77.836
-88.084,1095.072,-81.008
-80.764,1027.972,-73.688
-141.032,1040.172,-114.924
-121.024,1063.108,-146.644
-110.044,1049.444,-142.008
-123.708,1064.084,-144.204
-173.24,1130.696,-179.096
-214.72,1210.24,-219.6
-213.5,1230.736,-223.748
-170.8,1240.984,-234.484
-58.56,1219.268,-210.816
-7.564,1150.704,-127.368
33.184,1132.404,-80.032
-83.448,1048.224,-128.344
21.228,1096.048,-79.3
2.44,1042.124,-102.236
-60.268,1128.988,-132.98
-58.56,1098.244,-214.964
13.908,1170.468,-182.024
49.288,1184.132,-208.132
127.124,1179.008,-180.316
175.68,1125.328,-126.88
136.396,1051.396,-104.432
68.808,948.672,6.1
28.548,968.924,-1.952
39.04,1001.132,-8.54
80.52,1048.224,-47.824
66.368,1024.312,29.768
16.592,1039.684,38.552
45.872,1011.868,34.16
111.508,1027.972,79.788
77.104,961.604,168.116
-3.66,934.52,220.332
45.384,991.86,233.996
17.812,947.452,234.728
-43.92,866.444,256.2
-127.856,796.172,275.964
-154.208,733.952,314.028
-116.632,727.608,308.172
-100.04,767.38,285.236
-124.196,790.56,263.764
-195.688,730.048,274.256
-192.516,669.292,312.808
-192.76,617.808,365.756
-195.444,582.916,410.896
-205.448,604.388,416.264
-201.544,675.636,357.46
-193.248,757.864,296.216
-219.356,813.74,255.468
-271.572,818.132,232.044
-293.532,829.844,211.792
-306.952,871.568,152.5
-312.808,927.444,81.008
-301.096,961.116,63.196
-307.684,936.472,67.588
-328.18,916.952,83.936
-319.884,944.768,68.564
-293.776,960.14,62.464
-265.96,976.244,70.516
-256.688,942.084,89.304
-242.292,935.008,89.548
-250.344,949.648,80.032
-236.436,959.408,68.32
-214.72,959.408,42.944
-239.608,969.168,36.112
-225.7,948.916,36.6
-231.312,945.988,42.944
-261.568,961.848,23.18
-247.416,969.9,15.86
-247.172,975.756,23.668
-256.932,968.192,24.888
-243.268,976.244,28.548
-244.976,993.08,30.256
-233.752,984.54,55.876
-235.216,975.024,80.276
-241.804,978.684,79.056
-238.144,974.78,71.98
-239.12,991.128,68.564
-272.548,984.052,53.68
-282.552,970.144,44.164
-175.68,1029.436,30.012
-176.656,1070.672,12.932
-352.824,997.228,-20.252
-386.008,1013.332,-18.788
-277.672,1089.216,-25.376
-459.696,1022.848,-48.556
-444.324,877.18,-226.188
-639.524,720.044,-264.496
-459.94,19.52,-289.872
400.404,-61.976,625.372
498.248,-425.048,1038.22
753.228,-706.868,980.392
1029.924,-444.568,242.536
1525.976,-5.856,-62.464
1562.576,-154.94,351.848
1562.332,-341.112,849.364
1650.66,-301.584,979.66
1695.556,-194.224,943.792
1447.896,-174.704,1130.696
1149.484,-214.232,1289.296
996.008,-238.144,1315.404
888.648,-263.764,1282.22
787.632,-253.028,1175.348
685.396,-238.632,1025.776
565.836,-282.552,895.724
501.908,-298.9,715.652
483.852,-298.656,474.092
442.616,-297.68,289.384
471.896,-262.788,86.376
501.42,-200.08,-113.948
526.308,-149.084,-293.532
486.78,-133.468,-343.552
468.968,-173.728,-322.08
507.764,-215.94,-376.98
516.304,-200.568,-456.28
582.672,-218.38,-483.852
656.848,-213.5,-537.532
749.08,-204.716,-599.508
932.568,-207.888,-686.372
1072.38,-239.608,-732.0
1155.34,-250.1,-740.296
1278.072,-270.596,-732.0
1453.996,-308.172,-709.552
1652.368,-362.096,-725.9
1876.36,-412.848,-782.752
1981.768,-512.4,-709.308
1935.896,-669.536,-521.672
1872.7,-808.86,-346.724
1758.508,-876.204,-235.948
1603.08,-916.22,-110.044
1423.252,-944.524,1.708
1166.564,-934.52,118.584
934.032,-878.156,189.832
769.332,-816.668,232.776
581.94,-800.076,362.584
385.764,-761.768,471.164
288.164,-709.796,490.196
203.74,-684.664,523.136
46.36,-708.576,689.788
-127.856,-687.592,894.748
-171.044,-653.676,1052.372
-116.388,-686.86,1212.924
92.72,-732.488,1325.164
306.22,-768.6,1409.1
513.864,-734.684,1439.356
681.736,-747.86,1459.364
754.936,-824.476,1489.132
831.796,-896.944,1461.072
934.032,-919.392,1357.128
1124.352,-892.552,1155.096
1183.156,-849.852,955.748
1090.436,-881.084,896.7
1086.776,-949.404,813.252
1265.628,-1002.352,682.224
1260.504,-955.748,540.948
1197.064,-901.58,431.88
1183.888,-907.436,395.524
1333.216,-917.44,283.284
1580.144,-905.972,81.252
1691.164,-895.236,-38.308
1626.748,-925.248,-41.48
1476.932,-872.788,-141.032
1319.796,-757.376,-294.752
1124.596,-672.22,-346.724
921.588,-584.136,-317.444
753.228,-477.752,-355.02
656.848,-351.36,-407.968
643.428,-227.164,-480.192
660.02,-164.456,-466.284
706.624,-139.08,-239.364
655.14,-113.216,22.448
435.784,-63.684,156.16
509.716,71.736,189.588
670.024,-198.616,10.98
926.712,65.392,-84.668
857.904,561.2,-579.256
673.44,812.764,-427.976
334.768,1050.664,-290.116
208.864,1331.264,-189.588
206.18,1051.152,-55.144
214.72,1048.224,30.988
197.396,1083.848,63.196
73.2,961.116,113.948
-24.4,863.028,109.068
-60.024,907.436,98.088
-81.74,939.888,73.444
-92.964,938.424,46.36
-63.196,891.82,62.22
-56.364,963.8,36.6
-47.824,1011.38,4.392
-34.16,986.736,10.004
4.392,945.5,35.868
3.416,988.688,30.256
-16.836,998.448,12.688
-2.44,967.948,14.64
3.66,960.14,22.936
-7.076,990.396,3.904
-28.06,1022.36,-18.056
-19.276,1011.38,-22.692
-31.232,991.616,-22.448
-38.796,990.64,-24.644
-41.48,1007.964,-37.088
-40.016,1068.232,-72.712
-31.476,1031.876,-46.36
-6.1,1000.4,-20.252
-6.588,999.668,-19.032
-15.86,989.664,-9.028
2.928,969.9,6.588
11.956,983.808,-5.612
11.956,1022.604,-32.696
-5.856,1004.792,-33.428
-0.488,981.612,-23.668
0.244,981.368,-16.104
-0.732,985.028,-11.468
0.0,987.712,-11.468
13.664,977.22,-4.88
6.1,976.488,-4.392
4.392,978.684,-12.932
24.4,990.64,-8.296
34.404,989.664,0.976
33.184,988.2,7.808
19.764,996.008,-0.732
-14.152,987.468,-11.468
-23.18,984.784,-15.372
-26.108,984.052,-6.832
10.248,1007.476,-1.952
37.576,1007.964,3.904
48.068,1045.052,-13.908
27.084,1030.168,-12.932
5.124,1001.376,-11.224
-28.06,988.932,-29.28
-33.184,1036.268,-66.856
-41.48,1024.8,-84.668
-39.284,1018.7,-105.408
-54.9,1026.264,-154.452
-75.152,1085.556,-204.716
-95.404,1076.528,-227.164
-114.192,1087.02,-255.224
-140.544,1133.136,-283.04
-144.448,1156.072,-305.0
-147.864,1169.492,-316.224
-142.496,1173.152,-319.64
-174.948,1143.14,-302.072
-169.092,1151.68,-298.168
-130.54,1161.928,-281.332
-48.312,1153.632,-242.536
14.396,1118.496,-202.276
53.924,1079.456,-150.548
37.82,1039.44,-113.216
0.0,1052.86,-123.22
4.88,1082.872,-116.876
18.3,1118.252,-112.484
28.548,1141.92,-112.972
40.504,1129.964,-88.572
60.512,1094.34,-41.724
70.028,1054.08,-4.392
78.812,1046.516,0.732
91.256,1037.976,-17.324
107.848,1078.968,-40.504
116.632,1046.272,-14.64
120.536,977.708,38.796
125.66,924.272,91.988
112.728,926.224,108.824
107.36,913.048,135.42
110.776,857.66,181.536
116.632,803.248,239.852
100.772,763.72,271.084
92.232,753.472,284.26
121.268,811.056,268.888
110.532,812.764,285.48
55.388,805.444,283.772
9.516,864.98,237.168
-15.372,932.08,205.936
-16.836,923.54,227.896
-47.58,912.804,231.8
-83.448,927.932,226.188
-92.476,955.504,233.264
-122.488,971.12,231.312
-116.632,983.808,224.48
-100.284,957.456,229.848
-96.624,899.872,271.816
-107.116,901.824,265.228
-96.136,930.86,239.364
-83.692,911.096,216.672
-140.056,840.092,181.292
-154.452,807.152,155.672
-155.428,786.656,118.584
-184.952,817.156,79.788
-216.916,796.904,76.128
-205.204,783.728,93.452
-195.2,799.832,108.092
-202.032,812.032,111.264
-192.516,889.624,87.596
-160.552,943.06,83.448
-123.22,962.336,92.964
-113.216,995.276,82.96
-116.388,1042.856,63.684
-146.156,1044.076,45.872
-149.816,1051.152,39.284
-142.984,1077.26,35.38
-131.272,1061.644,45.14
-127.612,1032.852,64.904
-127.368,1029.192,68.808
-129.32,1016.748,73.2
-135.908,1000.644,70.028
-115.168,990.884,78.812
-113.46,983.808,81.74
-122.976,967.46,95.16
-128.344,949.404,107.848
-133.468,958.676,104.92
-144.936,939.156,104.188
-130.784,938.424,103.944
-119.072,943.304,103.944
-120.536,942.572,102.236
-131.516,949.16,98.576
-125.66,981.612,85.156
-116.876,1004.792,74.176
-113.704,1004.304,76.372
-121.268,978.196,88.816
-137.128,966.728,96.868
-152.744,964.288,92.476
-133.468,977.708,87.352
-121.512,976.732,93.94
-124.196,962.824,100.528
-138.836,965.264,97.844
-131.76,970.388,100.04
-129.076,982.344,91.988
-129.076,988.444,89.548
-129.076,1020.164,88.328
-167.628,1034.56,82.716
-246.196,1032.852,70.272
-287.676,1106.296,54.412
-221.064,1119.472,-11.468
-193.248,984.052,-155.916
-217.892,796.172,-77.592
-146.156,556.808,-32.208
-153.476,241.56,34.16
293.776,229.116,247.172
826.672,-281.332,754.204
976.732,-232.776,889.624
990.396,6.344,294.508
1317.844,68.808,137.616
1570.872,-185.44,376.248
1756.068,-510.936,904.752
1551.84,-489.952,1135.088
1301.74,-307.928,1184.132
1121.424,-214.72,1274.656
987.712,-303.048,1416.42
881.084,-399.184,1477.176
802.516,-404.796,1377.624
687.348,-331.84,1166.564
570.228,-269.62,975.024
438.224,-246.44,851.804
350.384,-255.712,726.144
357.704,-237.412,522.16
435.54,-188.612,311.588
420.656,-146.4,141.276
376.492,-152.744,61.976
486.292,-203.496,-15.86
579.988,-234.972,-115.9
634.156,-239.608,-201.788
695.888,-216.916,-280.112
762.256,-150.548,-379.664
724.192,-107.604,-400.404
733.464,-111.996,-421.388
751.764,-103.456,-446.276
799.588,-93.208,-481.9
839.604,-134.932,-478.728
922.564,-160.064,-488.244
1008.452,-201.3,-487.756
1176.568,-295.24,-485.316
1520.608,-420.412,-513.376
1840.248,-518.012,-559.736
2092.788,-573.888,-581.208
2225.28,-606.828,-538.508
2257.0,-657.092,-449.936
2076.684,-709.064,-320.86
1807.308,-739.076,-187.88
1554.768,-767.136,-59.292
1313.452,-768.356,20.008
1087.264,-775.432,80.764
885.964,-771.04,135.42
671.732,-763.476,183.0
464.332,-734.928,257.664
291.336,-702.964,338.428
132.492,-678.808,430.66
1.464,-649.772,520.696
-67.344,-562.664,568.276
-42.456,-496.54,622.688
36.844,-499.712,673.196
117.364,-523.38,756.644
235.46,-561.2,807.396
340.136,-582.184,866.444
455.792,-594.384,943.548
493.856,-635.62,1041.148
529.236,-649.772,1172.664
535.58,-609.756,1276.852
479.948,-579.988,1359.324
512.4,-599.264,1396.656
596.58,-666.12,1389.336
711.016,-707.844,1349.32
857.904,-785.436,1308.816
936.716,-849.12,1254.892
946.72,-899.14,1204.14
1011.624,-954.284,1154.364
1077.504,-989.664,1047.736
1075.308,-1026.752,949.16
1066.28,-1066.28,884.744
1173.396,-1098.244,727.608
1226.344,-1110.688,614.148
1095.316,-1079.944,431.636
1177.056,-1010.16,307.928
1250.256,-970.632,212.524
1157.78,-881.816,94.916
1072.868,-778.604,-5.124
996.74,-672.22,-100.772
1033.584,-611.464,-224.968
943.792,-510.448,-301.828
825.208,-444.568,-379.908
791.292,-337.696,-487.024
774.456,-245.708,-565.592
789.096,-211.304,-522.648
771.284,-250.832,-376.248
762.012,-188.368,-256.444
680.272,-121.512,-288.408
620.492,-13.176,-271.816
771.284,74.176,0.244
904.264,-100.528,78.324
914.756,-102.48,-64.904
938.912,522.892,-197.64
920.124,990.396,-487.024
686.616,865.712,-297.68
376.98,1047.004,-255.224
291.092,988.688,-205.692
169.336,970.876,-119.316
45.628,1020.164,-61.244
-91.744,930.616,5.368
-154.452,913.78,-11.956
-160.308,980.88,24.888
-95.16,961.116,51.484
-42.456,914.024,110.532
-22.936,954.04,101.992
-92.72,1011.136,67.832
-157.868,1002.108,37.088
-174.216,958.676,36.112
-146.644,946.72,28.792
-113.216,978.928,2.928
-132.98,999.912,-10.736
-141.764,967.46,-26.108
-113.216,1014.308,-47.336
-71.004,1065.792,-46.116
-64.66,1018.944,-39.528
-84.18,1008.94,-30.744
-76.372,989.664,-6.832
-66.612,1005.036,-1.708
-75.64,996.008,-1.22
-46.36,985.272,2.196
-44.164,984.296,3.904
-36.112,987.956,4.148
-43.676,990.884,0.732
-35.624,979.416,11.224
-28.548,1000.888,5.856
-40.26,1001.62,-8.296
-34.404,1003.816,3.172
-25.132,989.664,11.224
-12.688,982.1,10.98
-19.764,986.736,1.708
-19.032,983.808,5.368
-19.764,997.228,4.636
-26.596,991.86,-0.488
-27.572,996.74,-2.196
-36.6,984.052,-6.588
-32.94,990.64,-5.856
-32.452,990.152,-2.928
-36.6,985.272,-1.708
-30.744,977.708,2.684
-19.276,982.1,4.636
-20.984,994.3,0.488
-23.912,1014.064,-9.76
-31.232,989.664,-10.492
-31.476,970.144,-6.588
-23.668,976.732,-2.684
-36.6,979.416,-13.42
-23.18,987.956,-30.5
-28.548,1002.108,-48.068
-24.156,1032.364,-69.052
-25.376,1028.46,-84.668
-54.9,1009.672,-109.8
-73.932,998.448,-140.544
-86.864,1032.12,-174.46
-108.824,1076.528,-216.672
-137.128,1103.368,-255.224
-150.304,1130.208,-283.284
-183.244,1168.272,-306.464
-180.804,1172.176,-321.104
-121.268,1192.916,-299.632
-73.688,1164.856,-280.112
-48.8,1139.968,-266.448
-18.544,1131.428,-245.708
18.788,1088.972,-220.82
26.108,1034.316,-202.032
41.236,1045.052,-189.588
25.62,1047.736,-187.392
32.94,1057.496,-196.908
70.272,1076.772,-181.536
67.832,1080.92,-160.796
87.108,1116.544,-162.504
126.88,1138.992,-142.252
153.476,1111.42,-95.404
166.408,1139.968,-69.052
146.4,1144.116,-40.016
150.792,1106.296,-1.464
155.428,1113.128,12.932
184.952,1122.644,21.228
187.392,1114.592,52.216
155.184,1050.42,90.28
164.212,1018.944,106.628
166.652,1027.728,97.844
161.284,1037.0,89.548
191.296,1010.404,104.432
169.092,964.044,173.728
101.016,881.084,224.724
72.468,837.896,244.244
78.08,829.6,252.784
106.628,803.98,263.032
105.408,759.328,278.404
-2.196,715.896,325.252
-113.216,663.68,390.888
-77.592,642.94,378.444
-53.436,686.86,359.9
-66.612,705.892,345.26
-72.712,743.712,340.868
-143.228,684.176,369.172
-141.764,684.908,378.688
-125.904,727.852,346.968
-138.104,792.512,285.968
-148.352,869.616,215.452
-148.596,904.02,177.388
-161.772,898.164,164.212
-179.584,905.484,143.472
-185.44,911.828,133.468
-175.192,915.244,129.808
-166.408,932.324,125.416
-148.108,955.992,118.096
-142.984,983.32,110.288
-148.108,991.616,96.136
-127.124,1028.948,86.864
-113.704,1035.048,93.94
-131.272,1033.34,91.988
-125.66,1020.408,105.408
-102.236,1004.548,115.412
-116.144,996.984,104.676
-130.296,972.584,103.944
-142.984,966.972,101.26
-136.396,971.852,96.38
-128.344,979.172,81.74
-126.636,968.436,77.348
-133.224,966.24,69.784
-142.008,981.124,60.756
-160.308,979.904,58.072
-151.036,975.268,64.66
-134.932,1007.232,52.948
-141.276,1022.604,46.848
-137.616,1014.552,53.68
-111.02,1016.26,58.56
-106.628,999.912,73.2
-117.364,965.508,97.356
-119.56,954.04,107.36
-119.804,956.968,105.896
-122.976,956.48,102.724
-114.192,965.996,87.84
-120.048,981.856,77.836
-122.244,982.344,70.028
-117.12,991.128,61.732
-124.928,997.228,55.632
-134.688,973.56,63.44
-133.956,966.484,67.344
-132.98,972.828,66.368
-144.204,963.068,72.468
-142.252,979.416,63.928
-150.06,962.336,70.76
-160.552,967.704,68.32
-157.136,986.492,57.828
-183.488,973.56,52.948
-202.764,965.264,40.992
-223.504,962.336,45.628
-265.472,939.888,48.068
-134.2,1018.7,-42.212
-111.752,796.172,-96.868
-256.932,647.576,-117.12
-352.092,447.008,-4.636
-162.016,251.32,-61.488
472.872,159.576,107.36
631.228,-205.936,718.58
1054.812,-445.056,848.632
1336.144,-147.62,247.416
1531.1,-122.0,174.704
1467.66,-330.376,515.816
1717.272,-490.196,820.816
1833.416,-437.004,901.336
1763.388,-278.16,861.32
1592.832,-258.152,1003.328
1389.824,-377.956,1245.62
1296.86,-431.88,1308.816
1212.924,-422.608,1261.48
1025.288,-406.26,1192.428
840.58,-376.004,1118.252
636.352,-341.6,1025.288
503.86,-305.732,880.352
433.344,-263.276,678.32
405.528,-209.108,482.632
369.172,-175.436,310.124
313.296,-151.28,194.224
247.904,-135.176,115.9
242.292,-139.08,56.608
257.176,-121.512,-68.32
279.136,-93.208,-184.22
334.768,-86.376,-302.804
401.868,-91.256,-399.428
467.992,-111.264,-469.212
565.348,-126.88,-549.244
666.608,-152.5,-596.824
769.088,-150.06,-642.208
932.568,-146.156,-719.312
999.912,-135.176,-758.108
1055.056,-130.296,-758.352
1109.224,-144.204,-722.484
1125.816,-190.076,-685.884
1220.488,-302.316,-619.272
1334.436,-415.044,-574.62
1485.472,-469.7,-545.584
1658.468,-546.316,-476.532
1900.76,-640.5,-418.704
2039.108,-718.092,-382.592
2062.776,-720.288,-388.204
1935.652,-752.984,-296.948
1683.112,-806.42,-160.308
1385.188,-815.692,-38.796
1124.352,-790.804,35.868
929.396,-794.22,122.976
738.588,-775.188,179.584
634.156,-741.516,192.028
474.092,-686.128,231.556
379.176,-633.18,260.836
258.396,-619.516,345.504
62.708,-616.344,510.204
-54.168,-579.256,691.984
-93.208,-564.372,802.516
16.348,-575.352,870.104
158.112,-635.132,945.988
310.368,-694.424,1046.272
412.36,-724.924,1099.22
567.544,-767.868,1173.64
720.288,-784.46,1191.94
792.756,-787.144,1176.324
805.2,-780.068,1118.496
825.696,-820.328,1078.968
867.42,-868.884,1034.56
921.832,-909.876,961.116
981.124,-957.7,880.84
1066.036,-1017.724,758.84
1214.632,-1111.664,672.464
1402.512,-1142.896,567.788
1590.636,-1125.572,427.0
1664.812,-1088.484,305.732
1618.452,-1046.028,216.672
1509.384,-1034.316,182.756
1395.924,-1021.384,155.428
1322.724,-994.056,92.72
1230.736,-935.984,-8.784
1106.052,-900.604,-67.1
971.12,-867.664,-71.736
877.912,-815.936,-123.464
810.568,-706.624,-229.604
734.196,-537.776,-373.076
715.652,-403.088,-465.064
668.072,-330.376,-497.76
645.136,-259.372,-452.864
631.228,-206.668,-375.516
669.78,-164.7,-160.308
500.932,-189.1,93.208
285.724,-211.548,262.3
424.316,-55.876,213.5
719.312,-76.616,-112.728
960.872,275.72,-461.404
1013.576,870.836,-637.328
878.4,1271.728,-284.992
518.744,610.0,-215.696
159.088,685.396,-96.38
-61.488,1038.22,-118.828
-59.536,1262.944,13.664
-97.112,999.18,75.396
0.0,1047.736,81.496
15.616,1198.04,92.476
-44.164,1019.676,132.98
-60.512,975.024,136.64
-97.112,884.012,170.312
-154.452,899.628,125.66
-205.692,958.92,81.252
-262.788,979.416,48.312
-232.776,1010.404,33.916
-164.944,1032.608,42.456
-177.876,1036.024,28.548
-205.692,1031.876,11.956
-180.316,974.536,32.208
-133.712,988.932,46.604
-117.364,946.232,56.12
-111.508,958.188,56.364
-107.116,905.24,84.668
-105.652,882.548,98.576
-123.952,913.78,72.224
-132.736,952.332,54.168
-74.664,989.42,58.56
-71.736,1001.376,68.564
-79.3,978.44,74.664
-100.772,935.74,90.524
-124.684,956.968,66.124
-123.952,977.708,66.856
-84.424,978.928,72.224
-75.152,979.416,88.084
-95.404,955.504,86.376
-101.992,977.952,81.496
-114.924,984.296,73.2
-90.524,970.876,78.568
-82.228,965.752,83.204
-100.772,993.324,73.444
-111.264,1012.112,68.808
-83.692,1019.92,75.152
-81.008,999.912,83.936
-100.528,993.324,68.808
-131.028,994.056,45.14
-138.836,1024.556,17.812
-124.684,1024.068,-11.224
-133.468,1004.06,-41.236
-150.792,988.688,-71.98
-187.148,999.18,-101.504
-189.832,1036.024,-126.88
-206.18,1003.084,-126.88
-208.376,1006.256,-116.876
-240.096,1073.844,-144.448
-284.748,1129.964,-186.904
-294.264,1145.336,-197.884
-295.484,1161.196,-198.616
-291.824,1171.932,-200.568
-267.912,1201.944,-201.056
-240.34,1200.724,-198.86
-183.244,1170.712,-186.416
-125.66,1123.376,-158.112
-137.86,1097.024,-150.792
-170.556,1074.332,-143.716
-174.948,1071.648,-140.3
-144.692,1060.424,-120.048
-123.952,1077.992,-100.284
-101.748,1150.704,-101.504
-105.652,1171.2,-97.356
-107.848,1162.66,-97.112
-118.828,1109.468,-63.684
-134.2,1050.42,-46.36
-131.272,1069.208,-51.24
-132.004,1104.588,-62.464
-112.728,1091.656,-51.24
-70.028,1074.576,-25.62
-63.928,1026.02,6.588
-58.316,1010.648,46.848
-69.296,1004.548,74.42
-87.84,966.484,105.408
-121.268,946.476,122.732
-125.416,935.252,132.248
-143.228,949.404,125.66
-158.356,921.832,148.352
-169.092,868.396,146.4
-167.872,838.384,152.012
-137.616,848.632,157.624
-164.944,802.516,171.288
-147.376,759.328,197.884
-112.484,758.352,235.216
-123.952,727.12,273.036
-159.576,715.408,299.388
-179.096,717.604,308.904
-187.392,706.136,322.324
-195.932,694.912,332.084
-210.328,690.032,345.504
-205.448,719.312,349.652
-245.22,740.54,329.156
-278.892,792.268,292.556
-288.896,801.052,280.6
-307.196,783.972,281.576
-322.812,780.068,276.208
-324.764,801.052,265.228
-335.256,820.328,255.956
-366.976,811.3,248.148
-363.072,828.624,242.536
-389.18,845.216,236.68
-387.472,836.188,237.9
-368.684,817.4,249.612
-344.284,855.708,244.732
-332.084,885.476,225.212
-344.04,919.88,199.836
-336.964,929.152,185.684
-361.12,925.98,176.656
-372.588,912.804,182.756
-386.74,889.136,180.56
-386.984,899.14,167.628
-375.76,897.188,173.24
-350.872,915.488,170.068
-356.484,934.52,161.04
-367.708,925.736,158.6
-369.66,912.56,156.648
-377.224,894.992,159.332
-365.024,878.888,165.92
-366.976,884.744,170.8
-379.664,877.18,175.68
-381.86,888.16,178.364
-370.148,906.216,170.556
-366.488,897.432,171.532
-357.704,894.26,178.12
-362.584,912.804,173.24
-368.196,912.072,171.288
-362.828,912.072,168.848
-366.244,916.952,165.92
-358.192,917.44,169.824
-355.264,899.628,174.948
-354.044,898.408,175.192
-368.684,889.136,167.384
-356.484,885.72,162.748
-346.724,898.408,154.94
-340.38,946.476,145.424
-332.816,971.608,125.416
-333.548,902.8,126.88
-285.968,1055.544,29.28
-303.536,1040.172,13.42
-223.504,858.148,-21.716
-7.564,784.46,-107.848
-46.36,493.368,-46.848
46.848,381.128,39.04
81.984,340.38,481.9
369.416,-96.868,541.436
982.588,-229.36,665.144
1380.552,-272.792,465.308
1356.884,-86.864,242.048
1465.22,-140.788,381.372
1509.384,-249.612,537.532
1484.496,-207.888,684.664
1367.132,-98.332,695.644
1323.944,-43.432,788.12
1256.844,-101.992,946.476
1215.852,-198.86,1096.292
1186.572,-262.788,1193.892
1170.224,-318.42,1212.192
1039.196,-350.14,1187.792
911.34,-370.392,1141.676
804.468,-358.68,1041.148
627.08,-307.196,881.328
501.908,-244.976,694.424
379.42,-202.52,535.58
229.604,-177.632,391.132
257.908,-183.976,260.836
282.552,-137.616,76.128
275.476,-52.948,-140.544
319.396,-34.892,-252.296
433.344,-61.244,-319.884
479.216,-89.304,-393.328
473.116,-114.192,-440.42
543.876,-134.444,-457.256
591.944,-114.924,-487.756
634.644,-109.556,-531.432
714.432,-122.244,-584.136
888.404,-140.3,-627.568
1018.944,-168.848,-667.584
1199.504,-248.636,-660.264
1476.444,-351.36,-655.14
1737.28,-436.76,-659.776
1934.92,-507.276,-641.232
2083.76,-585.356,-602.192
2096.204,-656.848,-538.996
1985.916,-716.14,-463.6
1851.228,-709.064,-394.792
1700.192,-726.876,-289.628
1569.164,-751.032,-199.592
1418.128,-775.676,-121.512
1234.64,-771.284,-71.004
1111.908,-766.892,-50.02
888.404,-812.276,77.348
576.572,-811.3,226.676
365.512,-738.344,265.96
249.612,-671.244,270.596
108.58,-705.404,390.4
-117.12,-704.916,578.28
-223.748,-649.772,694.668
-231.068,-627.324,772.748
-193.004,-688.568,954.772
-22.936,-751.032,1092.632
151.768,-795.196,1182.668
293.288,-812.764,1274.656
393.572,-842.776,1369.084
504.836,-861.076,1406.172
619.028,-883.524,1394.948
685.64,-891.82,1348.1
703.452,-865.712,1229.272
785.436,-877.912,1117.764
860.588,-910.608,1000.4
942.816,-938.424,884.5
1011.38,-960.872,755.18
1089.704,-997.472,661.484
1131.428,-1059.936,610.488
1212.192,-1118.496,527.772
1324.676,-1184.376,426.512
1474.98,-1205.848,300.608
1544.276,-1187.792,195.688
1479.372,-1157.536,127.856
1371.036,-1110.688,82.228
1288.076,-1030.656,31.72
1196.82,-983.076,5.612
1033.34,-936.716,-58.316
1052.86,-829.112,-208.132
973.804,-678.564,-403.332
805.444,-548.512,-454.572
684.42,-420.412,-486.536
587.552,-294.996,-476.776
529.968,-203.252,-430.66
403.576,-187.88,-366.976
381.616,-229.116,-148.108
376.004,-259.128,-42.944
473.36,-399.184,-170.8
574.864,-203.008,-376.004
894.504,1390.068,-673.196
1076.284,1032.364,-536.8
761.036,339.404,-145.668
363.804,647.82,-226.432
32.94,1060.424,-69.54
-6.588,1073.112,10.492
66.124,1010.648,122.732
17.324,1031.144,147.132
-102.968,1071.404,91.256
-94.184,1114.592,85.156
-31.964,1063.352,109.312
-14.64,942.084,145.424
11.956,868.152,175.924
30.744,894.748,163.968
13.42,999.668,119.56
15.372,1002.596,91.256
0.976,970.144,79.544
-19.276,938.18,65.392
-13.664,1004.304,45.872
13.176,1040.904,41.48
17.08,1005.28,51.24
-30.744,965.02,44.652
-21.228,1016.016,45.628
0.488,1030.9,50.02
-9.272,983.808,54.412
0.488,991.372,59.292
17.812,1048.468,58.804
12.2,1019.92,58.316
6.344,997.472,55.632
8.784,998.204,51.484
-9.76,1030.656,49.776
-19.032,1015.772,38.064
16.104,995.52,57.828
30.744,978.928,67.588
10.492,986.736,71.004
-3.416,971.364,43.92
9.028,975.512,53.192
4.88,981.612,57.096
9.272,987.224,49.532
26.84,988.444,61.244
19.52,976.976,71.492
-0.244,976.732,64.904
3.66,985.028,55.144
6.832,986.736,55.876
15.128,968.436,61.732
16.836,988.444,62.952
28.792,984.784,70.516
36.112,992.348,73.444
35.136,978.196,78.324
30.744,976.732,75.152
27.572,1000.4,72.712
21.96,988.444,68.808
15.372,992.348,62.464
5.856,991.86,62.464
7.076,978.684,59.292
33.672,1006.988,60.756
26.108,996.74,62.22
8.296,980.148,65.392
13.908,983.808,59.78
32.452,981.856,66.124
36.356,980.88,62.952
21.716,992.592,60.024
25.376,986.98,58.56
22.204,987.956,59.048
16.836,1001.376,51.972
26.84,1006.012,49.288
20.74,992.592,50.508
5.368,997.472,42.7
-18.056,1013.332,24.156
-18.3,1031.876,9.028
-24.888,1021.872,0.976
-50.996,1018.456,-1.464
-48.068,986.248,10.98
-53.68,963.556,22.448
-53.436,963.8,12.688
-70.028,990.152,-10.248
-80.764,1001.376,-31.72
-91.256,1019.676,-46.116
-140.056,1003.572,-49.044
-180.072,995.276,-67.832
-165.676,1024.068,-86.864
-192.272,1016.26,-104.92
-231.312,999.912,-121.512
-267.912,995.52,-127.124
-262.3,956.724,-107.604
-239.12,921.588,-75.884
-206.424,874.74,-46.848
-193.492,860.1,-24.4
-191.784,887.428,-8.296
-168.36,877.18,17.324
-139.568,896.456,30.744
-102.236,950.624,30.744
-86.864,992.348,30.744
-81.984,1041.88,38.308
-53.924,1128.256,46.848
-12.444,1208.532,63.928
32.452,1225.368,80.276
62.708,1266.604,88.816
96.624,1371.036,80.032
181.048,1484.984,59.292
233.752,1568.676,45.628
226.432,1555.012,31.232
