acc_x[mg],acc_y[mg],acc_z[mg]
75.396,989.664,40.26
82.96,994.544,36.356
80.276,994.788,36.356
70.272,992.348,41.968
74.908,989.664,38.552
72.468,992.592,37.576
64.66,985.272,41.236
60.756,984.784,41.724
61.732,981.612,39.04
60.268,990.64,35.868
72.712,984.784,36.356
69.052,989.664,36.112
70.272,996.008,35.136
68.076,998.448,38.796
57.096,1002.352,45.628
53.68,993.568,51.484
60.512,982.1,52.948
73.2,986.98,42.212
75.884,987.224,31.72
70.272,980.636,34.648
68.32,973.316,41.48
71.98,968.68,45.628
65.392,970.632,48.068
64.66,968.436,44.652
71.004,972.34,38.552
72.224,978.44,33.184
65.88,988.688,33.672
65.88,991.616,33.672
71.492,1000.644,40.504
80.52,1007.964,36.356
88.328,1016.504,34.648
87.352,1018.456,36.6
81.984,1017.236,37.332
80.032,1013.332,34.404
77.592,1008.696,35.868
74.42,997.96,40.016
65.88,993.324,38.064
61.488,986.004,36.112
53.68,986.98,37.088
57.34,981.612,31.72
63.928,982.344,32.452
67.344,982.588,26.84
70.028,983.564,29.28
63.684,983.32,35.136
61.488,984.296,36.356
66.124,989.176,35.868
66.368,989.664,37.332
54.168,987.712,33.672
56.12,992.592,28.792
67.1,988.688,22.204
76.372,999.668,15.616
62.952,985.516,23.18
71.736,985.516,41.968
75.152,983.32,45.628
88.084,986.004,38.064
61.732,987.468,37.576
51.972,988.2,40.504
53.924,1003.084,51.728
71.004,989.908,40.992
53.68,983.076,49.776
54.656,994.3,39.772
53.68,1001.132,30.988
65.392,1005.036,27.084
48.068,1003.328,31.476
16.836,991.616,43.92
32.696,1012.6,20.984
50.02,999.18,15.86
51.972,996.74,19.52
55.876,996.008,22.936
42.944,984.784,32.696
34.648,996.74,39.284
47.58,986.004,35.38
47.58,1009.428,38.308
37.82,982.1,34.648
30.256,975.024,41.968
37.332,964.532,40.992
52.216,967.704,40.992
53.68,969.656,47.336
64.904,971.364,56.608
66.856,979.172,56.608
70.516,996.252,48.068
60.024,1003.572,45.384
50.752,1012.112,37.088
61.976,1002.108,22.448
44.896,1018.944,27.328
41.48,985.76,32.696
32.208,968.924,36.6
31.72,1006.5,30.256
17.812,1028.948,39.284
-7.808,1035.292,41.724
-27.816,1130.94,66.856
-411.384,1077.992,-102.236
-577.304,1121.424,-244.976
-277.672,1069.696,-406.748
-371.368,711.016,-277.428
-183.976,469.7,226.188
159.576,211.792,586.332
520.452,279.624,416.996
1029.924,326.472,89.304
1185.108,209.352,214.964
910.364,-72.712,727.608
918.172,-197.884,918.172
884.256,-180.072,877.18
1134.844,-148.596,737.612
1150.46,-165.432,731.512
1153.632,-302.316,878.4
1256.356,-307.196,933.544
1174.128,-266.204,963.068
1282.22,-182.268,997.228
1337.12,-136.884,1033.096
1303.448,-109.8,1092.144
1149.972,-47.58,1108.248
1021.628,-87.352,1130.696
867.176,-148.352,1107.272
739.32,-222.528,1073.6
528.016,-283.772,1013.576
382.104,-303.78,872.788
380.64,-283.04,634.644
331.352,-267.912,426.756
279.624,-256.932,233.264
314.028,-236.436,18.3
334.036,-220.82,-154.696
355.508,-209.352,-239.12
329.4,-204.96,-293.044
350.14,-185.684,-373.808
472.628,-191.296,-530.7
612.44,-239.852,-639.036
696.62,-235.216,-709.552
762.5,-225.212,-713.456
889.38,-182.268,-800.808
1145.092,-123.952,-949.16
1349.076,-106.872,-1063.352
1534.76,-148.352,-1052.372
1702.144,-203.496,-1014.796
1807.796,-257.42,-941.596
1831.952,-294.508,-820.084
1871.48,-336.232,-655.14
1888.316,-448.96,-455.548
1870.748,-543.388,-337.452
1859.036,-642.208,-227.408
1736.792,-697.108,-156.404
1503.772,-727.608,-102.48
1193.648,-728.34,-22.936
875.472,-706.868,46.36
697.352,-741.516,144.692
541.924,-787.876,250.1
459.94,-793.244,313.784
298.168,-778.848,411.384
254.736,-715.896,428.708
264.984,-723.46,479.704
189.1,-773.48,625.128
160.064,-775.432,718.824
204.96,-790.804,801.784
275.476,-789.34,827.648
356.728,-820.572,896.456
375.516,-819.352,953.064
482.388,-794.952,988.2
601.46,-810.08,1080.188
743.712,-855.952,1157.78
859.856,-913.78,1215.608
932.324,-952.576,1264.896
1057.74,-991.616,1260.504
1201.212,-1037.244,1235.372
1300.764,-1087.02,1156.56
1321.016,-1122.156,1071.16
1315.892,-1131.916,951.6
1297.592,-1136.308,809.104
1302.96,-1117.52,644.16
1251.72,-1102.392,486.048
1199.748,-1139.968,357.216
1178.276,-1188.524,247.172
1236.836,-1220.976,105.408
1284.416,-1165.344,-111.02
1301.252,-1071.404,-284.748
1266.604,-987.956,-404.308
1151.68,-893.528,-486.78
1044.564,-772.748,-577.548
887.184,-664.9,-639.524
732.976,-548.024,-695.4
686.616,-409.432,-707.112
621.468,-248.148,-738.832
640.988,-171.044,-663.192
745.176,-151.768,-493.368
516.06,-214.72,-258.884
539.24,-220.576,33.672
617.564,-470.188,56.12
738.832,-417.24,-16.836
953.308,757.376,-170.312
1162.904,1138.016,-566.568
1249.768,189.1,-376.98
635.62,633.668,-341.356
-50.508,867.908,-310.856
-274.744,888.16,-232.044
-307.684,888.648,-64.66
-147.864,1151.68,-58.316
-99.552,1104.588,-25.62
-183.976,1001.62,-9.272
-241.804,987.468,-17.568
-212.036,904.264,10.004
-203.008,856.44,20.74
-177.388,849.852,15.86
-117.608,895.236,15.372
-86.62,961.36,-7.564
-52.704,971.12,-4.392
-30.744,971.852,1.708
-39.04,1045.54,-20.252
-35.38,1048.712,-24.888
-17.324,1024.8,-10.492
-21.472,986.736,14.152
-59.048,976.488,2.44
-65.392,979.416,1.708
-48.556,986.004,1.708
-64.416,960.14,-0.976
-90.036,953.064,-14.884
-104.92,995.032,-35.624
-89.304,988.2,-29.28
-75.884,966.24,-15.616
-86.376,966.972,-25.864
-82.228,1003.816,-35.136
-78.08,1024.312,-35.38
-77.348,997.472,-17.08
-50.508,966.728,4.392
-46.604,968.68,-1.464
-52.704,1010.892,-26.108
-58.316,998.936,-22.204
-53.436,979.172,-13.664
-49.044,961.36,-4.88
-81.252,978.684,-23.424
-73.444,965.508,-24.888
-58.072,960.384,-15.86
-57.096,991.616,-25.376
-72.956,1017.48,-41.236
-80.52,1015.528,-46.848
-52.216,1013.088,-38.064
-54.656,1000.156,-34.404
-62.952,1000.888,-40.504
-72.956,1030.168,-69.052
-100.528,1045.296,-103.212
-126.636,1053.104,-128.1
-139.08,1059.936,-155.428
-155.672,1063.108,-172.752
-200.812,1086.288,-198.86
-230.336,1112.152,-233.508
-227.408,1143.384,-252.052
-192.76,1190.476,-270.108
-172.752,1211.216,-288.896
-156.892,1197.552,-278.404
-110.776,1157.78,-226.92
-52.216,1103.856,-207.156
-9.76,1115.08,-193.004
-9.76,1142.408,-192.76
-1.464,1131.672,-180.804
-12.932,1116.544,-155.428
8.54,1092.876,-137.128
33.428,1108.492,-126.636
17.08,1103.856,-139.812
7.808,1104.1,-143.716
4.392,1077.016,-88.084
33.184,1066.28,-64.66
56.608,1076.528,-50.508
104.676,1091.412,-22.936
135.176,1080.92,5.368
140.788,1063.108,42.944
85.4,1037.976,85.644
97.844,1033.584,86.132
108.092,1033.096,71.736
68.564,994.056,84.912
39.772,981.124,79.544
26.596,1023.824,57.584
9.028,1059.692,42.944
-3.66,1033.096,77.836
-19.276,956.968,130.784
20.984,916.952,168.116
77.348,889.868,199.592
70.76,870.592,202.52
36.6,824.72,234.484
-20.008,818.376,255.956
-93.452,771.04,263.032
-88.328,736.392,273.768
-97.6,759.572,259.616
-117.364,729.316,257.176
-132.98,720.044,248.392
-142.496,734.928,230.092
-107.848,734.44,235.46
-175.68,776.164,256.688
-166.896,757.62,247.66
-132.004,730.292,273.28
-149.328,696.62,306.708
-169.092,729.804,293.044
-187.148,801.54,241.316
-232.044,886.208,201.788
-225.456,914.268,168.604
-227.896,904.508,164.7
-253.272,900.848,151.036
-243.756,922.808,137.372
-229.848,971.608,106.628
-230.824,970.388,98.576
-220.332,967.46,93.94
-220.576,948.916,106.14
-193.004,955.016,104.188
-179.584,973.316,89.792
-194.224,994.788,71.248
-196.42,975.024,82.228
-197.884,954.528,112.484
-198.616,945.256,121.268
-210.084,931.104,128.832
-206.912,959.652,100.772
-186.904,986.004,88.816
-171.776,976.244,101.016
-152.5,975.268,104.432
-172.508,973.072,104.676
-185.196,978.928,98.576
-176.656,990.152,88.084
-173.728,985.028,80.276
-171.044,992.592,72.712
-187.636,980.392,74.42
-176.9,959.164,93.696
-170.312,941.108,112.972
-179.584,955.992,100.528
-174.704,954.528,99.552
-188.856,946.476,106.14
-195.688,946.964,104.188
-212.036,946.964,99.552
-214.476,955.016,91.256
-246.196,950.136,90.768
-238.876,996.496,77.836
-301.584,1004.06,59.536
-281.82,960.14,-19.032
-131.516,985.028,-68.808
-61.244,963.8,-95.404
34.892,792.268,-132.004
156.648,813.252,-170.068
10.98,672.952,-131.516
-154.452,592.432,660.02
168.116,119.316,626.592
236.68,-41.724,567.788
831.796,-97.6,153.72
1365.668,-26.84,-67.588
1158.756,-2.684,98.576
1225.612,-234.24,453.352
1652.368,-391.132,605.364
1933.944,-442.372,759.816
1853.424,-508.74,1035.292
1677.012,-602.192,1338.096
1386.408,-594.14,1505.724
1143.872,-504.592,1506.944
960.384,-411.14,1445.212
778.604,-339.404,1345.172
670.512,-293.044,1222.44
542.168,-248.392,1083.36
433.588,-216.916,949.16
371.124,-206.912,778.116
270.108,-223.26,612.684
137.372,-229.848,476.532
80.276,-249.612,335.012
113.46,-274.744,170.8
222.528,-259.372,-14.884
294.508,-211.548,-163.48
304.512,-201.3,-240.096
396.988,-224.968,-357.46
476.044,-250.832,-460.184
506.544,-269.62,-492.88
603.656,-321.836,-472.628
693.204,-351.36,-518.744
789.584,-363.804,-568.032
909.632,-359.412,-621.224
1174.128,-413.58,-713.944
1342.732,-481.656,-748.348
1518.168,-538.264,-742.98
1810.48,-603.9,-734.44
2089.128,-613.904,-727.608
2279.448,-637.084,-716.628
2316.292,-755.668,-611.464
2183.556,-837.164,-490.196
1965.908,-884.256,-378.932
1731.424,-932.568,-246.928
1529.148,-974.292,-148.108
1351.272,-990.64,-101.504
1139.236,-1026.02,-24.888
871.568,-1061.888,87.108
619.76,-1052.128,177.144
406.748,-1000.644,245.952
226.92,-915.976,286.456
110.776,-884.988,359.9
-13.42,-885.232,467.504
-115.656,-866.688,600.972
-119.804,-834.968,691.008
-51.24,-864.98,829.356
-33.428,-911.34,1023.336
73.932,-919.636,1143.872
223.016,-942.084,1214.388
293.776,-894.748,1244.156
361.364,-835.7,1248.06
434.32,-819.108,1314.916
501.42,-823.988,1356.152
573.644,-884.988,1382.748
682.224,-937.204,1363.472
814.228,-1014.796,1313.696
967.216,-1090.68,1217.072
1066.768,-1146.068,1105.076
1177.544,-1201.7,991.128
1296.616,-1241.716,879.132
1363.716,-1254.648,751.764
1301.984,-1254.648,645.868
1256.356,-1300.764,542.656
1333.704,-1301.496,366.0
1356.396,-1262.7,169.58
1331.264,-1222.684,35.868
1320.04,-1161.196,-91.5
1334.68,-1088.484,-245.22
1210.972,-997.716,-315.004
982.344,-934.764,-370.392
835.944,-813.496,-474.824
780.312,-662.46,-632.936
750.056,-510.692,-741.272
672.708,-389.18,-790.072
644.404,-292.8,-783.24
612.44,-227.408,-718.336
568.032,-203.496,-541.924
531.188,-176.656,-278.404
768.112,-183.732,-59.292
611.22,-234.484,93.696
577.792,-251.076,259.616
522.892,-474.824,156.16
552.904,129.564,-27.572
681.004,1121.424,-542.9
1115.568,1723.128,-734.44
861.808,988.932,-264.252
300.12,720.532,-164.7
-98.088,811.788,-139.812
-98.82,858.88,-5.124
-25.62,1032.852,75.152
-96.868,963.312,100.528
-83.692,1013.332,89.06
-36.844,918.172,154.208
19.764,921.344,158.844
-13.42,919.148,147.132
-16.104,925.248,142.74
3.904,965.02,104.188
-2.684,972.096,79.788
21.228,965.996,92.964
25.132,960.384,93.208
31.964,956.724,103.7
24.888,992.836,56.608
39.04,1043.344,35.624
41.724,988.932,49.532
62.952,1014.064,49.532
56.364,1027.24,48.556
23.424,1014.308,39.04
44.652,1028.948,31.476
48.068,988.2,50.508
45.14,973.316,47.092
44.896,985.516,45.384
34.404,989.664,43.92
45.384,981.124,55.388
64.416,977.22,64.416
59.78,995.032,57.828
47.092,978.196,37.82
29.524,1008.94,6.1
41.968,1039.928,-22.692
58.56,1030.412,-31.476
53.192,1035.292,-67.344
33.672,1068.964,-123.464
-0.488,1127.036,-199.592
-19.276,1185.108,-262.788
-20.74,1207.068,-293.044
-44.652,1243.18,-322.568
-76.128,1243.424,-329.644
-106.384,1226.832,-333.548
-110.776,1207.8,-318.908
-79.3,1240.984,-312.564
-4.636,1286.368,-298.412
34.404,1259.04,-284.016
89.792,1215.852,-250.344
149.816,1195.112,-200.812
193.248,1179.252,-161.772
192.272,1145.092,-113.948
204.228,1100.684,-82.472
234.484,1047.248,-38.552
243.756,981.124,6.832
192.028,961.116,13.176
134.688,1029.192,-11.468
105.164,1027.972,5.124
107.848,1006.5,50.264
170.068,992.104,94.184
194.712,975.024,128.344
183.244,955.504,159.82
177.876,963.8,169.092
176.168,978.684,177.876
159.332,987.224,173.728
124.44,964.532,188.124
138.104,894.016,236.68
102.236,839.604,267.912
44.408,844.24,248.88
29.768,899.628,231.312
21.228,878.888,242.78
15.372,843.996,267.668
-10.492,802.028,292.8
-43.432,794.464,303.78
-101.016,737.124,324.52
-138.348,683.2,359.168
-130.052,608.78,397.476
-119.804,551.196,433.832
-155.672,518.012,452.376
-180.316,571.936,415.776
-176.656,706.624,345.26
-178.12,783.484,294.752
-187.636,821.06,267.912
-202.52,854.244,237.9
-209.108,913.048,185.928
-234.484,990.64,122.488
-245.952,1009.428,80.764
-272.304,1018.7,48.8
-294.996,980.392,44.408
-296.704,958.432,51.484
-266.692,950.136,62.22
-242.292,962.092,61.488
-235.704,974.536,55.632
-235.46,967.704,67.588
-213.256,973.316,73.444
-212.036,973.316,71.736
-226.188,974.536,63.44
-227.896,990.64,52.46
-219.6,1001.132,43.676
-232.288,958.188,63.928
-226.92,949.892,68.076
-236.924,953.064,60.756
-237.412,948.184,59.048
-230.336,946.964,59.78
-228.384,963.312,50.996
-223.992,954.772,54.412
-215.452,962.336,54.412
-227.652,976.0,49.532
-219.6,982.832,49.532
-210.572,977.22,60.024
-218.38,952.332,73.2
-208.132,953.552,76.372
-212.28,959.408,70.028
-223.748,966.972,57.828
-226.432,979.66,51.24
-223.26,976.244,49.776
-219.356,961.604,57.096
-229.116,952.332,57.828
-208.864,976.732,54.168
-208.864,975.024,54.656
-213.5,957.212,64.416
-204.228,944.524,72.224
-209.596,933.544,79.056
-208.62,962.824,60.756
-217.892,967.216,45.14
-220.088,964.288,53.924
-218.38,966.728,54.9
-219.112,962.58,58.56
-223.26,967.46,56.364
-212.036,979.66,55.876
-216.916,967.948,59.048
-218.868,961.848,60.512
-223.748,958.676,55.144
-214.72,991.86,38.552
-239.608,991.616,32.696
-208.132,1021.384,47.58
-223.016,987.956,-85.4
-181.292,948.428,-117.608
-317.932,809.592,-127.856
-333.792,640.012,-179.828
-301.096,401.38,-276.696
-26.84,156.648,-101.016
-259.372,17.568,892.064
-539.24,-223.26,725.412
68.808,-535.092,523.38
1606.984,-328.668,93.208
2052.04,-406.748,128.1
2183.312,-593.652,691.984
2440.976,-653.92,1053.104
2204.296,-579.012,1208.532
1636.508,-433.344,1359.324
1212.924,-457.988,1549.156
976.488,-508.984,1642.852
738.344,-478.728,1565.992
595.36,-430.66,1467.416
503.128,-415.776,1370.792
463.6,-401.868,1212.924
440.42,-383.08,1033.584
458.72,-375.76,881.328
514.84,-364.536,673.196
527.04,-340.136,498.492
454.816,-313.54,333.548
388.448,-278.16,199.104
339.648,-263.032,82.96
359.656,-248.392,-9.272
374.296,-225.212,-105.652
384.788,-207.644,-200.08
364.536,-153.72,-324.52
393.816,-135.176,-405.04
483.364,-166.652,-444.324
661.728,-208.62,-520.208
849.364,-229.604,-563.152
882.06,-225.7,-546.804
1020.164,-215.94,-547.292
1226.832,-216.428,-571.204
1330.532,-242.78,-544.608
1536.224,-333.06,-500.932
1801.94,-429.196,-504.348
1972.984,-497.028,-498.492
2155.008,-507.764,-501.908
2244.068,-499.224,-500.444
2253.584,-547.536,-429.44
2093.52,-598.532,-362.828
1891.0,-706.868,-260.104
1604.056,-834.968,-138.104
1274.656,-951.844,40.26
936.716,-966.484,157.38
656.848,-942.816,243.268
416.508,-861.076,267.668
306.952,-779.58,261.568
263.52,-763.232,301.828
162.504,-792.268,429.928
65.148,-804.468,573.4
44.896,-783.484,688.812
77.836,-785.924,791.048
81.252,-823.744,918.416
133.224,-855.708,1014.552
239.608,-843.264,1063.84
329.156,-819.108,1095.56
410.896,-791.048,1138.748
502.152,-767.136,1143.384
546.072,-762.256,1159.732
540.46,-774.212,1170.224
575.352,-802.028,1151.924
639.28,-847.412,1120.692
722.484,-894.748,1082.384
880.352,-953.308,1056.276
1064.572,-1011.868,995.764
1201.212,-1059.692,947.696
1260.26,-1097.024,886.452
1299.788,-1208.776,872.544
1287.588,-1296.372,806.664
1246.352,-1348.344,681.004
1298.08,-1321.504,485.804
1340.78,-1282.22,285.236
1243.18,-1200.968,130.54
1127.036,-1108.248,8.296
1055.3,-1025.044,-122.488
1033.828,-956.48,-307.928
932.812,-869.372,-441.396
811.3,-807.884,-508.74
794.22,-723.46,-585.356
733.952,-646.356,-595.604
682.224,-553.636,-603.656
697.108,-393.572,-644.648
789.34,-255.712,-627.568
861.808,-116.144,-427.0
893.04,-68.808,-250.344
937.204,-56.12,-88.816
1051.396,28.06,227.408
1176.324,65.392,262.056
1149.728,-233.508,-8.784
511.18,-27.816,-39.04
191.296,741.028,-281.332
196.42,1420.324,-441.64
43.188,1022.36,-215.94
-62.464,910.364,-138.348
-174.216,827.648,-93.696
-221.064,778.604,-16.592
-143.228,833.26,15.128
-119.316,975.756,-17.568
-136.152,952.088,-10.492
-70.028,875.716,33.428
-95.404,873.276,16.348
-109.8,997.96,-56.364
-40.992,1018.7,-51.972
4.148,1005.036,-23.668
-8.54,1007.232,-9.516
-27.328,1011.136,-8.296
-27.572,956.48,7.808
-4.392,917.44,15.372
40.504,974.78,-1.708
31.232,1008.208,-13.176
-3.66,976.0,-20.984
-29.036,1019.92,-45.384
-6.832,1039.684,-33.184
-13.908,1012.844,-23.18
14.64,1026.752,-22.936
13.42,976.976,1.22
-1.708,954.04,-0.244
1.952,962.58,-8.54
-8.784,979.66,-31.72
8.54,992.836,-41.236
32.208,993.812,-41.48
21.96,998.448,-47.58
-7.076,1045.54,-104.432
-46.848,1080.676,-161.284
-103.212,1115.568,-216.672
-140.788,1158.024,-274.988
-157.136,1129.964,-304.268
-110.288,1092.876,-305.976
-65.148,1079.7,-300.608
-74.664,1057.984,-307.928
-48.068,1080.432,-330.62
-28.304,1101.172,-354.776
-47.092,1117.032,-368.196
-48.068,1091.9,-342.576
-10.98,1123.864,-310.124
-2.928,1127.036,-296.216
28.304,1187.792,-302.804
42.944,1213.168,-300.364
46.116,1196.332,-275.964
56.364,1154.852,-244.244
83.936,1151.192,-231.068
85.4,1145.58,-206.912
51.728,1148.02,-214.476
57.584,1173.396,-215.94
50.508,1184.376,-198.372
95.892,1175.104,-140.056
106.384,1169.98,-99.796
93.208,1168.76,-89.548
70.76,1163.636,-72.224
106.14,1138.748,-35.868
157.868,1135.576,-20.496
157.136,1087.264,10.98
153.72,1047.492,42.7
119.56,1006.012,69.052
113.948,996.008,82.716
117.364,1021.872,68.808
91.5,968.68,78.812
82.472,903.776,107.848
43.432,852.048,142.252
13.908,818.864,156.404
28.792,793.244,203.496
32.452,730.536,264.496
6.832,649.528,320.86
-20.496,599.508,370.636
-70.76,537.288,411.14
-109.8,501.908,437.004
-133.224,519.964,450.424
-169.824,518.744,469.456
-245.952,484.828,475.068
-273.28,546.804,424.56
-262.3,718.824,323.3
-270.352,839.848,248.88
-293.288,894.992,206.912
-315.492,915.488,172.508
-339.16,905.24,155.428
-337.696,919.148,143.96
-335.5,920.368,134.2
-331.596,908.9,122.488
-329.156,893.284,119.804
-327.448,866.2,118.584
-329.888,885.964,94.428
-298.9,939.644,62.708
-306.952,966.484,36.6
-328.18,963.556,23.668
-322.812,990.396,10.492
-312.076,995.764,12.932
-298.9,973.316,27.816
-274.256,955.748,53.192
-290.604,954.528,47.092
-303.292,943.304,40.748
-299.388,938.912,37.332
-296.948,938.18,39.528
-281.088,960.628,30.988
-273.768,959.896,34.404
-286.944,951.6,35.136
-293.776,952.332,36.844
-296.948,944.036,43.676
-309.148,942.084,39.04
-288.164,967.948,37.332
-273.524,962.58,54.656
-269.132,947.208,74.664
-274.5,956.724,75.884
-269.62,959.408,78.08
-241.804,955.748,84.668
-231.312,958.432,78.568
-238.144,963.312,69.296
-273.28,958.432,39.772
-244.976,971.608,-5.124
-207.4,957.7,-34.16
-145.912,882.792,-150.06
-138.592,998.692,-101.26
-104.676,975.512,-126.636
-35.624,672.464,-1.22
79.788,537.044,98.82
-156.404,488.244,212.036
-278.404,328.424,439.932
166.408,125.904,573.156
773.724,106.628,322.812
1201.7,124.196,30.988
1080.92,115.656,152.988
951.112,180.56,228.14
1189.988,34.404,416.02
1468.636,-65.636,554.124
1610.4,-19.276,643.184
1555.744,-21.96,841.8
1511.092,-115.656,1121.18
1464.0,-255.712,1369.328
1416.176,-345.26,1520.608
1300.764,-389.912,1589.904
1139.968,-380.396,1571.604
997.472,-348.432,1528.172
871.568,-302.316,1411.052
790.316,-250.1,1292.712
705.404,-170.068,1127.768
679.296,-127.124,952.088
636.108,-165.188,843.752
553.148,-197.64,749.568
457.256,-216.672,652.944
309.392,-252.296,575.596
228.628,-255.224,464.088
230.824,-249.612,326.96
220.576,-222.04,176.168
196.664,-208.132,28.548
176.412,-223.992,-88.816
287.92,-242.292,-184.464
425.292,-219.844,-311.832
404.308,-200.568,-401.136
355.508,-204.228,-417.972
486.048,-192.76,-452.62
562.176,-177.876,-512.888
627.812,-222.284,-567.788
834.968,-271.328,-612.44
1074.576,-322.08,-646.112
1161.196,-384.788,-648.308
1256.356,-457.744,-611.22
1502.308,-477.752,-622.2
1860.5,-454.328,-657.336
2180.872,-440.908,-717.848
2428.776,-457.5,-776.896
2617.388,-539.728,-802.272
2602.016,-635.864,-720.288
2264.808,-755.18,-515.572
1893.928,-866.688,-280.6
1594.052,-938.18,-86.864
1369.816,-969.168,33.184
1134.6,-955.504,96.38
874.008,-927.444,172.264
619.272,-919.392,264.252
401.136,-852.78,344.04
289.872,-784.216,400.16
218.624,-759.816,447.74
186.904,-768.6,527.772
117.364,-754.204,608.536
71.98,-717.604,701.744
120.292,-716.14,810.812
185.196,-723.948,951.112
194.956,-715.164,1073.6
251.808,-672.22,1150.704
359.9,-642.94,1213.9
431.88,-596.58,1260.992
495.076,-567.788,1285.88
533.14,-591.944,1304.668
606.584,-611.708,1334.924
632.692,-636.84,1346.88
611.952,-686.616,1332.24
676.612,-756.888,1304.18
849.852,-814.472,1235.372
1004.304,-901.58,1154.608
1075.796,-949.16,1031.144
1189.256,-971.12,956.968
1163.148,-1054.324,997.228
1082.628,-1144.848,1027.972
1094.828,-1242.936,908.656
1005.28,-1303.936,757.132
921.1,-1310.28,584.624
980.148,-1341.512,405.04
1322.236,-1335.412,161.284
1501.576,-1269.532,-154.208
1368.84,-1169.248,-322.568
1352.736,-1101.172,-368.684
1228.052,-1017.968,-436.272
1063.352,-863.272,-648.552
1061.156,-660.996,-804.224
1020.164,-554.612,-841.556
912.316,-428.952,-772.26
863.272,-325.74,-585.112
803.004,-362.34,-373.564
597.312,-439.688,-141.032
481.656,-369.172,-17.324
686.86,-155.428,50.02
776.408,79.3,-26.596
757.864,118.34,-175.924
623.908,615.124,-233.752
578.036,662.216,-435.296
434.32,663.68,-367.708
184.464,892.796,-364.78
-28.06,976.976,-264.984
-119.56,932.08,-214.232
-150.06,904.508,-155.916
-148.596,1022.36,-122.244
-137.616,1054.568,-97.356
-124.196,960.872,-3.172
-123.464,929.152,19.032
-158.844,912.072,-7.808
-195.2,928.42,-30.5
-155.184,954.772,-10.736
-86.376,974.78,-1.708
-124.684,1051.396,-60.024
-157.136,1030.168,-94.428
-113.704,1017.48,-51.24
-100.04,988.444,-21.716
-84.18,960.628,-4.636
-59.78,969.9,-20.008
-65.88,988.688,-43.676
-83.692,973.072,-44.164
-68.076,980.392,-33.672
-51.24,952.82,-19.276
-44.896,993.568,-42.456
-70.516,1001.62,-73.444
-58.072,982.832,-59.048
-20.74,970.876,-20.496
-52.704,974.536,-24.644
-64.416,976.488,-63.44
-28.06,983.808,-69.784
-5.368,996.008,-73.2
-39.528,1003.084,-95.16
-62.464,1037.976,-152.012
-80.764,1040.904,-212.524
-120.292,1069.94,-292.312
-163.724,1107.76,-380.64
-210.084,1129.476,-456.524
-250.832,1142.652,-521.916
-291.58,1108.248,-560.224
-317.932,1133.38,-588.528
-309.392,1211.46,-605.852
-226.676,1279.78,-571.692
-144.936,1301.252,-504.592
-89.06,1274.656,-438.712
-62.22,1279.536,-392.84
-61.244,1284.66,-370.392
-32.452,1291.98,-332.328
14.152,1241.472,-272.304
58.804,1140.944,-203.252
123.708,1116.544,-162.992
128.344,1072.136,-131.028
94.428,993.08,-97.112
112.24,988.932,-81.984
125.66,1024.312,-79.3
132.492,1030.412,-63.44
131.76,1000.156,-39.04
121.512,914.756,14.396
101.504,836.676,98.088
75.64,814.228,133.956
56.364,864.004,127.368
10.736,885.72,107.116
-13.664,877.424,106.14
-43.188,882.06,101.016
-66.124,884.5,112.728
-61.732,877.912,143.228
-60.024,835.7,178.852
-17.324,881.084,167.14
4.148,957.7,150.304
-38.308,936.228,162.504
-38.796,882.548,211.548
-71.98,839.116,223.26
-82.472,906.216,166.652
-147.132,889.38,131.272
-203.74,803.492,126.88
-244.244,792.268,109.556
-226.432,836.432,118.584
-232.288,770.064,177.632
-207.644,741.76,233.02
-134.444,706.624,336.476
-109.312,624.884,446.52
-113.216,581.452,498.492
-145.424,576.816,492.636
-193.248,651.968,422.364
-205.204,761.768,345.016
-223.992,855.464,271.816
-271.328,892.308,221.552
-286.7,910.12,186.416
-278.892,957.456,145.668
-250.832,1005.768,95.648
-270.352,993.812,56.364
-289.628,1006.744,20.008
-292.8,1011.624,9.516
-287.92,1004.792,18.544
-283.284,1016.26,22.204
-284.504,1015.04,37.088
-264.008,1035.536,47.58
-247.416,1029.68,60.512
-236.68,980.392,94.428
-234.484,972.584,103.212
-241.316,990.64,92.232
-233.996,999.912,88.816
-245.22,968.924,93.696
-242.048,961.848,85.4
-246.928,983.32,57.828
-241.072,1005.768,40.016
-256.932,979.416,41.48
-279.868,949.892,48.312
-282.796,930.86,62.708
-284.504,930.372,68.564
-267.18,950.624,75.152
-244.488,959.896,81.984
-220.82,958.676,103.944
-235.46,945.012,128.588
-313.296,993.812,112.484
-326.472,981.612,116.388
-227.408,951.356,0.488
-143.228,818.376,-316.956
-230.58,667.828,-366.976
-64.904,460.428,-223.992
378.932,313.54,334.768
518.744,52.46,878.156
774.456,-37.332,1078.968
1128.744,-18.3,571.692
1653.588,-12.688,467.26
1683.6,-182.756,726.144
1525.488,-277.184,1121.18
1349.564,-233.996,1198.04
1235.128,-170.556,1287.832
1161.928,-222.528,1303.448
1077.748,-281.82,1348.344
902.8,-330.864,1346.636
812.764,-355.996,1343.708
749.812,-342.088,1224.636
645.38,-328.912,1091.412
593.164,-306.22,949.892
533.14,-312.808,816.424
495.564,-307.684,636.84
465.796,-286.456,482.144
405.528,-266.936,341.112
406.992,-207.4,194.468
374.54,-157.624,51.24
304.512,-131.272,-40.016
265.96,-111.02,-131.76
331.84,-127.124,-184.464
397.232,-103.7,-273.524
422.852,-108.58,-322.568
374.296,-126.636,-363.316
501.664,-165.676,-397.232
605.608,-128.588,-459.94
610.0,-142.252,-436.516
699.06,-169.336,-466.284
831.308,-192.516,-509.716
939.156,-199.104,-511.18
896.7,-241.072,-444.568
1050.908,-368.44,-420.168
1395.192,-457.744,-501.664
1642.12,-518.744,-521.672
1736.548,-583.648,-469.456
1950.048,-621.224,-503.616
2142.32,-626.104,-571.936
2200.148,-637.328,-589.26
2150.616,-698.084,-537.288
1921.5,-775.676,-373.076
1707.756,-852.78,-211.304
1655.784,-922.32,-141.764
1550.376,-1003.084,-9.76
1356.64,-1039.928,82.96
1227.076,-1020.652,92.72
1015.528,-1017.48,142.74
716.872,-964.288,196.664
483.852,-941.84,280.844
318.176,-888.404,323.3
249.368,-835.212,349.652
173.728,-804.956,422.852
17.568,-728.828,473.848
-6.344,-662.704,541.68
28.792,-674.416,663.436
88.328,-724.68,737.612
179.096,-755.912,777.628
340.624,-724.192,756.4
449.936,-707.112,760.304
534.848,-721.264,870.592
655.384,-721.752,938.912
705.404,-704.672,990.396
793.244,-729.56,1089.704
881.572,-773.724,1109.956
990.64,-820.572,1118.984
1022.848,-889.38,1173.396
1037.976,-955.992,1196.82
1160.22,-1001.864,1147.044
1226.344,-1018.7,1041.392
1253.184,-1008.696,907.192
1300.276,-983.32,751.032
1371.28,-963.556,589.26
1445.7,-964.532,446.764
1438.868,-1068.476,433.832
1338.828,-1189.988,402.6
1290.76,-1213.9,258.152
1240.74,-1132.404,56.364
1067.988,-1121.424,-96.868
878.644,-1044.808,-198.128
805.932,-946.72,-369.172
830.332,-749.812,-540.216
935.252,-595.604,-741.272
978.684,-493.856,-868.884
936.96,-355.996,-809.104
876.936,-323.788,-732.244
822.28,-211.548,-697.84
784.216,-118.34,-712.968
713.7,-72.956,-637.084
660.752,-34.16,-533.872
704.428,-29.768,-422.364
645.136,-44.408,-281.332
735.66,-80.032,-140.544
853.756,-105.896,-26.84
1158.268,0.488,64.66
1095.072,-25.132,-68.32
927.688,-47.824,-51.24
1142.164,407.724,26.596
1165.1,306.708,-17.324
1083.36,811.056,-106.872
1331.996,1123.864,-414.8
862.784,616.832,-111.996
779.092,745.664,-117.852
456.28,636.352,-143.228
198.86,857.904,-109.068
-64.904,1034.804,-105.164
-231.068,838.384,-84.668
-184.952,884.5,-30.744
-165.92,884.988,25.864
-260.592,849.364,3.416
-257.664,902.556,25.864
-234.24,841.068,82.96
-226.188,726.876,89.304
-218.868,792.024,39.528
-246.928,888.648,-37.088
-235.704,939.156,-53.924
-180.316,997.228,-60.756
-150.548,994.788,-29.768
-147.132,1026.264,-38.064
-145.18,1044.076,-58.072
-117.364,986.736,-29.524
-105.896,995.276,-28.548
-147.132,952.088,-28.304
-147.376,969.168,-50.264
-137.616,1018.7,-65.636
-137.372,990.396,-63.928
-134.2,954.772,-35.38
-118.096,990.64,-39.284
-119.804,1005.768,-37.82
-110.044,994.056,-18.056
-86.132,991.128,-13.176
-69.052,995.764,-3.904
-91.012,998.692,-23.424
-108.58,982.588,-44.408
-113.216,970.388,-39.04
-82.96,965.752,-20.252
-80.032,962.336,-20.984
-83.204,958.92,-19.276
-88.084,970.876,-26.596
-104.188,987.224,-40.016
-104.676,976.732,-24.4
-109.8,973.072,-22.692
-120.048,984.54,-39.04
-116.144,1013.088,-63.684
-110.532,1047.248,-83.936
-124.196,1025.532,-86.132
-131.272,1032.608,-99.308
-168.36,1031.144,-130.052
-186.66,1047.004,-157.624
-197.396,1042.368,-164.7
-206.668,1060.668,-191.784
-207.888,1071.892,-215.696
-220.576,1058.228,-235.216
-231.556,1057.496,-257.664
-238.876,1067.988,-292.8
-225.456,1121.668,-322.08
-199.836,1153.388,-333.548
-176.656,1153.144,-325.496
-169.092,1175.348,-347.944
-167.872,1176.812,-344.772
-126.392,1205.116,-337.208
-93.208,1235.616,-343.308
-132.492,1205.848,-328.668
-189.344,1165.344,-338.184
-139.812,1149.24,-310.856
-86.132,1164.856,-265.96
-61.488,1133.136,-227.896
-52.216,1151.436,-196.176
-84.912,1120.204,-165.188
-72.224,1085.068,-124.684
-13.664,1046.516,-49.532
59.292,1030.656,27.328
74.908,1036.512,61.488
63.196,1052.372,57.828
52.46,1047.004,65.392
22.448,1010.648,71.736
8.54,982.344,65.392
-22.692,944.524,50.02
4.636,936.716,53.192
42.944,901.092,96.624
29.768,889.868,118.096
15.372,868.884,147.62
-11.224,836.92,170.8
-54.9,870.836,150.792
-151.036,894.748,92.964
-137.128,951.356,70.516
-42.212,980.636,115.412
-20.252,912.56,170.556
-32.452,858.636,248.392
-97.112,779.58,245.708
-116.388,769.088,277.672
-123.708,711.992,335.5
-121.268,670.756,361.12
-124.684,652.212,395.524
-150.548,620.736,429.684
-185.928,616.1,433.1
-199.836,596.58,446.52
-197.152,606.828,431.148
-203.252,673.928,389.18
-237.412,747.86,314.516
-255.468,854.976,237.168
-292.556,890.6,186.904
-314.516,895.236,151.28
-318.664,922.808,132.004
-322.568,957.944,105.164
-327.692,962.092,102.724
-308.904,953.552,110.776
-279.136,944.768,131.272
-270.108,934.276,141.032
-255.224,968.192,114.436
-261.08,970.144,89.06
-277.428,935.496,89.06
-286.456,919.636,79.544
-295.728,942.328,56.364
-299.632,981.124,51.728
-253.028,1023.092,67.588
-87.596,1145.58,134.2
-137.372,1189.988,-27.572
-149.084,1248.548,-77.348
147.62,1141.432,-162.26
317.2,989.42,-447.984
116.388,551.44,-354.044
-453.596,1074.82,592.92
81.252,741.76,323.056
564.616,79.056,557.052
874.496,-108.58,581.94
996.252,-183.976,462.136
1130.696,20.984,391.864
1329.312,99.552,100.04
1309.548,-35.38,247.416
1254.404,-25.62,255.712
1249.768,-56.12,227.408
1094.584,-22.204,299.388
1001.62,-51.484,382.836
923.784,-27.084,556.076
847.9,51.24,655.628
910.12,117.12,760.792
960.384,152.988,902.312
961.116,98.332,1057.496
1023.336,31.476,1149.24
1071.648,-15.128,1151.924
1047.004,-66.124,1156.56
976.0,-107.604,1117.764
880.596,-161.772,1086.776
826.672,-171.532,978.684
699.304,-140.3,839.116
551.928,-151.036,741.272
434.32,-217.892,675.636
436.028,-282.308,551.928
457.988,-281.332,352.58
387.96,-250.1,212.524
354.288,-215.208,94.184
326.96,-236.924,39.772
462.38,-265.228,-121.756
539.728,-283.528,-293.288
553.88,-273.036,-378.932
614.636,-336.72,-374.052
685.64,-387.472,-377.468
696.132,-410.896,-403.332
805.444,-406.992,-505.08
962.336,-414.068,-591.212
1051.884,-405.284,-634.888
1176.08,-451.156,-643.672
1292.712,-478.728,-661.484
1449.36,-507.764,-717.848
1655.296,-566.324,-742.248
1791.692,-586.088,-734.44
1821.216,-585.6,-715.164
1852.936,-590.968,-643.428
1774.856,-644.404,-518.744
1628.944,-740.052,-327.448
1531.832,-763.232,-224.236
1370.792,-788.608,-88.084
1144.848,-802.028,51.484
984.296,-782.264,118.34
871.568,-720.776,64.66
883.28,-674.66,-32.696
812.032,-746.884,41.724
636.352,-820.572,205.448
538.264,-815.204,276.696
604.388,-774.212,240.34
678.564,-796.66,277.428
414.556,-781.288,395.036
99.308,-740.296,502.884
11.224,-715.652,589.504
77.348,-790.804,731.512
-41.48,-818.62,878.888
26.108,-819.352,956.236
111.508,-817.4,1012.112
139.812,-823.744,1147.288
281.332,-898.164,1247.084
394.792,-900.604,1291.98
428.952,-853.268,1288.32
486.78,-840.824,1322.724
565.592,-886.208,1409.588
645.624,-952.332,1412.516
681.98,-977.22,1357.128
746.64,-981.124,1253.428
852.292,-998.204,1121.424
900.116,-1036.268,984.052
908.9,-1090.68,859.124
983.076,-1074.332,695.888
1033.096,-1039.684,533.14
1002.352,-1019.92,457.012
1072.136,-1021.384,394.792
1243.424,-1091.168,275.476
1341.756,-1141.432,140.3
1318.576,-1100.196,45.384
1220.732,-1096.536,17.568
1185.84,-1071.404,-10.248
1171.932,-1025.288,-139.812
1093.364,-936.716,-346.968
928.664,-820.572,-492.392
819.84,-695.644,-550.952
681.736,-552.416,-566.08
711.748,-433.832,-720.288
712.236,-197.152,-746.64
656.36,-136.64,-680.516
719.8,-228.628,-507.52
684.664,-254.492,-286.456
706.38,-263.764,-184.708
747.86,-312.564,-119.804
772.016,-397.72,-0.488
884.744,-316.468,-10.736
1051.396,-345.26,74.908
1106.052,-383.812,357.46
873.52,-412.116,442.86
998.204,-398.94,111.752
1134.356,193.492,-92.964
1116.3,409.676,-172.752
1007.232,571.936,-87.84
910.364,572.668,-111.264
936.228,1138.26,-49.288
865.956,924.516,-22.936
573.644,694.668,48.068
342.576,886.94,-10.004
147.132,1030.412,-138.592
57.828,945.988,-50.996
-40.016,829.6,28.304
-101.748,878.4,0.244
-124.196,1074.576,-34.404
-179.096,964.288,-12.932
-171.776,906.948,19.276
-106.384,1007.232,46.604
-93.696,937.448,63.196
-113.216,971.12,44.164
-115.168,967.704,-66.124
-67.344,936.716,-14.64
48.8,1011.868,32.696
39.284,1011.624,42.944
-12.444,996.74,4.636
-32.696,970.144,-1.708
-0.488,971.12,9.516
9.272,966.484,30.012
-12.932,933.056,44.652
-39.772,939.644,15.616
-86.62,994.544,-43.92
-35.38,1026.508,-23.424
-6.588,1004.304,3.904
-10.736,951.6,17.08
-12.444,952.82,30.012
-9.76,1018.944,-12.444
-2.44,1055.3,-15.128
16.836,998.204,19.764
23.912,969.656,46.36
-16.836,967.948,42.212
-60.268,965.996,11.224
-42.944,966.484,13.664
-25.62,997.96,10.98
-11.956,1008.696,5.612
-32.94,1019.92,-7.808
-22.204,1010.648,2.44
-8.296,1004.548,11.712
-2.44,988.688,26.108
-7.564,996.252,15.86
-38.552,987.956,0.732
-42.212,996.74,-5.124
-30.256,987.224,2.928
-10.736,980.148,1.708
-6.344,1010.404,-12.932
-44.652,1016.992,-42.456
-67.1,1049.688,-81.74
-122.244,1066.036,-127.856
-167.628,1132.16,-177.388
-169.092,1134.844,-199.592
-161.772,1147.532,-228.14
-151.524,1147.288,-254.248
-167.14,1174.372,-283.528
-195.932,1196.088,-311.588
-171.532,1222.196,-322.568
-140.3,1234.396,-322.08
-118.828,1257.332,-331.108
-110.288,1274.168,-340.38
-48.8,1266.604,-299.144
-2.928,1241.472,-259.372
19.032,1190.964,-212.524
43.188,1136.064,-164.7
96.624,1141.92,-128.1
95.648,1112.396,-128.832
86.864,1060.424,-76.372
89.548,1014.552,-20.74
117.852,1028.46,26.352
134.932,1057.74,19.764
134.444,1053.104,20.008
106.872,1030.656,34.648
72.468,948.428,45.872
94.916,964.532,62.22
99.796,981.856,61.488
88.816,1015.04,36.356
81.252,990.396,33.916
70.516,893.284,87.108
29.524,844.728,110.044
-14.152,896.212,81.008
-8.784,994.056,60.756
-44.164,910.852,96.136
-53.924,861.808,137.616
-107.604,738.588,175.436
-88.816,819.108,152.012
-90.524,907.436,114.192
-74.664,926.956,98.576
-59.78,936.228,116.388
-93.94,905.728,126.148
-153.72,914.512,110.776
-151.768,910.12,68.32
-107.36,937.204,90.524
-74.176,945.012,99.064
-67.588,935.252,163.236
-73.444,875.96,213.5
-81.74,817.4,255.956
-110.044,689.056,319.152
-95.16,648.308,371.856
-92.476,698.816,345.504
-137.616,706.868,339.404
-176.412,691.008,332.084
-192.76,729.072,316.224
-224.724,750.788,267.668
-204.96,812.764,254.492
-208.376,842.044,238.876
-212.524,853.024,228.14
-214.72,880.596,205.204
-214.476,913.78,182.756
-209.596,939.644,171.532
-225.456,941.108,151.768
-220.088,963.068,136.396
-217.16,988.2,119.804
-222.04,986.492,109.556
-208.62,1021.628,97.844
-209.352,1019.676,99.552
-214.72,985.028,111.508
-216.916,974.78,107.604
-201.788,979.416,115.168
-181.536,967.216,131.516
-178.12,945.744,143.228
-179.096,952.82,130.54
-128.588,993.568,121.268
-76.616,1047.248,125.172
-115.9,1020.652,79.788
-120.536,1029.68,-0.488
-57.34,1060.912,-82.716
-56.852,979.416,-141.032
-24.888,653.188,-270.352
258.396,347.212,-55.144
172.264,803.004,649.284
284.748,777.384,242.292
614.148,387.472,356.24
862.296,-26.352,412.36
1043.344,-197.884,337.696
1313.208,-25.864,89.548
1262.7,135.908,-16.836
1298.812,-2.196,90.524
1242.448,-77.348,265.716
1336.876,-131.272,345.016
1387.384,-138.592,443.836
1465.464,-150.792,689.3
1310.28,-140.3,991.372
1141.676,-106.628,1182.424
1125.084,-128.588,1295.884
1181.936,-196.664,1335.412
1124.596,-259.86,1329.068
966.484,-282.796,1283.684
781.776,-269.132,1188.036
542.168,-250.1,1059.936
325.984,-244.732,895.48
251.564,-274.256,735.416
180.804,-295.484,556.32
123.708,-272.06,356.972
142.74,-297.68,181.292
239.852,-332.572,30.256
247.66,-342.82,-75.152
271.328,-341.6,-165.676
326.716,-360.876,-282.796
375.272,-414.068,-343.308
515.084,-442.86,-379.176
569.008,-485.072,-379.908
687.104,-553.88,-431.636
882.304,-605.12,-499.956
1058.472,-582.916,-605.608
1119.96,-536.8,-656.36
1144.36,-547.78,-606.34
1292.956,-614.392,-568.764
1451.312,-705.892,-538.752
1605.764,-758.84,-516.792
1815.848,-800.076,-519.72
1998.604,-853.756,-524.112
2136.464,-935.984,-452.864
2175.016,-977.708,-376.98
2001.044,-998.448,-232.776
1683.356,-988.2,-89.06
1411.784,-946.72,-24.888
1196.332,-892.308,-12.688
991.86,-860.832,35.624
794.22,-847.168,130.54
612.684,-853.756,218.624
490.196,-838.14,259.372
474.824,-806.908,307.196
393.572,-773.724,386.496
292.068,-757.132,489.952
225.7,-752.008,593.896
136.152,-684.908,698.572
68.32,-597.556,751.032
-22.692,-516.548,813.74
27.084,-518.256,923.296
152.744,-601.216,1053.592
208.132,-643.672,1093.608
267.668,-609.024,1104.344
345.016,-590.236,1114.592
554.612,-634.156,1143.384
745.664,-718.58,1268.556
814.96,-771.284,1283.196
914.024,-752.252,1192.428
981.612,-781.776,1116.788
1038.22,-856.44,1103.856
1139.968,-992.836,1089.46
1159.488,-1079.944,1023.58
1276.12,-1074.576,872.3
1366.888,-1108.004,749.568
1423.984,-1178.52,650.748
1393.728,-1225.368,561.444
1411.54,-1240.984,367.22
1354.444,-1285.148,169.824
1176.08,-1263.676,-1.952
1186.816,-1218.536,-203.74
1274.656,-1116.3,-459.452
1216.34,-1051.152,-548.756
1038.708,-904.752,-589.748
960.872,-688.568,-753.716
924.272,-477.996,-879.62
812.52,-383.324,-884.256
666.852,-320.372,-742.004
631.96,-305.976,-552.66
542.9,-372.832,-390.4
518.988,-365.512,-260.836
630.984,-325.252,-172.996
747.616,-258.64,-109.556
824.232,-199.592,-34.892
895.236,-191.784,22.204
732.488,-240.34,111.996
842.776,-102.236,161.772
978.684,66.368,33.184
1045.54,161.284,-111.996
810.08,345.504,-253.76
589.992,650.26,-424.316
419.68,923.784,-514.108
600.728,1605.276,-250.344
329.4,1262.212,-467.504
135.42,952.82,-262.056
234.972,823.012,26.596
166.652,813.252,137.616
-32.696,807.396,119.56
-238.144,815.448,84.424
-345.748,891.088,14.396
-301.096,902.556,28.06
-223.26,901.824,34.404
-314.76,1088.24,-78.08
-288.652,1013.576,-20.984
-230.824,935.252,30.256
-213.256,1001.864,0.488
-205.448,1107.76,-59.78
-187.392,1046.516,-31.232
-110.532,991.128,30.744
-96.624,911.828,69.54
-131.516,909.144,41.48
-135.664,1033.096,-37.576
-125.66,1024.556,-39.04
-92.964,961.116,1.22
-95.404,938.668,18.788
-134.2,926.468,7.564
-161.528,1008.696,-39.284
-164.212,1030.168,-54.656
-135.664,1002.596,-25.864
-132.492,982.1,-3.904
-160.796,937.448,5.856
-175.924,927.688,0.0
-152.256,938.668,-6.832
-132.98,975.756,-18.788
-117.852,988.932,-24.4
-96.38,990.64,-15.616
-98.332,925.492,10.004
-109.556,951.112,-0.976
-122.488,997.716,-34.648
-104.92,983.808,-30.012
-94.916,986.492,-22.204
-116.632,972.34,-12.444
-136.884,933.3,-2.684
-146.644,990.64,-33.428
-166.164,1024.556,-61.732
-155.672,994.056,-47.824
-142.252,980.148,-33.672
-149.328,956.236,-27.328
-160.552,951.112,-31.964
-128.344,1019.188,-53.436
-177.632,971.608,-84.18
-144.448,999.424,-82.472
-128.1,1046.76,-76.128
-261.812,1030.9,-203.74
-325.496,1080.188,-238.388
-328.424,1116.788,-258.884
-345.992,1131.672,-286.212
-363.804,1075.064,-313.54
-315.248,1135.332,-322.812
-286.7,1165.588,-323.056
-288.652,1163.88,-337.696
-323.3,1155.828,-406.992
-310.856,1227.32,-446.032
-242.78,1208.044,-415.532
-171.044,1181.936,-379.42
-118.828,1237.08,-348.188
-115.656,1191.94,-377.468
-105.164,1144.116,-319.396
-37.088,1274.656,-345.748
69.784,1261.236,-285.724
153.232,1215.852,-215.452
220.82,1142.652,-167.14
231.8,1110.444,-123.708
252.052,1089.948,-112.728
250.832,1039.44,-109.556
229.116,1035.536,-54.412
190.808,1057.252,-15.86
197.64,1021.384,-14.884
261.08,1036.268,-41.236
286.212,1072.624,-41.236
234.484,1092.632,-59.048
177.388,967.948,8.052
168.116,941.84,112.484
190.564,904.996,108.092
119.56,896.456,64.904
5.368,889.136,48.312
9.76,886.208,57.096
44.896,796.416,129.32
-9.028,688.08,256.688
-74.664,678.076,259.616
-121.756,700.524,240.096
-137.372,714.92,232.532
-101.992,734.684,219.112
-116.388,653.432,258.64
-173.972,543.876,364.292
-194.468,519.964,365.268
-254.736,572.668,322.08
-255.712,562.908,287.92
-274.012,579.5,266.692
-300.852,632.692,193.736
-281.82,771.772,117.608
-273.768,855.464,54.9
-273.524,912.56,20.74
-322.08,920.124,-1.22
-330.132,957.212,-22.204
-330.376,978.684,-42.944
-354.044,979.66,-66.856
-335.5,987.956,-75.884
-289.384,980.148,-59.536
-263.276,976.976,-42.7
-253.028,977.708,-24.644
-254.004,956.968,-2.928
-272.304,942.328,-1.464
-264.496,968.924,-30.744
-255.224,980.148,-60.756
-272.548,983.32,-67.1
-309.88,967.46,-69.784
-283.04,973.804,-57.34
-266.692,968.436,-55.144
-257.664,962.58,-54.9
-252.784,961.36,-56.12
-282.796,922.076,-32.208
-254.98,922.32,-26.352
-270.108,913.78,-20.008
-222.284,944.768,-40.016
-220.576,975.756,-61.976
-257.908,966.484,-63.196
-275.72,960.14,-51.972
-256.444,957.944,-39.772
-272.548,956.724,-15.128
-298.412,956.236,-7.076
-262.3,1029.68,-3.904
-317.688,1054.812,-38.552
-396.256,990.64,-55.388
-618.296,729.072,-157.136
-885.476,773.48,-342.088
-459.696,599.508,-406.26
378.444,328.668,-104.188
417.728,-73.444,900.36
573.156,-525.088,900.116
1087.264,-368.684,428.464
1444.236,169.58,-101.26
1332.24,199.348,-106.14
1386.164,-270.596,469.7
1513.044,-596.336,922.076
1530.368,-439.688,933.056
1510.604,-172.996,825.696
1340.536,-111.508,1038.22
1034.072,-270.352,1442.772
857.416,-302.072,1596.736
839.604,-322.08,1596.004
774.456,-355.508,1557.94
624.152,-381.86,1499.868
517.524,-423.584,1424.96
510.204,-450.18,1210.24
432.612,-411.628,925.736
361.608,-348.432,631.716
279.624,-338.428,436.516
248.636,-371.612,264.496
280.356,-384.544,79.056
311.1,-354.288,-84.18
359.412,-294.996,-207.888
406.26,-194.224,-390.888
452.132,-151.036,-533.14
452.62,-177.388,-614.88
570.716,-235.216,-649.528
608.78,-281.82,-646.356
624.152,-348.432,-640.988
813.984,-415.532,-695.4
955.992,-427.244,-767.38
1070.916,-435.54,-794.464
1350.54,-538.752,-828.136
1561.112,-636.352,-817.4
1748.504,-658.556,-782.996
1922.476,-703.696,-743.712
2049.112,-795.928,-677.1
2136.708,-874.252,-623.908
2134.024,-986.004,-502.396
1887.584,-1031.388,-407.236
1565.26,-1037.244,-229.848
1241.716,-1018.212,-90.524
1001.132,-996.496,29.28
782.508,-974.78,126.88
447.252,-983.564,281.332
142.008,-890.112,387.96
71.004,-814.716,427.732
79.544,-846.924,535.092
94.916,-941.352,711.504
6.344,-944.036,853.512
-47.824,-855.952,885.964
-17.324,-777.872,880.108
101.504,-767.136,925.004
232.532,-832.04,1021.628
323.056,-835.944,1042.856
347.212,-782.752,1026.264
424.804,-766.404,1080.188
446.52,-765.428,1144.116
489.464,-793.732,1209.02
569.496,-811.544,1268.8
594.384,-854.0,1272.46
653.92,-906.704,1235.372
697.596,-948.916,1269.044
988.688,-1114.104,976.0
885.964,-1084.336,976.488
1056.276,-1200.968,809.592
1188.524,-1198.284,717.604
1152.168,-1287.832,519.476
1183.156,-1289.54,375.272
1319.064,-1240.496,268.156
1462.536,-1277.096,146.156
1196.82,-1293.688,-122.976
1392.752,-1111.176,-419.68
1562.332,-906.948,-290.36
1551.84,-839.36,-346.724
1483.52,-794.952,-406.992
1044.076,-784.704,-493.612
928.664,-636.352,-556.32
957.212,-418.704,-309.392
986.004,-336.476,-366.732
795.684,-383.324,-471.652
608.292,-326.716,-648.064
552.172,-182.024,-608.536
623.664,-223.992,-251.076
632.204,-214.476,-240.828
579.744,-263.032,-220.088
566.568,-136.396,-222.528
532.896,386.74,-524.844
579.256,749.08,-89.792
454.816,1087.02,-42.7
272.06,1087.996,-70.028
59.78,823.012,-103.7
-55.144,905.728,37.088
-181.048,898.652,51.24
-253.272,906.46,-2.196
-265.96,964.288,-14.152
-244.488,1001.132,32.696
-231.8,1004.548,25.62
-204.472,1048.956,5.368
-208.62,1030.9,-7.808
-204.96,1045.54,-28.304
-190.564,1049.2,-29.524
-121.024,1030.9,-16.836
-73.2,983.808,10.98
-75.152,960.628,-9.028
-89.06,991.372,-27.572
-99.064,969.168,-31.232
-43.676,926.224,-26.596
-1.952,1000.888,-28.304
-43.188,973.56,-20.984
-73.688,970.388,-32.452
-71.492,929.64,-31.476
-33.184,960.384,-9.76
-2.196,1002.84,-1.708
-23.912,1003.084,-27.816
-29.28,1007.964,-45.384
-27.572,994.788,-43.432
-22.204,955.504,-22.692
-18.056,944.28,-25.132
-27.816,1017.724,-43.432
-20.252,1043.832,-45.384
-15.372,1014.308,-30.988
20.252,977.952,-14.152
10.492,980.392,-10.492
-15.128,962.092,-21.716
-10.248,1020.896,-47.58
-7.564,1050.42,-60.756
15.128,1017.236,-49.776
3.416,957.944,-21.228
-2.44,941.352,-21.472
-23.424,986.004,-35.868
-16.592,1018.944,-50.752
-5.612,1005.28,-39.772
1.708,962.092,-17.08
3.66,950.38,-17.568
-3.904,984.052,-30.988
-6.588,1013.576,-44.896
-1.22,1025.044,-46.116
4.636,1012.844,-40.504
3.172,978.928,-28.792
-2.684,994.056,-45.628
10.004,1008.452,-56.852
4.88,979.66,-68.076
-20.984,955.748,-98.576
-36.6,985.028,-157.38
-46.116,983.32,-211.06
-45.14,1009.184,-254.004
-36.6,1094.584,-297.924
-78.812,1123.132,-323.056
-139.08,1105.564,-355.508
-182.756,1052.372,-383.812
-199.348,1092.632,-418.704
-207.4,1185.352,-450.912
-220.088,1260.504,-450.424
-200.324,1243.912,-424.56
-186.66,1205.116,-395.036
-166.408,1257.82,-413.58
-152.256,1333.948,-446.276
-133.224,1318.576,-429.196
-77.592,1281.244,-392.108
-45.872,1226.588,-330.132
-2.684,1186.084,-285.724
60.512,1175.104,-265.228
90.524,1131.672,-201.056
96.38,1076.284,-150.304
114.436,1038.464,-122.488
136.64,1029.924,-103.212
132.492,1034.56,-74.664
128.588,1034.804,-78.812
86.132,1039.928,-10.736
93.452,1010.404,7.808
102.48,999.18,51.728
91.988,1009.428,83.692
63.196,985.516,91.5
24.888,968.192,71.248
7.076,975.512,102.724
28.792,934.276,113.948
39.04,895.968,121.268
46.116,839.604,139.08
51.24,764.452,187.392
5.368,706.624,203.74
-34.404,714.92,173.24
-60.268,729.316,174.216
-101.016,733.464,165.432
-155.916,719.8,148.596
-212.524,686.616,152.744
-218.624,648.552,182.024
-229.848,635.864,208.132
-277.428,654.652,219.6
-293.044,707.356,213.744
-304.756,735.904,211.304
-319.396,751.032,203.74
-313.296,785.192,211.548
-333.06,793.732,201.056
-330.62,811.544,181.048
-297.436,895.236,141.276
-296.46,913.78,117.608
-294.508,914.268,112.728
-259.616,954.772,106.14
-252.052,949.648,120.048
-265.228,930.616,124.684
-286.944,931.592,99.308
-324.276,937.204,68.32
-332.816,936.96,55.632
-326.716,937.936,49.288
-322.568,938.18,32.696
-303.292,966.972,29.768
-288.408,966.972,27.816
-294.02,973.56,19.276
-284.016,970.632,14.152
-302.804,961.116,9.516
-313.052,965.02,6.344
-281.332,969.412,29.524
-255.712,960.384,63.44
-237.412,929.64,108.824
-272.792,904.264,65.636
-272.792,945.5,10.98
-205.204,933.544,19.52
-52.948,963.8,17.812
2.44,842.288,57.34
-38.308,749.08,73.688
73.932,772.748,-72.468
-25.132,436.272,-25.376
7.32,196.908,-150.792
538.996,-11.956,63.196
984.296,379.176,1057.984
697.596,-234.484,581.696
554.124,-332.816,214.476
998.692,-340.624,265.228
1336.632,-213.256,80.276
1354.932,-414.556,221.064
1286.856,-611.22,511.18
1568.92,-699.304,521.672
1882.216,-683.688,561.932
1822.436,-642.94,636.108
1610.644,-666.364,818.864
1376.16,-638.304,1006.988
1171.688,-637.084,1147.044
1001.132,-680.516,1274.656
787.876,-650.504,1300.52
638.548,-608.536,1270.02
545.584,-550.464,1168.76
487.512,-480.192,1037.488
466.528,-447.984,884.012
396.744,-453.108,750.3
370.148,-442.86,601.948
250.1,-334.28,395.036
188.124,-236.192,209.108
154.208,-175.436,47.58
153.964,-150.06,-38.796
186.416,-179.34,-109.068
224.236,-216.916,-198.128
325.74,-238.144,-280.112
436.76,-248.88,-346.968
504.836,-297.192,-366.732
573.888,-341.844,-372.832
672.22,-359.9,-424.56
785.68,-344.528,-514.352
913.536,-352.336,-541.924
1012.844,-377.224,-575.596
1033.828,-435.052,-569.496
1049.2,-511.18,-557.54
1189.988,-601.948,-526.796
1345.904,-668.316,-563.396
1513.776,-771.772,-550.708
1687.748,-833.748,-547.78
1888.316,-893.528,-539.484
2024.956,-950.868,-526.552
2075.952,-955.016,-521.916
1941.02,-953.796,-435.54
1752.896,-940.62,-308.416
1542.08,-933.056,-221.796
1380.796,-936.96,-162.504
1185.108,-941.352,-106.628
925.004,-941.108,-17.812
737.856,-895.724,-12.688
504.104,-889.38,67.1
269.62,-870.104,160.796
45.628,-815.936,263.276
-119.56,-763.72,355.02
-228.872,-725.656,448.96
-246.196,-694.18,528.992
-193.248,-704.428,590.48
-197.884,-762.012,715.164
-109.068,-780.556,749.324
70.516,-761.768,717.604
194.468,-842.532,815.936
311.344,-941.352,956.48
429.928,-1040.416,1085.312
526.308,-1068.232,1158.024
562.176,-1110.2,1228.54
596.336,-1135.332,1212.68
673.44,-1139.724,1183.888
695.888,-1151.436,1119.228
774.456,-1165.588,1029.192
764.94,-1173.152,948.428
872.788,-1199.016,871.812
1058.96,-1214.632,710.772
1139.236,-1197.552,554.368
1256.6,-1194.136,413.58
1374.94,-1184.132,306.708
1286.856,-1187.792,120.048
1329.556,-1107.272,-53.436
1609.668,-1036.024,-159.332
1632.116,-941.84,-357.46
1529.148,-872.788,-437.004
1284.172,-844.728,-481.656
1172.176,-792.512,-534.848
1067.5,-635.864,-492.148
952.332,-438.712,-541.192
806.664,-249.368,-591.944
609.024,-140.788,-556.32
547.78,-70.272,-505.812
510.936,-69.052,-424.56
475.312,-126.636,-283.284
556.564,-138.592,-127.612
624.884,-130.784,-20.008
572.18,-134.688,116.388
620.736,-106.14,235.704
648.308,54.9,186.904
703.94,317.444,13.176
713.944,387.96,-266.448
798.612,1037.0,-115.168
370.636,1017.724,-314.76
309.636,1086.776,-114.436
19.764,924.76,47.824
-5.124,1027.972,-34.404
-44.164,1005.524,-10.98
91.256,1243.668,-54.168
-36.6,1243.668,-74.42
-120.292,1096.292,-102.236
-126.636,1090.436,-58.072
-111.508,1035.536,-84.18
-122.0,889.624,-42.7
-133.468,1061.156,-76.616
-178.364,993.08,-72.224
-188.124,933.3,-62.464
-158.6,937.936,-72.956
-132.248,941.352,-73.2
-145.668,965.996,-90.524
-146.4,962.336,-70.028
-164.7,895.968,-43.676
-167.14,851.804,-38.308
-143.228,930.372,-73.444
-104.188,1023.824,-100.528
-89.06,954.528,-46.36
-116.144,914.756,-10.248
-103.456,927.444,-14.64
-77.592,1000.644,-22.936
-72.468,1007.72,-44.896
-76.128,1007.72,-44.408
-85.156,1004.06,-28.792
-64.904,1004.304,-13.42
-97.112,982.588,-20.74
-122.488,973.804,-47.58
-89.304,994.788,-47.58
-57.584,984.784,-26.352
-58.072,965.996,-11.224
-61.488,982.344,-32.696
-76.128,1009.184,-52.46
-85.156,974.292,-45.872
-30.256,998.692,-28.304
-1.22,1013.82,-13.42
-31.476,985.028,-13.42
-58.56,965.02,-13.42
-76.372,957.456,-20.008
-55.388,1025.532,-31.72
-42.944,1015.772,-20.74
-40.748,1007.476,-6.588
-59.292,1005.524,-5.368
-65.88,1004.792,-10.492
-40.26,1002.596,-3.66
-31.72,1016.016,-1.708
-28.06,995.276,7.808
-50.02,972.584,0.732
-54.9,970.632,-10.736
-38.796,982.344,-19.276
-14.152,1002.108,-22.692
-11.224,997.228,-28.304
-47.58,984.54,-51.972
-84.912,1004.792,-88.572
-107.116,1035.292,-118.34
-150.548,1038.22,-156.892
-166.652,1109.712,-198.86
-189.344,1140.944,-236.68
-229.116,1164.856,-278.648
-236.924,1186.084,-294.996
-197.152,1178.032,-282.064
-159.576,1163.636,-252.54
-150.548,1150.704,-214.72
-139.324,1222.196,-234.24
-125.904,1298.812,-277.916
-117.364,1362.74,-296.216
-84.18,1365.18,-288.164
-64.416,1327.848,-268.888
-37.332,1216.34,-197.152
70.028,1234.152,-112.484
129.564,1248.792,-61.732
117.608,1166.808,-37.332
91.744,1089.948,-18.544
45.872,1053.104,-23.668
4.392,997.716,-10.004
9.272,998.204,-10.98
50.02,1035.048,-8.052
65.392,998.692,15.128
61.0,971.12,9.028
16.836,941.108,-7.32
-13.908,920.612,-1.708
-32.452,899.872,23.912
-51.972,873.032,24.888
-72.712,880.84,23.424
-90.036,864.004,29.28
-101.992,849.608,20.984
-111.508,885.232,12.932
-178.608,854.732,51.728
-225.7,794.708,132.736
-274.012,760.06,182.024
-267.18,807.884,174.216
-216.428,906.46,141.276
-184.952,804.468,196.908
-106.872,662.948,288.164
3.416,645.136,355.264
45.628,687.348,358.68
18.3,636.352,378.444
-40.748,513.62,421.388
-134.2,481.9,412.604
-224.724,579.744,339.16
-285.968,718.336,240.828
-335.988,823.744,173.484
-390.156,874.74,130.784
-415.532,884.988,127.856
-431.148,891.332,105.408
-413.824,963.068,80.52
-380.152,975.756,83.204
-349.896,965.996,112.484
-338.672,937.204,122.732
-344.772,915.732,118.828
-358.68,937.204,96.624
-347.212,946.232,110.288
-336.476,911.34,125.66
-340.868,896.944,124.684
-336.964,890.356,123.952
-324.032,865.956,144.448
-335.988,813.984,160.308
-426.756,836.188,-88.816
-290.848,901.58,-242.048
-62.708,927.444,-352.58
-179.584,657.336,-416.02
-529.48,-216.184,3.172
283.04,26.596,593.896
906.704,806.664,1367.62
1128.5,117.608,694.668
1428.376,251.564,437.736
1689.944,164.7,642.696
1721.176,31.476,937.204
1785.836,-68.076,1121.668
1500.844,-62.22,1177.056
1356.884,-101.992,1304.668
1241.472,-125.904,1332.484
1107.272,-160.796,1325.164
1021.14,-243.756,1290.516
874.984,-279.624,1222.684
730.536,-331.596,1154.364
594.384,-368.44,1016.26
465.308,-364.292,860.588
300.608,-349.652,661.728
155.184,-328.668,410.896
102.48,-269.132,228.628
38.552,-190.808,43.188
84.424,-179.584,-75.884
181.536,-161.528,-203.008
201.788,-115.656,-300.608
213.256,-25.132,-399.428
303.048,-20.008,-474.336
463.6,-36.6,-533.872
665.876,-34.648,-573.4
765.672,-27.084,-594.14
833.504,-28.792,-644.16
1064.084,-65.392,-707.844
1405.44,-101.016,-727.12
1546.228,-115.656,-707.112
1593.564,-185.928,-622.688
1659.2,-299.144,-498.004
1843.664,-474.336,-356.728
2043.256,-617.564,-224.968
2161.84,-716.14,-123.952
2270.908,-742.004,-58.804
2286.524,-764.696,10.736
2145.98,-791.048,70.516
1883.924,-827.16,112.484
1542.08,-843.996,127.368
1200.968,-850.584,191.54
839.36,-833.016,212.768
548.268,-787.632,221.308
247.172,-692.716,227.408
125.172,-616.344,262.3
58.804,-661.24,311.588
-21.472,-683.688,366.0
-72.712,-667.584,434.564
-72.224,-588.284,468.48
-112.728,-555.1,547.292
-116.876,-641.476,736.148
-214.964,-784.948,946.476
-251.808,-805.688,1118.496
-199.348,-834.48,1310.036
-60.756,-962.58,1482.788
86.864,-1176.812,1698.728
331.352,-1266.116,1783.884
536.068,-1205.116,1675.548
684.42,-1085.556,1560.868
929.64,-1045.54,1461.56
1170.224,-1038.464,1310.524
1258.796,-1011.38,1136.796
1248.06,-990.396,1045.052
1250.744,-1049.444,973.56
1260.016,-1115.08,850.828
1310.768,-1092.388,680.76
1386.164,-1013.576,485.804
1407.148,-959.896,334.524
1338.828,-952.82,226.432
1513.532,-1000.644,139.08
1551.596,-883.036,-49.776
1411.052,-778.116,-147.864
1246.108,-673.44,-247.66
1159.0,-569.496,-329.888
1008.208,-452.62,-440.176
855.22,-283.772,-518.256
746.884,-175.68,-511.912
711.748,-112.24,-484.584
707.844,-29.524,-384.3
635.864,-67.832,-237.412
647.576,61.0,68.32
586.82,-66.612,258.884
357.704,-406.016,167.14
607.072,616.344,29.036
827.404,891.576,-412.116
340.136,824.476,-426.756
62.464,1093.12,-204.472
-89.06,940.864,-150.548
-357.216,872.544,-227.164
-303.292,1010.892,-181.048
-268.4,920.856,-79.788
-413.092,884.256,-118.096
-448.716,855.952,-120.78
-314.028,958.92,-61.0
-242.536,989.42,-19.032
-270.108,1010.648,-63.44
-294.508,1013.576,-93.696
-307.684,951.844,-122.244
-238.388,980.636,-110.044
-231.312,1002.84,-98.088
-248.636,938.668,-127.612
-234.972,910.12,-117.12
-211.792,1015.284,-119.072
-211.06,954.772,-91.256
-214.476,908.9,-76.128
-204.716,925.98,-90.036
-190.076,986.492,-111.752
-193.492,1043.1,-124.684
-182.268,963.312,-82.716
-165.188,937.204,-50.752
-173.728,965.752,-88.084
-210.328,986.736,-120.78
-187.88,949.404,-93.696
-164.456,971.608,-83.204
-173.24,968.436,-84.18
-169.092,948.184,-77.348
-145.18,978.44,-74.664
-152.5,1014.552,-93.696
-141.764,993.324,-75.64
-148.84,943.548,-54.168
-149.816,951.6,-63.44
-176.412,987.224,-94.672
-173.24,980.148,-97.844
-146.888,958.188,-75.884
-129.808,972.096,-80.276
-94.916,1009.184,-65.88
-143.716,992.592,-78.08
-148.596,957.212,-63.928
-130.296,981.856,-47.336
-142.008,928.176,-45.14
-123.22,974.292,-57.584
-117.364,995.52,-66.368
-133.956,969.656,-59.78
-103.456,950.624,-39.772
-112.24,962.336,-50.264
-104.432,964.288,-56.364
-119.072,1000.4,-82.96
-125.172,998.936,-92.476
-128.1,1014.552,-109.312
-136.152,1014.308,-124.928
-155.428,1014.064,-157.136
-179.584,1045.052,-206.424
-241.316,1038.464,-252.296
-268.4,1049.444,-285.48
-249.368,1061.644,-291.824
-233.02,1064.816,-314.516
-220.82,1085.8,-334.524
-204.716,1113.128,-329.888
-213.744,1078.724,-305.488
-184.464,1080.432,-286.456
-146.156,1079.212,-267.18
-115.168,1061.156,-232.288
-89.792,1040.172,-206.424
-83.692,1059.936,-211.548
-78.08,1078.48,-217.648
-77.104,1077.504,-221.552
-76.616,1063.596,-197.152
-47.824,1067.5,-162.016
-15.616,1081.652,-141.276
-15.616,1086.044,-128.588
-59.292,1067.988,-131.76
-65.88,1078.236,-146.888
-73.932,1150.46,-174.46
-94.428,1198.04,-190.076
-100.528,1222.928,-191.54
-124.44,1244.644,-211.548
-116.632,1232.2,-182.512
-85.644,1180.472,-124.684
-56.364,1149.972,-87.108
-19.764,1117.52,-28.06
-5.368,1100.44,1.952
17.324,1065.06,55.144
36.112,1037.976,94.184
37.088,970.876,147.376
56.12,907.436,201.056
45.628,798.368,252.784
-23.18,702.232,283.772
-55.144,635.62,310.124
-74.908,615.368,305.488
-84.18,565.836,316.468
-95.648,557.052,298.656
-111.996,589.504,274.256
-132.98,637.328,242.048
-183.244,660.02,234.24
-221.064,712.236,226.676
-258.152,731.024,213.988
-277.672,772.26,213.256
-308.66,802.76,199.104
-319.884,819.108,183.732
-341.112,849.12,168.604
-365.268,865.956,153.72
-363.804,884.012,167.384
-376.492,888.16,160.064
-382.592,910.608,140.3
-373.076,942.572,115.168
-358.192,947.452,114.924
-341.844,921.1,130.54
-333.548,913.78,122.732
-310.612,904.508,142.74
-283.528,907.924,149.816
-262.544,883.768,159.82
-272.548,888.892,138.836
-284.504,886.94,121.512
-314.516,909.388,82.96
-338.916,868.396,91.012
-342.088,867.176,81.74
-335.012,864.492,84.18
-334.768,861.076,76.616
-321.836,843.996,87.84
-299.876,825.208,108.336
-290.36,800.32,111.996
-260.836,782.02,129.808
-229.36,793.0,131.516
-212.768,770.796,148.596
-227.408,726.388,168.36
-230.58,710.772,174.948
-226.188,709.552,163.724
-201.056,713.456,158.112
-157.136,706.624,167.872
-106.14,711.748,180.072
-53.192,745.908,177.144
-18.3,737.612,161.528
-5.368,684.908,164.944
5.612,629.52,156.16
11.956,601.46,142.984
15.86,576.328,133.712
10.248,554.368,104.92
-0.244,519.232,86.864
30.988,541.436,65.88
106.14,608.78,39.772
203.496,747.86,4.636
219.112,826.916,-38.552
161.772,784.704,-26.108
154.452,795.684,-52.46
177.632,890.844,-91.988
219.844,988.688,-127.612
270.84,1130.696,-148.596
281.332,1149.24,-120.292
292.8,1098.488,-78.08
369.66,1140.212,-50.508
422.852,1213.168,-35.868
377.224,1277.096,-66.124
262.788,1220.244,-100.772
210.816,1209.996,-120.536
212.524,1202.92,-115.656
218.624,1174.86,-92.72
232.776,1157.292,-80.764
276.452,1127.036,-69.784
312.076,1071.648,-41.48
313.784,1016.016,-41.48
354.776,1022.848,-82.716
393.328,1038.464,-97.356
396.012,1047.004,-100.04
398.452,1010.648,-105.408
409.676,998.204,-114.924
418.216,1005.036,-131.028
446.276,1030.168,-108.336
486.78,1124.352,-58.56
510.448,1223.416,-44.164
490.928,1261.48,-26.352
486.536,1269.776,18.788
528.26,1383.48,58.072
558.028,1469.368,89.304
534.848,1443.26,120.78
526.308,1326.628,149.572
530.212,1254.404,156.404
518.012,1236.104,131.516
496.296,1224.148,91.012
441.396,1118.252,53.192
364.048,964.776,22.448
302.56,908.9,2.196
308.172,962.824,-19.52
277.672,928.176,10.248
245.952,811.3,46.604
276.94,645.624,152.5
318.42,473.604,19.52
386.252,369.416,-18.3
478.972,245.22,-7.32
567.544,322.812,-2.684
642.94,335.5,-34.404
806.908,334.28,-50.02
1090.68,308.904,-130.784
1220.244,283.528,-214.964
996.008,95.892,-239.364
856.684,-150.06,-37.332
965.996,-227.164,248.636
1012.6,-179.34,511.668
895.236,29.036,703.208
910.608,22.448,365.268
1021.384,-44.408,207.4
1018.7,-109.312,301.34
981.124,-154.696,427.732
958.188,-182.268,421.632
1000.888,-161.772,348.676
1049.2,-223.26,357.216
1051.396,-349.164,436.272
1041.148,-440.908,459.696
1101.66,-341.6,301.096
1154.364,-396.5,116.876
1167.296,-566.568,147.132
1161.44,-654.408,236.436
1107.028,-629.276,286.7
1024.068,-593.896,295.484
940.376,-574.864,314.028
890.844,-528.016,337.452
910.608,-509.228,326.716
968.68,-489.464,300.852
967.948,-469.212,300.608
915.244,-427.244,300.608
861.564,-383.324,273.28
819.352,-331.352,248.148
802.516,-303.536,164.944
791.536,-278.16,148.596
808.616,-262.3,112.24
792.268,-284.26,89.548
959.408,-244.976,157.38
