acc_x[mg],acc_y[mg],acc_z[mg]
6.1,985.76,-50.508
5.124,1004.548,-63.196
-5.368,1000.644,-72.468
-19.032,999.424,-76.128
-29.768,991.128,-66.368
-30.5,989.42,-58.804
-28.792,992.104,-63.928
-13.908,993.08,-75.152
-11.224,1006.988,-87.108
-17.324,993.568,-77.592
-13.176,993.08,-80.52
-13.908,984.54,-70.76
-18.056,988.932,-67.832
-20.74,987.956,-72.468
-28.06,998.936,-80.032
-30.5,992.348,-78.812
-19.764,988.2,-85.4
-14.396,987.468,-84.912
-19.276,985.272,-75.396
-22.448,985.516,-77.348
-25.132,987.956,-80.032
-31.964,983.808,-72.712
-38.064,976.488,-65.88
-36.112,977.22,-68.564
-31.232,976.488,-71.736
-39.528,983.808,-60.756
-28.304,986.492,-69.296
-26.84,986.248,-71.004
-30.5,991.616,-66.124
-38.308,987.956,-59.292
-27.084,986.004,-62.952
-25.132,982.1,-63.44
-27.328,977.464,-62.22
-30.012,972.34,-63.928
-29.036,965.752,-63.44
-37.82,966.972,-61.488
-42.212,978.44,-73.688
-42.944,976.0,-75.884
-38.552,983.808,-76.372
-22.448,990.64,-76.372
-13.42,991.372,-62.464
-8.784,998.448,-53.924
-6.832,997.716,-61.976
-13.42,1000.4,-73.444
-22.448,995.276,-67.1
-28.548,994.544,-54.168
-25.132,986.492,-53.68
-20.74,992.104,-63.196
-21.96,986.736,-66.368
-26.352,995.276,-74.42
-37.332,990.152,-68.808
-31.476,991.616,-68.32
-24.888,994.788,-71.004
-30.012,992.592,-72.712
-27.328,991.372,-75.64
-23.668,991.372,-67.832
-16.836,983.076,-56.608
-10.98,982.1,-63.44
-14.884,986.248,-72.712
-27.816,987.468,-72.712
-41.236,985.028,-70.272
-36.6,992.348,-76.372
-25.864,988.444,-73.444
-20.496,990.884,-77.348
-18.788,990.396,-81.496
-34.892,990.64,-70.272
-28.548,981.368,-58.316
-15.128,984.052,-61.0
-14.396,985.76,-66.368
-21.716,987.712,-72.956
-36.844,986.736,-77.836
-51.972,974.78,-64.904
-43.188,978.196,-61.976
-33.916,987.956,-67.588
-22.204,981.124,-72.224
-20.74,981.368,-64.416
-26.596,980.392,-55.632
-22.692,978.44,-59.78
-27.816,985.76,-65.148
-31.476,983.808,-69.784
-27.328,989.176,-84.424
-42.212,989.42,-79.056
-40.016,990.64,-80.032
-35.38,987.956,-76.616
-33.184,983.808,-66.368
-27.328,984.54,-63.196
-29.036,986.98,-52.704
-21.228,985.76,-55.876
-21.716,992.592,-63.44
-32.208,995.276,-62.464
-20.252,987.712,-68.808
-28.304,986.004,-61.0
-27.572,989.42,-68.076
-32.696,992.836,-74.664
-39.284,995.764,-75.152
-40.504,987.468,-72.956
-36.356,985.516,-68.32
-25.864,988.2,-69.052
-17.812,989.42,-69.296
-14.152,990.396,-65.88
-15.616,980.88,-60.512
-24.644,982.832,-62.22
-37.332,981.124,-67.588
-48.312,985.516,-66.856
-42.944,992.348,-76.372
-32.452,985.76,-76.86
-22.204,983.564,-68.32
-15.86,980.88,-57.828
-27.328,976.488,-47.58
-33.184,978.684,-44.652
-36.844,972.34,-39.528
-32.208,980.148,-50.264
-21.716,988.932,-68.32
-18.788,998.936,-72.224
-22.692,996.496,-71.98
-25.132,999.18,-78.812
-29.768,995.764,-74.664
-27.084,987.712,-59.292
-21.96,985.028,-49.288
-20.984,986.004,-55.388
-28.792,982.588,-61.732
-37.576,982.344,-60.268
-41.968,984.784,-57.096
-30.744,985.516,-63.44
-20.74,993.324,-69.052
-18.544,995.276,-66.856
-19.764,1000.644,-72.712
-25.132,995.032,-79.056
-31.72,989.664,-75.64
-38.308,983.564,-64.904
-37.82,982.832,-60.268
-31.232,990.884,-69.296
-30.744,982.832,-66.856
-32.696,981.368,-57.584
-31.72,981.124,-59.048
-30.256,982.1,-62.464
-33.428,986.004,-63.928
-27.084,982.588,-61.976
-27.328,982.588,-56.364
-17.568,985.028,-65.88
-33.184,982.1,-57.828
-36.112,988.444,-59.78
-32.696,986.004,-62.464
-24.888,981.124,-69.052
-26.84,980.636,-68.076
-37.82,979.66,-60.268
-41.236,983.564,-56.608
-32.208,983.076,-64.904
-27.816,987.956,-68.076
-23.668,997.716,-70.76
-22.936,996.74,-74.908
-23.424,990.64,-72.468
-28.06,991.86,-72.956
-30.744,1000.644,-80.276
-26.108,990.884,-77.104
-23.668,984.784,-59.536
-22.204,983.32,-54.168
-21.716,984.784,-62.22
-26.596,981.612,-58.316
-22.448,977.952,-62.952
-25.132,977.708,-69.052
-33.916,979.904,-67.1
-39.772,979.416,-61.732
-36.112,982.344,-61.488
-21.96,991.372,-74.908
-17.812,992.836,-77.348
-16.836,990.64,-72.468
-24.156,994.3,-70.516
-31.964,997.228,-78.08
-28.304,990.884,-79.056
-27.084,983.076,-59.292
-18.056,983.32,-53.68
-8.052,991.128,-63.928
-18.544,989.908,-53.924
-21.472,985.028,-43.432
-15.128,990.396,-51.972
-15.86,995.276,-69.296
-20.496,993.812,-66.856
-18.3,991.616,-55.388
-9.516,992.348,-56.12
-13.664,995.52,-59.78
-17.324,996.74,-59.78
-20.252,993.812,-62.22
-19.52,995.764,-72.468
-25.62,992.836,-69.052
-26.596,990.152,-61.732
-27.816,988.688,-58.56
-28.304,989.664,-53.68
-28.06,990.64,-54.9
-33.916,1002.108,-69.296
-39.04,1006.256,-61.244
-59.78,1010.16,-57.828
-102.48,1028.46,-81.496
-50.752,1045.296,-98.82
-105.652,1035.78,-60.024
-173.728,1036.756,-57.34
-255.468,1054.324,-86.62
-188.856,1047.98,-150.792
-165.92,1019.432,-152.988
-59.78,985.028,-128.832
46.36,917.684,-65.148
9.76,814.716,73.444
318.664,744.444,-4.392
701.256,710.528,-113.216
705.648,608.536,40.26
702.964,601.216,113.216
959.652,501.42,213.988
998.936,431.148,77.348
1142.164,427.0,-160.552
1154.364,406.26,-60.756
1095.072,458.476,1.464
1048.224,405.284,26.352
1018.212,402.112,17.812
1007.232,351.116,17.324
974.048,303.536,68.32
885.476,245.22,160.796
918.904,236.436,162.26
972.096,245.464,79.544
1021.628,225.212,-5.856
934.764,223.748,47.092
944.036,195.688,33.916
963.8,225.944,1.464
931.592,206.18,14.152
931.836,194.956,21.96
922.808,182.756,35.136
892.308,209.596,57.34
843.264,136.396,69.54
828.624,149.816,84.668
810.812,148.84,74.42
818.376,143.96,76.372
824.232,174.704,23.912
800.808,182.024,-6.1
829.356,172.02,-15.128
820.816,159.332,-2.928
812.276,143.716,14.396
903.776,152.012,-45.628
844.484,127.612,-55.388
832.528,95.404,-6.344
836.188,81.252,-0.976
844.728,77.348,0.732
773.236,114.924,-36.844
767.624,99.796,-17.568
826.184,40.016,-16.348
843.264,15.86,12.932
841.556,21.472,14.884
829.6,-1.464,-1.464
895.48,-60.756,-0.732
889.868,-67.832,20.496
908.412,-55.632,6.1
965.508,-99.796,30.744
1052.372,-143.472,-1.952
1117.276,-178.608,-8.54
1075.308,-197.396,40.748
1153.632,-241.804,59.78
1216.828,-279.624,60.512
1261.968,-287.92,56.852
1225.124,-299.144,54.656
1239.276,-316.712,78.324
1253.916,-325.74,63.928
1283.196,-338.428,74.664
1293.2,-362.34,87.352
1302.228,-371.856,86.376
1300.032,-358.924,74.908
1285.636,-355.02,59.78
1261.236,-366.244,84.18
1240.984,-374.052,86.376
1244.156,-357.216,86.62
1281.488,-350.628,121.268
1429.108,-346.968,182.268
1240.74,-373.564,250.344
1106.296,-327.448,189.588
1105.564,-269.132,165.432
1036.024,-178.12,132.248
1181.936,-127.856,-7.808
1315.892,-35.624,-128.1
1320.284,98.088,-193.004
1161.44,-45.14,84.424
1118.252,-27.816,288.652
980.636,91.744,330.132
940.62,173.728,110.776
596.092,291.336,69.784
422.364,513.62,102.724
577.06,568.276,-49.288
658.312,714.676,-177.144
500.932,793.732,-214.232
364.78,992.592,-290.36
289.628,965.996,-218.136
446.764,825.208,-161.04
190.32,851.316,-128.588
-160.064,1010.404,-205.448
-212.768,980.392,-248.392
-138.348,908.656,-214.964
-158.112,777.628,-73.688
-61.488,872.788,-77.348
-102.724,955.016,-116.632
-94.916,971.608,-104.92
-56.12,956.48,-66.612
50.752,911.096,-22.692
109.068,933.788,-16.592
72.712,993.568,-34.404
29.28,1017.236,-52.46
15.86,999.424,-52.704
70.272,975.268,-44.164
94.916,1012.112,-100.528
54.656,1044.808,-150.304
14.64,1040.904,-154.94
61.732,1016.016,-156.16
99.796,1022.116,-182.512
75.64,1025.044,-149.084
86.864,1001.132,-109.068
72.468,970.388,-52.704
98.332,950.136,-34.892
79.056,956.48,-66.368
30.256,971.608,-78.568
64.416,973.56,-114.436
81.008,970.632,-120.78
79.788,979.66,-105.164
101.016,1005.036,-131.76
107.116,999.18,-134.2
97.6,997.228,-120.78
74.176,996.496,-93.452
73.444,986.492,-90.524
58.56,966.484,-73.2
77.348,961.116,-81.74
101.26,964.044,-96.38
91.256,965.752,-91.988
74.908,979.66,-97.112
76.372,983.808,-103.212
84.424,989.176,-113.948
87.84,991.372,-121.512
97.844,991.86,-106.14
79.3,986.248,-79.544
68.564,986.248,-91.5
79.788,994.056,-114.192
92.72,994.788,-121.512
90.28,993.324,-106.14
93.696,986.492,-82.96
87.352,976.0,-60.756
85.156,970.388,-62.708
120.048,976.976,-102.724
97.356,985.76,-96.38
87.352,986.736,-96.38
67.1,986.736,-93.94
62.464,979.66,-91.988
72.712,981.856,-101.748
102.724,982.588,-111.02
96.868,981.124,-93.452
86.376,982.832,-95.16
72.468,992.836,-107.116
71.248,989.908,-115.412
88.816,981.124,-112.24
108.336,979.416,-90.768
83.448,980.392,-67.344
87.108,987.712,-84.668
85.156,998.448,-96.136
74.42,1009.916,-105.652
85.156,1020.408,-130.784
93.94,1021.14,-126.392
82.716,1016.26,-99.552
88.572,1009.916,-88.816
90.768,1012.6,-99.064
77.836,1026.508,-111.508
72.468,1029.192,-106.872
74.176,1026.752,-99.796
67.832,1030.9,-106.14
69.296,1036.268,-111.996
59.78,1039.196,-98.332
63.44,1040.66,-93.452
100.284,1049.444,-126.148
71.736,1049.932,-98.088
57.096,1048.956,-88.084
49.288,1055.056,-108.336
46.848,1057.74,-108.58
40.992,1049.2,-93.696
41.968,1053.104,-97.112
41.48,1069.208,-136.884
4.148,1089.704,-169.824
-30.5,1074.82,-116.388
36.6,1016.016,-55.388
84.18,1001.132,-40.016
75.152,1024.312,-49.044
91.012,1045.54,-85.156
84.424,1055.788,-100.04
88.328,1047.492,-72.956
113.704,1039.928,-60.512
124.684,1050.42,-73.688
74.664,1045.54,-52.46
55.876,1028.948,-30.988
56.364,1034.804,-32.94
63.928,1031.876,-44.164
71.492,1024.068,-52.46
45.872,1039.928,-67.344
4.88,1047.98,-82.228
10.736,1031.388,-81.74
62.952,996.74,-56.364
57.828,991.86,-27.572
38.308,989.42,-24.644
20.008,988.688,-46.36
-0.976,979.904,-50.996
28.06,951.6,-25.132
8.784,943.548,-14.152
-4.148,953.308,-68.808
-39.284,948.184,-113.46
-85.4,928.176,-112.484
-69.784,900.36,-106.628
-50.02,879.132,-101.992
-72.712,859.856,-69.052
-81.496,849.608,-69.784
-88.328,857.416,-86.132
-91.5,858.636,-90.28
-76.86,857.416,-84.424
-61.976,875.716,-114.192
-79.788,891.82,-110.288
-72.712,888.16,-96.868
-52.216,863.272,-42.944
-21.96,851.56,-7.564
-59.048,882.06,-19.52
-60.024,896.944,-56.364
-72.956,902.068,-68.32
-78.08,914.512,-84.18
-81.496,930.86,-90.036
-85.888,933.788,-68.076
-82.96,936.228,-47.824
-62.464,961.36,-65.392
-55.144,961.604,-64.172
-75.64,954.772,-37.088
-75.152,966.484,-57.828
-70.516,988.444,-104.188
-77.592,985.272,-90.036
-80.032,985.272,-70.76
-87.352,988.2,-72.712
-71.248,984.784,-72.712
-67.1,987.956,-63.196
-63.684,988.2,-58.072
-65.392,990.152,-69.052
-55.632,991.128,-81.496
-57.34,980.636,-50.996
-49.776,978.684,-32.452
-30.988,979.66,-30.988
-13.42,982.832,-40.26
-14.396,985.272,-39.04
-23.424,995.032,-37.332
-34.404,999.424,-35.868
-54.412,1000.4,-34.892
-52.216,1013.82,-65.636
-54.168,1008.696,-67.344
-54.168,992.592,-47.092
-42.212,984.784,-50.752
-56.12,983.32,-50.752
-71.248,989.176,-38.796
-65.88,987.224,-35.624
-54.412,991.86,-58.316
-57.828,986.492,-51.972
-64.66,985.76,-30.5
-47.336,997.472,-54.168
-56.364,1006.5,-70.272
-72.956,1004.792,-54.656
-81.252,1011.136,-54.412
-64.416,1034.316,-78.812
-106.384,1028.46,-43.676
-154.208,1047.248,-41.236
-191.54,1061.156,-60.268
-272.304,1059.692,-57.828
-172.264,1077.016,-112.728
-190.564,1057.74,-68.076
-148.108,1026.996,-62.708
-120.536,995.032,-38.552
-229.604,954.772,8.296
-32.696,772.016,18.056
386.984,544.608,35.624
715.408,443.104,-91.012
994.3,351.604,-199.348
1453.508,492.88,-257.176
1121.912,455.548,-40.26
1009.184,410.408,222.284
916.952,310.124,261.08
968.192,387.96,49.288
1204.628,433.344,-269.864
1140.456,396.256,-187.88
1036.268,339.892,-42.456
994.788,337.94,-50.996
907.192,345.26,-39.04
861.076,277.672,33.672
885.964,240.096,41.236
849.364,250.588,-31.232
880.596,294.752,-96.868
881.572,319.396,-140.544
791.048,264.496,-27.328
753.472,216.916,30.256
767.136,247.904,-45.384
826.184,247.66,-126.148
784.948,188.368,-34.16
697.108,163.236,50.508
739.564,177.876,17.812
667.828,183.244,-17.324
650.992,179.584,1.708
713.456,160.308,14.396
720.044,151.036,-26.108
612.684,132.248,-29.524
709.308,108.336,-26.108
726.388,102.236,-59.048
745.664,77.836,-40.016
651.236,22.448,10.736
770.064,-10.492,9.272
803.004,-22.448,-58.316
791.78,-30.012,-58.56
765.672,-68.32,-30.5
826.184,-119.316,-23.18
991.372,-127.124,-51.728
1079.456,-182.512,-85.4
1219.024,-221.308,-113.216
1293.932,-279.868,-79.544
1319.796,-320.128,5.612
1266.36,-333.06,39.528
1207.556,-370.88,111.264
1234.64,-391.132,73.932
1295.884,-378.688,30.012
1250.988,-374.296,73.932
1336.876,-344.528,-1.22
1404.708,-355.996,6.588
1413.248,-386.74,46.604
1448.872,-394.304,12.444
1421.788,-404.308,21.472
1304.912,-390.644,40.992
1224.88,-384.544,93.94
1185.596,-396.988,88.084
1151.192,-374.54,51.24
1071.892,-353.068,55.632
991.372,-341.356,78.324
989.664,-321.836,51.972
1021.872,-288.896,5.124
1058.96,-258.152,18.3
1110.932,-302.56,114.192
1085.556,-317.444,206.668
1155.096,-275.72,121.512
1046.76,-296.948,133.468
902.8,-203.496,115.656
996.74,-40.504,-90.28
1274.9,10.492,-263.764
1250.5,-33.916,-103.212
1243.18,-4.148,93.452
1165.1,-58.804,248.148
1100.928,18.788,187.392
880.352,128.588,140.3
847.656,202.032,117.12
756.156,255.956,67.832
706.868,477.264,18.544
768.112,604.144,-104.676
533.384,859.856,-188.612
457.256,839.36,-226.676
519.72,796.416,-210.084
374.052,949.648,-227.408
131.76,1067.012,-301.34
245.708,974.048,-246.928
407.968,827.648,-93.94
347.212,832.772,0.732
210.084,894.26,19.032
164.456,903.288,15.128
259.372,907.192,-30.5
329.888,930.616,-90.036
364.78,930.86,-109.8
275.476,964.532,-107.36
223.992,1003.572,-113.704
264.252,978.928,-131.272
333.304,980.636,-187.88
259.86,976.976,-135.176
218.136,957.944,-95.404
216.184,954.04,-114.436
194.224,934.032,-86.376
159.088,925.98,-87.84
180.072,929.396,-139.812
146.888,933.544,-141.276
137.86,956.236,-157.38
160.796,958.676,-137.372
186.172,939.156,-89.548
230.58,944.524,-91.012
231.068,954.772,-84.668
212.524,963.8,-86.864
204.716,950.38,-88.084
202.032,965.508,-102.236
180.072,977.464,-106.872
171.288,971.852,-91.744
199.836,968.924,-99.796
231.8,979.416,-120.536
208.864,983.32,-90.28
224.48,981.368,-103.212
183.488,966.972,-85.888
193.736,957.944,-94.428
223.016,963.8,-116.144
213.744,972.828,-130.296
178.608,975.268,-104.432
200.812,963.068,-102.48
205.692,966.24,-105.652
218.868,978.684,-114.436
209.596,987.712,-113.948
205.936,987.956,-117.852
222.284,989.908,-115.412
199.836,993.568,-90.28
220.088,994.3,-112.972
218.624,1001.62,-120.78
206.18,1003.084,-98.332
196.42,1012.844,-98.332
189.832,1036.024,-123.464
190.564,1048.224,-129.808
197.152,1051.64,-111.508
206.668,1051.396,-101.992
196.908,1057.984,-94.916
188.612,1070.916,-107.116
204.96,1081.652,-144.204
219.112,1078.236,-143.716
232.044,1074.088,-105.164
220.088,1081.408,-85.888
219.356,1055.788,-62.952
237.9,1053.592,-55.876
202.764,1059.204,-40.26
260.348,1052.372,-69.54
252.54,1060.424,-64.416
222.528,1069.208,-45.14
217.16,1069.94,-63.196
195.688,1073.356,-86.376
191.052,1069.696,-80.276
190.32,1059.692,-70.516
191.784,1049.2,-66.124
221.308,1028.704,-75.152
198.128,1015.528,-41.968
147.376,1022.116,-36.844
156.404,1007.964,-78.812
131.76,996.496,-61.732
78.08,999.668,-35.624
57.34,994.544,-59.048
113.948,980.392,-122.732
64.66,995.276,-122.976
49.044,1003.328,-123.464
89.548,991.616,-113.216
104.432,960.384,-57.096
86.132,942.328,-34.648
50.752,917.684,-64.416
37.82,905.484,-84.424
-3.66,904.996,-76.616
-5.612,916.952,-100.284
29.28,891.576,-61.244
40.992,874.008,1.22
32.452,879.62,4.148
12.688,856.196,31.232
46.604,830.088,20.984
49.288,823.5,0.0
-34.404,837.408,-17.324
-67.344,807.884,-9.028
-49.044,767.38,24.644
-78.812,771.528,58.072
-85.644,790.316,39.284
-73.444,824.232,-6.588
-89.304,877.912,-8.54
-54.412,921.344,-38.064
-59.048,947.208,-42.944
-47.824,954.284,-27.328
-38.552,965.264,-10.98
-41.236,980.636,-29.036
-41.724,997.716,-41.724
-34.892,996.496,-24.4
-54.412,1001.132,-18.544
-63.684,1006.988,-34.648
-25.864,1006.012,-30.012
-7.564,997.228,-8.784
1.708,998.448,-7.32
-24.4,1000.4,-1.708
-8.296,1006.988,-17.812
-16.592,1011.868,-10.98
-7.076,1004.548,-5.612
-7.32,989.42,-3.66
-10.004,985.76,-24.156
-21.716,996.74,-38.064
-48.556,1006.012,-23.18
-27.572,984.54,-9.516
-33.428,994.056,-16.104
-35.38,996.984,-20.984
-69.784,995.276,-20.496
-79.3,1011.624,-24.156
-48.556,1030.412,-34.648
-51.728,1048.224,-13.176
-62.708,1055.3,11.468
-83.448,1033.828,63.928
-152.256,1022.116,117.364
1.708,1043.344,9.516
-53.192,1045.784,-10.736
-68.564,1059.204,-63.928
-81.74,1059.936,-118.584
141.764,954.284,-215.696
169.092,797.148,-79.788
403.82,608.536,2.44
1201.7,440.176,-321.592
1101.172,509.96,-409.676
815.448,685.396,-278.404
949.648,626.348,-126.88
788.364,477.996,43.92
714.432,376.98,138.836
1025.532,312.32,-23.668
1168.272,277.184,-196.176
1177.788,301.096,-192.272
1118.496,284.26,-104.432
996.008,271.816,-63.196
891.088,297.436,-85.4
851.56,225.7,22.448
857.416,212.524,36.6
826.672,198.86,-4.636
866.444,228.384,-64.66
897.188,236.924,-113.216
805.444,242.536,-100.04
664.656,237.656,-50.264
713.212,240.34,-43.432
739.564,203.496,-74.176
673.196,216.428,-102.236
580.476,221.064,-53.436
597.8,207.888,-94.916
621.712,202.52,-141.276
613.66,175.68,-131.272
507.032,138.348,-86.864
362.828,120.536,72.956
365.756,79.544,53.924
579.256,4.636,-64.66
753.228,-73.688,-110.044
639.036,-73.932,-68.808
556.076,-89.304,10.492
702.232,-172.508,-2.684
1148.752,-206.424,-251.564
1201.212,-166.652,-417.24
1163.392,-200.812,-273.524
1339.072,-292.068,-201.788
1575.02,-360.632,-207.156
1624.308,-369.416,-178.12
1550.132,-356.24,-79.3
1636.508,-395.768,-62.22
1647.0,-403.088,-59.292
1511.092,-370.636,-29.036
1403.0,-350.384,-21.716
1386.164,-341.112,-57.34
1353.468,-328.18,-67.1
1271.484,-303.78,-68.32
1155.828,-293.776,-34.892
1181.936,-281.576,-77.348
1168.516,-283.772,-84.18
1076.772,-259.86,-54.9
1000.4,-269.62,-13.176
1027.728,-268.156,-22.692
1048.956,-268.888,-47.336
1010.404,-268.644,-24.888
955.504,-267.912,4.88
970.388,-255.956,-13.664
969.656,-252.296,-18.788
967.948,-242.292,-3.66
977.952,-242.536,1.464
955.748,-218.136,-32.452
948.428,-201.056,-60.512
949.648,-217.404,-48.556
970.144,-217.892,-40.26
994.3,-238.876,-71.492
1006.5,-208.864,-78.812
1014.552,-212.28,-61.244
995.032,-203.008,-12.444
1021.628,-218.136,23.424
1168.76,-202.276,36.356
1316.136,-205.204,115.412
1278.072,-259.86,90.036
1265.628,-155.672,-52.948
1176.568,-60.268,-180.56
1024.556,-0.732,-238.388
923.54,51.728,-137.86
999.912,57.828,-27.084
1064.328,80.032,33.428
947.208,142.496,106.384
926.956,205.692,84.668
1035.048,247.172,-3.172
984.296,290.36,35.624
890.356,351.116,18.056
771.528,490.44,-78.324
695.888,601.46,-126.88
732.732,666.852,-154.208
666.852,748.592,-163.236
625.616,789.584,-156.648
602.924,787.632,-104.188
602.924,775.676,-62.952
489.708,804.712,-81.008
327.448,930.86,-217.648
192.028,1016.504,-339.404
170.068,968.924,-343.796
161.284,933.3,-261.568
158.6,878.888,-135.42
160.308,883.524,-74.176
105.652,890.6,-55.876
137.86,898.408,-63.928
113.704,881.816,-78.812
55.632,900.848,-70.516
3.416,945.5,-81.74
10.98,977.464,-117.852
92.964,972.34,-161.04
119.56,964.288,-125.416
129.32,970.388,-91.012
114.192,986.248,-87.352
141.276,985.516,-111.264
175.192,974.78,-84.424
183.976,977.952,-74.176
172.508,995.032,-87.84
171.532,1010.648,-115.412
147.62,999.424,-85.644
197.64,981.856,-79.544
184.22,983.808,-58.56
185.44,971.364,-38.308
204.96,952.088,-18.788
195.932,970.144,-23.912
181.536,986.492,-73.932
160.064,986.248,-78.812
150.548,975.512,-61.976
182.512,971.608,-68.808
196.664,976.244,-64.172
187.148,972.34,-46.116
191.54,971.364,-50.996
192.516,973.316,-68.076
189.1,976.732,-76.616
166.896,978.196,-67.588
172.02,977.952,-80.764
179.828,978.196,-87.352
167.14,981.368,-78.08
170.312,969.168,-81.74
156.648,966.972,-75.64
168.604,965.996,-70.516
183.732,968.924,-81.008
172.752,976.488,-80.764
159.576,973.804,-65.148
169.092,972.34,-64.416
191.784,980.636,-84.668
181.292,998.936,-95.404
159.088,1000.644,-75.152
147.132,982.1,-55.876
168.116,971.364,-66.368
189.588,984.54,-108.336
168.848,990.884,-95.404
180.072,984.54,-86.376
165.188,983.076,-73.2
164.456,969.168,-74.664
174.704,957.944,-77.348
170.068,967.948,-89.792
173.972,975.024,-98.088
162.992,976.488,-97.112
164.944,982.588,-107.36
166.896,988.688,-107.848
158.112,981.368,-82.96
190.564,991.616,-106.872
160.552,995.764,-92.964
167.384,988.444,-86.376
178.852,992.592,-84.668
164.944,1002.596,-82.716
176.168,1008.696,-106.628
179.584,1009.672,-100.04
159.088,1012.112,-86.376
153.72,1024.8,-101.26
185.684,1030.9,-112.972
182.756,1033.34,-98.332
166.896,1047.736,-102.236
172.752,1055.544,-103.212
200.568,1052.86,-91.988
213.012,1058.96,-112.24
188.856,1068.476,-118.34
179.096,1061.644,-107.604
201.788,1047.248,-99.552
183.0,1044.808,-89.792
163.724,1056.52,-113.216
116.388,1068.476,-124.928
129.076,1056.764,-148.596
156.648,1052.86,-146.888
192.028,1043.1,-113.948
204.96,1016.992,-52.46
164.7,1020.652,-11.956
172.264,1033.096,-44.896
181.536,1052.616,-89.304
158.6,1078.724,-107.604
156.648,1074.82,-87.596
177.144,1044.076,-41.968
173.24,1038.22,-24.4
200.324,1026.508,-0.244
188.612,1026.508,25.376
169.58,1035.78,-5.368
165.676,1039.44,-50.752
172.996,1027.484,-44.164
156.404,1011.38,-17.568
133.956,981.124,13.176
114.924,954.772,41.48
92.964,941.84,40.992
97.6,923.052,41.48
139.324,911.828,29.768
89.06,942.572,26.352
60.756,948.428,29.768
64.172,931.104,53.68
108.336,929.396,5.612
127.856,951.844,-54.656
75.152,983.808,-56.364
45.14,986.004,-42.944
3.66,977.708,-33.184
17.812,976.732,-44.896
38.796,981.368,-30.012
94.184,954.04,-10.736
93.452,925.248,-9.028
-5.856,908.656,-12.444
-43.188,876.936,-4.392
-23.18,833.992,4.392
-18.3,825.452,-44.164
-103.7,823.988,-63.196
-142.496,794.708,-38.064
-136.152,773.724,-30.256
-103.7,770.064,-71.248
-146.4,776.896,-44.408
-171.776,802.272,-20.496
-124.196,827.648,-45.628
-93.452,868.152,-93.208
-124.196,922.564,-93.208
-122.488,936.716,-66.124
-95.404,954.04,-89.792
-71.98,995.276,-125.172
-37.332,1018.7,-116.876
-25.62,1032.852,-85.4
-23.912,1038.22,-62.952
-24.888,1043.832,-51.484
-1.22,1049.444,-65.88
4.636,1055.788,-58.072
-4.88,1052.128,-21.228
-29.768,1047.248,7.076
-53.436,1045.784,-5.856
-49.532,1061.644,-35.136
-101.992,1086.776,-36.356
-94.672,1110.688,-53.924
-63.684,1108.004,-56.364
10.004,1114.104,-117.608
-129.32,1123.864,-72.468
-206.668,1128.012,-84.424
-3.904,1042.612,-171.532
109.312,930.372,-171.532
173.972,782.02,-130.052
476.044,546.072,-38.552
1025.776,435.296,-188.856
948.672,489.22,-386.74
899.384,609.024,-372.1
1046.272,496.296,-164.456
802.76,376.248,144.204
690.52,416.996,19.276
912.316,445.056,-262.544
932.568,406.016,-303.048
971.852,395.768,-319.64
931.348,410.652,-345.504
741.76,368.44,-181.536
597.556,332.328,-78.568
537.776,335.5,-31.232
554.856,341.356,-5.368
583.16,353.8,-64.416
519.232,325.496,-97.356
582.184,313.784,-126.88
569.008,306.464,-153.964
520.452,282.552,-87.352
594.872,246.928,-109.068
693.692,210.084,-169.336
673.44,182.024,-187.88
654.408,138.592,-115.656
528.504,133.468,-34.404
553.88,103.456,-20.984
710.284,49.288,-90.524
783.484,30.988,-151.036
879.62,38.796,-199.348
866.932,-47.824,-175.924
998.936,-127.856,-95.16
1066.036,-153.232,-88.328
988.444,-141.52,-124.196
1062.132,-170.068,-180.56
1282.22,-195.444,-219.6
1418.86,-211.304,-213.744
1425.204,-266.692,-207.644
1505.724,-288.408,-221.308
1516.704,-286.456,-189.1
1537.932,-283.528,-196.176
1506.944,-304.268,-136.396
1465.708,-314.76,-131.76
1427.644,-281.088,-151.768
1388.36,-277.428,-172.508
1349.808,-276.94,-171.288
1240.496,-269.62,-95.648
1190.476,-273.036,-49.776
1184.376,-271.084,-76.616
1175.592,-245.708,-108.58
1138.504,-215.208,-125.904
1070.916,-217.892,-117.12
1052.616,-218.868,-114.924
1001.376,-206.18,-91.988
932.08,-213.256,-70.516
916.464,-225.944,-41.48
919.88,-220.576,-33.916
930.128,-210.816,-40.504
947.94,-209.596,-54.168
935.496,-195.444,-65.148
953.796,-192.76,-68.564
970.144,-203.984,-46.604
1002.108,-215.696,-14.396
1041.636,-219.6,-0.732
1116.544,-206.912,13.42
1168.76,-201.788,36.356
1259.04,-181.292,40.26
1306.62,-169.336,-12.2
1240.984,-143.228,-93.696
1127.768,-101.504,-153.964
989.42,-65.636,-106.628
1115.324,-0.488,-54.168
1109.224,-35.624,56.852
1011.136,-44.896,165.676
998.692,9.028,142.008
992.836,150.06,119.316
987.224,156.404,-10.98
814.472,404.796,-203.496
684.664,583.648,-245.708
534.848,655.14,-150.792
439.688,750.3,-90.036
483.852,862.052,-169.336
447.74,888.16,-234.484
241.072,874.984,-120.78
420.656,762.744,-75.396
437.736,818.132,7.32
325.984,919.148,-36.112
154.452,964.044,-101.016
95.16,937.936,-74.908
309.392,936.96,-187.88
276.208,929.884,-180.072
160.796,954.528,-100.528
117.852,979.172,-116.144
138.104,996.984,-178.852
127.856,973.804,-124.928
215.696,950.868,-109.312
205.204,979.172,-112.24
179.828,1015.528,-143.228
166.896,1005.036,-133.712
163.724,1037.488,-154.452
168.36,1013.332,-128.1
216.916,997.96,-144.204
227.896,980.636,-121.268
212.28,972.34,-99.064
191.296,977.708,-114.68
212.768,974.292,-130.784
194.224,968.192,-98.332
196.664,953.308,-83.448
184.22,963.312,-111.02
157.38,959.408,-120.292
162.016,951.844,-115.9
137.372,935.984,-102.236
147.132,945.256,-142.74
145.668,946.964,-115.656
181.048,947.94,-113.704
205.448,973.804,-137.86
214.232,981.612,-142.74
219.112,988.932,-139.568
212.524,999.18,-146.4
209.352,994.3,-139.812
209.352,971.12,-116.388
222.528,951.6,-91.744
219.844,957.944,-92.72
220.576,956.968,-121.756
199.104,958.188,-112.972
174.948,954.284,-97.6
187.636,966.728,-125.172
196.908,975.268,-126.636
198.86,971.852,-130.052
200.568,970.144,-138.104
193.004,963.312,-114.924
205.936,958.432,-107.36
194.956,964.532,-119.56
172.996,964.044,-120.292
193.98,954.284,-124.44
199.836,954.284,-103.944
192.028,959.652,-100.772
193.736,970.144,-116.388
200.812,977.464,-117.364
214.964,981.124,-134.688
209.84,983.808,-130.052
206.18,974.048,-118.34
200.08,962.336,-112.24
193.736,962.336,-110.288
200.812,963.068,-108.824
207.644,974.78,-119.316
204.716,982.344,-136.152
207.4,981.124,-139.324
196.664,967.216,-113.704
192.516,952.332,-99.064
200.324,959.164,-120.292
202.032,966.972,-129.808
182.756,964.044,-123.708
177.632,966.24,-126.636
199.348,971.608,-126.148
216.184,981.124,-115.412
215.452,993.08,-118.828
201.056,1006.988,-124.44
216.184,1016.748,-130.784
216.916,1020.408,-118.584
204.716,1027.728,-106.14
213.012,1038.464,-128.344
195.932,1061.4,-132.492
208.376,1075.064,-144.936
201.3,1098.0,-145.912
211.548,1112.152,-137.616
207.888,1101.66,-105.164
231.556,1115.324,-109.556
212.036,1133.624,-106.872
208.376,1142.652,-127.612
211.06,1134.112,-131.028
208.62,1139.48,-134.2
189.1,1134.356,-113.216
194.712,1121.18,-103.944
178.364,1100.196,-76.372
181.292,1090.436,-65.148
197.64,1093.608,-106.384
172.508,1093.608,-127.856
144.448,1074.088,-117.364
137.128,1047.736,-110.288
135.42,1025.288,-97.844
140.544,1009.428,-96.624
122.732,996.008,-89.06
88.084,970.632,-71.98
76.128,947.94,-57.096
72.468,942.816,-70.516
41.724,945.988,-100.772
55.876,909.144,-66.612
20.008,912.56,-71.248
8.54,904.752,-74.176
13.176,888.892,-57.34
-20.008,890.6,-37.576
-34.648,883.524,-30.744
-37.332,887.184,-54.9
-89.304,889.38,-69.784
-98.82,901.58,-90.768
-106.628,904.996,-93.208
-99.064,896.212,-69.784
-120.78,896.212,-41.48
-137.372,901.58,-28.304
-126.392,903.776,-40.26
-93.208,894.748,-61.488
-62.708,906.704,-92.72
-118.584,917.196,-84.424
-148.108,906.948,-74.42
-89.304,875.96,-90.768
-68.808,843.02,-66.612
-76.86,821.06,-42.212
-60.268,798.124,-43.92
-93.452,802.028,0.732
-98.332,817.4,14.396
-82.472,822.036,2.44
-92.72,871.324,-26.352
-107.116,932.08,-79.788
-87.596,945.744,-100.284
-100.772,935.984,-50.508
-99.796,941.108,-13.908
-76.372,965.996,-56.852
-65.148,999.424,-98.576
-65.88,1023.092,-98.82
-67.832,1041.636,-88.084
-50.02,1037.244,-87.84
-44.652,1027.24,-81.984
-55.388,1029.924,-72.712
-75.152,1034.804,-43.92
-81.74,1042.368,-37.088
-97.844,1040.904,-54.656
-90.28,1036.024,-53.192
-45.14,1034.56,-36.356
-44.652,1042.612,-30.012
-58.316,1021.384,-54.412
-14.884,1038.22,-90.768
-61.488,1056.764,-105.652
-14.396,1071.648,-181.78
63.44,1029.924,-212.036
8.784,1011.38,-210.328
59.292,919.148,-201.788
118.584,746.64,-98.82
289.14,583.404,-2.44
675.636,313.296,79.056
1057.74,381.372,-272.304
1155.096,495.32,-433.344
1231.468,495.32,-220.332
1042.368,337.696,10.248
906.948,328.18,57.584
916.464,258.152,111.752
1038.952,246.928,-24.644
1186.328,219.844,-134.932
1141.188,247.66,-140.544
1013.332,273.036,-161.04
877.18,246.684,-92.72
820.572,230.092,-47.336
910.12,202.52,-29.524
978.44,167.384,-53.192
905.24,165.92,-62.952
907.436,183.0,-101.26
890.844,205.204,-100.528
884.744,189.588,-98.82
790.316,196.908,-91.5
766.16,179.584,-61.244
784.704,165.432,-72.224
713.944,165.432,-79.3
595.116,169.092,-49.532
577.304,176.412,-42.212
650.748,188.124,-123.952
728.096,149.328,-174.704
754.692,102.968,-183.976
702.476,89.06,-173.972
517.036,70.516,-59.292
242.78,33.184,55.876
228.872,-36.356,91.5
661.484,-78.568,-56.12
779.58,-40.26,-226.676
701.012,-84.912,-167.628
810.568,-185.196,-127.612
961.36,-282.064,-112.24
1182.668,-356.972,-104.676
1270.996,-383.568,-172.996
1293.444,-393.816,-146.644
1300.52,-449.692,-89.792
1454.24,-489.22,-106.14
1573.068,-491.904,-138.836
1445.944,-483.852,-81.252
1365.912,-496.296,-41.236
1418.128,-490.928,-85.644
1400.56,-464.82,-128.832
1391.044,-450.424,-148.84
1333.948,-442.128,-140.056
1245.62,-436.516,-121.268
1197.064,-445.3,-75.884
1186.328,-441.396,-65.88
1186.816,-430.416,-69.052
1133.624,-409.92,-81.496
1107.76,-402.844,-77.104
1055.788,-403.82,-40.016
1017.236,-394.548,-16.836
990.152,-382.104,-27.084
945.256,-366.0,-33.672
939.888,-354.288,-33.672
990.884,-356.728,-41.236
996.496,-345.016,-58.072
1000.888,-346.968,-37.332
977.22,-349.408,-30.744
944.524,-344.772,-15.86
952.332,-325.984,-17.324
979.172,-315.004,7.076
1063.352,-297.924,40.992
1020.652,-296.216,74.908
1029.436,-311.832,85.156
1040.904,-300.12,80.764
1056.764,-249.368,36.112
986.736,-190.564,-47.336
899.628,-102.48,-126.636
848.144,-79.544,-81.496
936.228,-43.432,-16.104
1093.12,-67.832,-3.904
1215.608,-34.16,-22.448
1322.48,11.956,-104.432
1273.436,14.396,-88.084
1038.22,-8.54,33.672
816.18,46.116,151.28
878.156,73.2,177.632
985.76,181.292,62.22
1159.976,307.44,-119.804
1165.588,378.2,-220.82
775.92,471.164,-154.452
513.376,540.948,-87.108
582.428,615.368,-123.708
685.152,633.424,-111.996
769.576,674.66,-103.212
789.096,697.352,-119.316
663.924,716.872,-72.956
671.488,687.592,-67.344
599.508,768.6,-101.26
438.956,815.204,-31.476
575.596,791.292,-67.588
634.156,810.568,-102.724
507.52,897.188,-127.856
443.104,850.584,-105.652
435.784,844.728,-54.168
467.016,884.744,-80.276
413.824,882.792,-84.424
356.484,944.768,-151.768
280.844,975.268,-211.304
272.304,916.464,-221.552
307.196,924.516,-212.036
353.068,956.968,-231.068
291.58,940.132,-160.796
315.248,916.464,-109.556
320.616,928.664,-117.12
283.772,925.736,-146.4
307.196,923.296,-171.044
271.084,930.86,-164.456
264.252,950.868,-165.432
277.428,944.036,-177.632
295.728,953.552,-170.312
320.86,944.524,-151.036
301.828,925.98,-123.708
299.144,924.272,-137.616
305.0,936.716,-152.744
300.608,948.916,-150.548
258.152,925.004,-113.46
279.868,932.812,-155.428
283.772,935.984,-149.816
300.852,929.396,-130.296
325.008,936.472,-137.616
314.028,944.768,-140.788
305.0,940.864,-119.56
304.512,933.3,-112.24
318.42,942.816,-133.468
313.296,950.136,-132.248
310.612,945.256,-132.736
307.684,940.62,-123.22
298.656,930.128,-109.068
325.496,942.084,-148.84
322.568,943.06,-142.496
301.096,943.548,-139.08
284.016,953.308,-164.7
286.456,945.744,-142.74
319.396,921.344,-116.876
319.884,919.88,-101.748
327.936,939.4,-120.292
313.784,945.988,-133.956
311.588,958.432,-146.156
304.512,966.24,-156.16
318.664,931.836,-123.952
317.688,924.76,-112.972
316.956,938.424,-125.66
325.984,928.176,-121.024
305.244,921.344,-112.728
300.852,940.62,-146.888
283.284,952.576,-161.04
296.46,942.816,-155.672
308.66,934.032,-135.42
308.416,936.472,-123.464
308.66,939.888,-133.956
307.684,948.428,-142.984
313.296,953.552,-152.744
304.024,957.212,-148.596
302.072,955.504,-152.5
290.604,955.992,-144.692
323.056,948.672,-127.612
355.996,963.068,-127.856
327.936,982.832,-129.076
318.664,988.2,-136.884
308.172,978.44,-123.464
300.364,987.468,-140.056
335.744,1006.012,-168.604
335.988,1027.24,-163.48
309.148,1035.78,-138.592
320.86,1041.636,-149.084
332.084,1041.636,-142.008
327.936,1039.684,-120.78
335.988,1049.932,-124.928
366.488,1058.96,-142.496
337.696,1077.504,-135.176
305.0,1090.192,-127.612
332.328,1091.656,-136.64
332.572,1103.856,-142.74
322.08,1108.004,-152.988
300.364,1106.296,-139.08
296.216,1100.196,-133.956
297.436,1076.772,-115.656
308.904,1049.2,-98.82
300.608,1055.788,-98.576
301.828,1056.52,-145.912
284.504,1050.908,-159.82
258.884,1039.928,-126.392
225.456,1014.064,-86.376
239.608,993.568,-102.48
236.436,992.348,-124.684
190.564,990.64,-104.188
159.576,972.828,-111.264
135.664,947.94,-121.756
151.524,936.228,-133.956
190.32,897.92,-83.448
142.252,892.796,-42.212
81.008,912.804,-61.732
89.548,896.456,-73.444
88.816,885.232,-61.244
84.912,910.12,-72.956
56.608,919.148,-68.808
16.348,914.756,-70.272
7.32,891.82,-57.34
-10.004,894.26,-23.912
-0.732,887.672,-25.376
-9.516,882.548,-42.456
-6.1,874.252,-63.196
-31.232,858.88,-53.68
-33.916,817.888,-31.476
-50.752,775.92,-26.108
-96.136,741.272,-28.548
-134.2,719.556,-23.668
-156.404,728.34,-18.056
-152.744,759.816,-31.232
-142.252,800.076,-50.264
-121.024,823.5,-45.628
-87.84,858.392,-54.656
-77.592,904.996,-82.716
-88.816,939.888,-70.516
-61.732,967.216,-80.032
-32.452,1002.352,-124.928
-31.232,1024.556,-137.86
-60.024,1024.068,-105.408
-49.532,1018.944,-89.548
-25.864,1038.464,-103.944
-29.036,1062.132,-124.44
-21.96,1062.864,-126.392
-24.156,1041.636,-95.892
-28.06,1034.56,-75.152
-5.612,1026.996,-86.132
-13.664,1025.776,-92.232
-23.18,1034.072,-92.232
-35.38,1039.928,-96.624
-56.12,1044.076,-119.316
-70.516,1047.98,-118.828
-46.116,1065.06,-104.676
16.104,1075.308,-125.416
51.484,1076.284,-101.016
87.108,1081.164,-79.544
92.476,1094.34,-97.356
10.004,1109.712,-78.812
81.984,1128.5,-106.872
19.276,1098.976,-110.044
144.936,1007.964,-141.032
132.248,940.376,-116.144
92.232,843.02,-109.312
353.8,731.024,-83.448
340.868,515.816,113.46
607.56,354.776,169.092
760.548,137.128,71.004
1049.688,174.704,-330.132
1504.748,254.492,-419.192
1308.084,281.332,-261.812
1087.264,318.42,-218.624
954.772,330.62,-180.804
821.304,260.348,-16.592
734.44,315.492,-36.844
746.396,282.308,-53.192
773.724,276.696,-118.34
796.172,300.364,-165.92
704.916,291.336,-130.784
618.54,294.996,-107.36
651.968,283.772,-132.98
675.148,274.744,-166.652
599.02,257.664,-160.552
524.356,263.52,-132.492
459.696,262.544,-124.44
422.852,235.46,-122.0
515.816,181.292,-96.136
588.772,141.764,-133.224
594.384,121.756,-174.216
492.88,96.136,-88.572
543.388,27.816,-20.496
693.448,-45.628,-73.932
907.436,-81.984,-226.188
919.636,-141.764,-181.048
850.096,-205.204,-60.024
977.708,-253.76,-88.572
1143.14,-271.572,-186.904
1267.58,-306.952,-226.92
1326.628,-339.892,-226.676
1458.388,-371.856,-244.244
1466.196,-368.684,-262.3
1473.272,-392.108,-247.904
1543.056,-392.84,-278.404
1579.9,-405.528,-236.924
1577.216,-408.212,-245.952
1529.392,-390.156,-260.104
1402.268,-364.536,-197.152
1373.964,-372.832,-155.428
1340.536,-354.288,-170.312
1211.216,-343.064,-156.892
1173.152,-336.72,-149.328
1108.004,-324.032,-120.048
1044.808,-307.196,-79.788
1019.432,-291.824,-99.064
976.488,-274.744,-146.888
937.692,-249.124,-141.764
930.128,-237.168,-162.992
937.936,-247.66,-156.16
924.516,-245.22,-118.096
920.612,-235.46,-127.612
966.24,-205.448,-172.752
1049.688,-193.736,-199.104
1061.4,-178.608,-145.424
1080.92,-198.86,28.06
1203.896,-252.784,199.836
1052.372,-245.708,64.172
608.292,-95.892,-300.852
874.496,38.308,-293.288
1055.788,-24.4,-159.82
1145.58,0.976,-131.516
1178.276,-19.276,-30.256
846.924,-28.792,-94.672
756.888,75.396,-148.352
1068.72,77.592,-153.476
1192.184,134.444,-158.6
1272.704,144.936,-151.768
1105.32,89.06,-35.38
871.08,138.104,-25.864
968.436,211.304,-116.876
1077.504,268.888,-163.724
1034.072,315.248,-131.516
1183.644,413.824,-159.82
817.4,306.22,-132.736
794.22,450.668,-133.224
978.928,470.676,-145.668
1016.016,540.704,-161.772
834.48,519.476,-83.204
757.62,614.636,-51.972
680.272,644.892,-33.428
673.196,616.588,-105.652
774.7,615.612,-152.744
562.42,724.68,-100.772
312.564,769.088,-112.24
516.304,844.972,-216.184
453.108,844.484,-186.66
455.304,880.84,-185.196
368.44,874.984,-150.548
407.236,898.652,-97.356
498.004,854.732,-90.524
505.324,793.0,2.684
376.736,967.216,-29.524
355.996,884.012,3.904
435.54,919.636,-22.448
438.224,920.368,-54.412
414.8,981.856,-91.988
366.244,991.128,-85.4
308.904,942.328,-16.592
317.444,904.752,1.464
333.548,928.664,-34.648
322.324,968.192,-57.828
258.64,939.644,-29.036
243.024,933.3,-34.16
259.128,940.864,-29.524
226.432,922.808,10.98
251.564,940.864,7.808
258.884,950.624,-4.392
356.728,970.876,-60.756
237.9,955.748,-81.496
185.196,995.032,-134.688
144.692,995.032,-117.852
195.688,991.372,-98.576
202.032,961.848,-83.692
201.056,951.112,-32.208
278.648,972.828,-50.264
231.556,958.92,-58.804
237.168,984.54,-75.396
196.42,978.44,-79.3
174.46,981.124,-87.108
178.12,989.42,-101.016
222.04,999.668,-98.088
184.464,971.608,-72.468
198.128,955.504,-63.44
209.108,956.48,-70.272
198.86,962.336,-74.908
191.052,977.22,-95.404
174.216,973.316,-83.936
183.0,970.388,-63.196
223.504,985.272,-72.468
256.688,998.204,-84.18
213.744,970.144,-59.536
152.988,948.184,-48.312
192.516,950.868,-63.44
243.268,983.32,-93.696
211.548,988.2,-84.912
186.66,967.948,-72.468
186.904,949.648,-53.192
214.72,977.22,-79.056
211.06,993.568,-88.816
213.988,990.152,-74.42
207.888,977.464,-62.952
206.424,958.188,-46.848
204.472,970.388,-51.728
205.692,989.42,-85.156
210.816,1011.136,-102.968
190.076,1001.62,-82.716
178.852,972.584,-32.452
208.376,961.604,-32.696
220.088,983.808,-88.328
172.264,1006.988,-77.592
158.6,1019.92,-63.196
215.696,1038.708,-76.128
222.04,1041.636,-49.288
235.704,1055.056,-54.9
235.704,1087.508,-85.4
201.056,1092.388,-101.504
217.648,1116.056,-144.204
181.536,1104.832,-95.16
190.32,1081.896,-70.272
203.496,1069.696,-66.124
236.436,1086.288,-75.396
199.104,1101.904,-68.564
157.624,1102.636,-82.716
133.956,1108.736,-84.18
180.316,1120.448,-74.908
214.964,1130.208,-71.248
183.976,1125.572,-59.292
162.504,1110.2,-47.092
163.968,1111.664,-53.436
153.964,1124.596,-76.372
122.732,1098.976,-42.7
159.088,1088.24,-57.34
156.404,1073.844,-60.024
127.612,1058.472,-24.156
100.04,1039.684,-16.348
82.96,1027.728,-22.204
103.944,1000.156,-12.444
94.672,998.448,-14.884
73.444,998.936,-44.652
40.504,968.924,-23.912
12.688,949.16,0.732
10.004,938.912,18.788
61.976,959.652,6.832
63.684,976.0,-18.788
-10.98,951.112,15.372
-45.872,915.244,42.944
-26.352,909.144,46.116
7.32,918.66,14.396
-2.928,912.072,-17.568
-100.528,854.0,23.18
-132.98,791.048,58.56
-151.036,752.984,39.772
-201.3,711.504,32.452
-195.2,684.176,16.104
-206.912,708.576,-8.296
-200.568,730.78,2.44
-198.86,739.808,49.288
-178.364,765.672,19.52
-167.384,803.736,6.1
-164.7,822.036,30.988
-152.012,865.224,3.172
-151.28,891.82,-12.932
-124.196,910.852,-29.524
-146.644,932.568,-28.06
-186.172,940.132,-40.26
-162.016,954.772,-57.828
-138.592,988.688,-49.776
-124.928,1013.576,-65.148
-132.248,1001.864,-62.708
-123.708,983.564,-34.16
-120.292,991.86,-15.128
-100.04,1003.816,-34.648
-109.8,985.028,-19.032
-107.116,967.948,19.764
-113.46,969.9,27.328
-118.34,991.128,-9.028
-112.24,1014.064,-36.6
-106.872,1021.384,-30.256
-111.02,1028.704,-26.84
-123.464,1031.632,-30.012
-167.14,1030.168,-26.596
-201.788,1037.488,-4.392
-206.912,1041.148,-13.908
-188.856,1007.232,40.504
-78.812,967.948,59.78
275.476,1087.752,-222.528
303.78,1099.952,-214.232
101.992,1106.296,-131.272
15.616,1108.004,-152.012
21.96,1020.408,-149.572
106.628,967.46,-159.332
202.032,927.444,-59.292
283.284,730.536,32.208
535.58,565.836,0.976
668.56,490.44,36.844
924.028,419.192,117.852
941.84,512.156,51.972
828.38,700.28,-168.116
802.76,354.776,38.064
1088.728,272.06,69.54
985.028,300.364,63.928
978.44,263.52,53.192
868.884,276.94,56.364
907.924,310.368,-29.036
874.008,262.544,-24.888
856.684,254.736,45.14
958.188,240.096,-16.836
866.2,221.796,-45.14
794.22,230.824,-21.96
809.592,201.056,12.688
695.644,216.916,-5.612
583.892,229.116,10.492
586.82,220.332,-7.808
695.4,184.22,-127.612
632.448,175.924,-90.524
503.616,150.548,-38.308
472.384,136.64,-13.42
409.432,115.168,-54.412
341.356,78.08,3.172
410.164,-19.032,40.992
379.908,-54.656,-8.54
355.996,-67.588,0.976
540.948,-222.04,71.004
832.284,-346.724,11.956
971.364,-402.112,-76.86
1000.156,-460.184,-20.008
1188.036,-565.104,-44.652
1380.796,-614.88,-119.56
1509.384,-629.52,-171.288
1644.804,-670.756,-172.264
1661.64,-704.916,-129.32
1504.992,-684.908,4.88
1446.432,-686.616,49.044
1534.76,-680.272,18.056
1522.072,-640.5,-5.856
1403.976,-607.56,12.688
1263.432,-627.324,52.216
1225.124,-586.576,70.516
1252.696,-556.564,-8.052
1144.116,-516.304,-28.792
1096.292,-497.272,0.488
1106.54,-517.768,-7.32
1013.82,-475.556,-17.812
965.264,-467.016,24.4
947.696,-470.432,49.532
927.444,-447.984,42.212
917.684,-436.76,1.22
931.836,-426.268,-26.108
924.272,-419.68,-22.692
905.24,-419.68,-16.348
916.952,-417.24,-26.596
894.016,-400.648,-43.92
904.264,-389.18,-76.372
894.748,-410.652,-27.084
883.524,-414.312,-14.64
886.696,-408.212,-19.276
914.268,-413.336,-7.076
885.72,-410.652,-4.392
904.264,-399.184,-31.964
897.676,-406.016,-6.588
909.632,-420.656,14.64
923.296,-407.48,8.052
967.216,-427.0,40.748
977.464,-400.648,23.668
1005.28,-397.476,68.076
1013.088,-409.92,117.852
958.188,-367.708,34.404
939.644,-307.684,-30.012
932.812,-286.212,-5.368
973.56,-307.196,61.0
1033.584,-237.656,16.592
1084.58,-190.32,-31.72
1062.864,-216.184,-49.776
977.22,-170.556,-30.988
998.936,-152.012,-34.404
1032.12,-107.604,-31.232
978.928,1.22,-39.772
925.98,4.636,-43.92
1061.156,-30.744,-52.948
1025.532,-35.624,49.776
1039.196,62.708,127.368
1065.06,112.24,150.792
1009.428,134.444,70.516
980.636,272.304,29.28
946.72,354.044,-112.972
839.36,404.064,-101.748
703.452,379.664,-32.208
864.248,408.7,-132.248
1052.616,717.848,-155.184
992.592,567.3,-174.216
841.312,522.648,-174.216
740.784,582.672,-144.692
633.424,772.016,-350.14
663.436,588.284,-229.848
833.748,726.144,-313.052
935.252,686.616,-578.768
481.412,837.652,-303.048
316.712,898.164,241.072
515.084,728.584,-40.992
474.336,858.148,-116.876
596.58,934.764,-167.628
566.324,997.96,-183.0
429.928,969.656,-131.76
238.876,876.936,25.864
260.104,880.108,21.96
335.012,854.244,-48.8
304.512,885.964,-49.532
343.552,984.54,-108.58
287.188,952.332,-150.792
260.592,948.672,-107.116
244.732,906.948,-36.844
269.864,913.048,-37.088
323.544,960.872,-115.9
338.428,967.216,-115.9
308.416,952.332,-71.248
318.42,929.152,-73.688
335.5,936.96,-61.244
313.296,939.644,-77.104
324.52,971.364,-98.088
315.248,951.6,-118.096
302.072,931.592,-83.936
316.468,950.136,-82.228
318.664,957.212,-86.62
318.42,955.504,-103.212
301.828,940.864,-113.704
301.096,941.84,-89.304
315.98,957.7,-98.82
318.176,970.388,-99.796
315.736,972.096,-87.84
332.816,977.464,-111.508
335.5,992.836,-115.168
326.716,965.508,-79.056
336.72,959.408,-57.34
339.648,972.584,-65.88
319.152,965.996,-74.42
322.812,972.584,-74.664
335.012,954.284,-80.764
351.116,961.848,-55.632
347.944,978.928,-153.72
285.968,997.472,-40.504
308.172,960.628,-28.304
351.116,960.14,-23.424
369.416,984.296,-63.196
298.412,1001.62,-51.24
301.828,1004.304,-17.324
279.868,1052.128,-36.356
299.388,1042.124,-51.972
363.804,1071.892,-28.304
343.308,1087.508,-17.08
325.74,1055.544,-13.908
242.78,1065.06,30.256
283.528,1106.052,0.488
322.08,1056.032,22.204
391.864,1134.844,61.732
383.324,1024.8,-29.524
346.968,1051.884,-67.1
373.808,1107.76,-38.308
350.872,1090.924,-37.576
398.452,1030.168,-55.632
387.228,1045.784,31.72
359.9,1037.488,82.472
343.064,1066.768,62.952
369.416,1066.28,22.692
379.42,1007.72,15.128
302.56,1024.312,19.276
304.512,1064.816,23.912
330.132,1072.136,39.772
336.232,1059.448,-8.54
291.824,1059.936,18.788
298.412,1015.528,51.484
242.048,968.924,58.316
221.552,965.996,52.948
213.5,935.008,69.296
198.128,929.64,26.84
150.548,911.096,10.492
130.296,933.3,31.72
140.544,965.996,-8.052
113.704,966.972,-32.208
96.624,876.936,26.84
80.032,880.352,40.26
75.152,879.864,-4.88
57.096,892.064,-40.992
26.352,871.812,-75.64
-2.196,834.724,-71.248
-12.688,779.58,-48.556
-46.36,698.572,10.492
-54.9,666.364,30.256
-85.644,682.956,0.244
-99.552,720.532,-52.216
-101.992,741.028,-43.92
-94.916,783.24,-84.424
-109.8,802.76,-91.012
-118.34,819.352,-67.1
-122.732,861.808,-43.92
-104.188,905.484,-12.2
-49.532,935.008,4.148
-14.396,1003.816,-23.668
-16.592,1011.624,-25.132
27.328,1058.96,-31.72
63.44,1077.504,-63.44
35.136,1061.156,-23.424
8.052,990.396,-7.808
103.456,988.444,-28.304
97.112,1037.732,-14.152
120.292,1036.512,-16.592
30.256,1002.84,35.136
139.812,1030.168,4.88
190.564,1037.976,-22.692
232.288,1056.764,1.464
211.792,1020.896,119.56
255.956,926.956,37.088
215.208,804.468,-41.48
265.96,860.1,-63.44
398.452,898.652,-98.088
541.192,849.608,-97.356
597.8,777.384,-64.172
545.34,731.512,-57.828
507.276,564.372,-32.94
667.828,539.728,50.996
854.732,517.036,56.364
1034.56,537.776,-85.4
1128.256,578.036,-177.144
999.424,496.784,-194.468
1003.084,550.708,-200.08
886.452,459.94,-118.828
768.356,427.732,-3.66
785.192,333.304,98.332
811.544,378.932,140.056
821.06,339.16,28.06
785.68,382.348,-3.66
747.372,366.244,0.0
784.46,383.324,-21.472
774.944,340.38,-70.272
768.844,311.832,-82.228
701.988,332.084,-47.58
638.792,347.944,-34.16
690.276,327.936,-79.544
649.772,346.968,-150.548
579.256,314.028,-131.76
537.776,263.276,-72.224
504.836,209.352,-18.3
481.168,218.38,6.344
438.224,260.836,51.728
290.604,-100.284,69.784
360.632,112.972,-0.244
311.588,66.124,-47.336
532.408,-55.632,45.628
877.668,-182.024,-103.944
1141.188,-174.46,-321.348
1197.308,-229.848,-237.9
1159.0,-286.7,-69.784
1417.884,-311.344,-183.0
1628.7,-354.532,-241.804
1658.712,-359.656,-231.8
1637.484,-313.54,-229.604
1550.62,-329.156,-185.196
1547.936,-341.356,-159.088
1554.036,-338.672,-156.648
1488.888,-299.144,-161.04
1383.48,-309.636,-159.332
1311.5,-320.128,-159.576
1234.884,-286.212,-143.716
1206.824,-270.596,-117.608
1221.952,-302.316,-111.752
1229.272,-293.776,-152.256
1150.46,-284.26,-155.428
1037.244,-277.428,-81.74
967.216,-269.864,-110.288
1016.748,-254.004,-155.428
1018.944,-261.812,-122.976
974.78,-257.176,-72.712
995.032,-275.232,-88.572
1031.632,-243.024,-122.244
983.32,-214.72,-101.748
921.832,-202.276,-98.82
896.456,-197.64,-93.208
987.712,-222.528,-114.68
1040.904,-221.552,-85.888
1050.42,-175.68,-60.756
980.88,-213.5,-68.808
911.584,-149.816,-87.352
864.492,-101.992,-100.04
941.596,-149.084,-28.304
1060.912,-142.74,-22.448
1134.112,-65.636,-36.844
1105.564,-0.244,-97.844
1013.576,-79.3,-272.548
949.892,8.784,-197.884
960.14,32.696,-184.708
1021.384,-44.408,-297.68
1071.648,40.26,-258.64
1038.708,118.828,-190.32
992.348,108.58,-151.036
1030.412,142.008,-146.4
1051.396,163.724,-158.844
969.9,168.116,-149.328
936.716,230.336,-178.364
952.576,288.408,-125.172
971.608,320.86,-156.16
925.492,348.676,-180.804
893.528,308.416,-170.068
884.012,398.696,-213.012
840.092,484.828,-205.204
890.112,535.824,-184.22
856.196,525.088,-191.784
763.72,534.116,-183.976
729.072,627.812,-242.536
718.092,710.528,-251.564
687.836,721.752,-291.58
713.212,784.704,-273.036
724.192,681.004,-287.188
679.052,640.012,-140.3
620.736,730.048,-86.376
599.508,838.14,-121.756
520.94,754.448,-65.392
580.964,884.744,-70.272
531.432,887.184,-43.432
470.432,872.544,-14.152
535.092,818.376,-29.036
478.728,895.236,-64.904
458.232,904.508,-132.736
559.736,891.82,-160.796
507.032,836.432,-113.46
479.216,851.804,-138.836
399.184,920.124,-124.928
423.34,835.212,-82.716
457.5,897.188,-127.856
424.56,880.84,-162.748
429.684,865.956,-118.584
397.72,925.98,-90.036
380.152,989.664,-127.368
412.36,900.36,-178.12
374.052,898.896,-165.92
361.852,903.532,-183.0
391.864,882.304,-189.1
396.5,918.66,-177.144
395.28,957.456,-186.904
369.416,928.42,-161.528
394.548,909.388,-134.932
355.508,897.432,-111.996
389.912,979.66,-173.728
390.888,967.216,-187.636
384.788,903.532,-149.816
354.776,915.488,-114.68
368.196,892.308,-91.744
385.032,926.712,-104.676
404.064,929.152,-191.54
349.164,949.16,-139.812
347.212,937.936,-116.144
360.632,952.332,-124.928
342.088,937.204,-113.216
313.784,919.636,-103.944
334.524,934.52,-117.12
338.428,949.892,-140.056
323.056,947.452,-133.224
358.436,940.864,-132.98
357.46,947.452,-130.54
347.212,942.572,-114.924
337.208,929.396,-110.776
337.696,919.148,-95.404
358.924,955.26,-109.312
356.484,967.46,-128.588
343.796,957.944,-116.876
335.744,930.86,-91.256
357.216,960.628,-106.384
336.232,967.704,-127.856
346.724,970.388,-121.512
339.648,966.484,-114.924
322.568,943.06,-102.236
327.204,959.164,-116.144
320.86,985.272,-130.296
333.304,1005.768,-133.712
339.892,1019.676,-129.808
338.428,1001.376,-93.696
346.236,997.716,-93.94
327.448,1000.888,-97.356
327.692,1010.16,-100.528
321.348,1030.412,-126.636
309.88,1012.356,-111.264
304.268,1011.136,-104.432
314.028,1035.536,-119.804
317.688,1057.008,-129.808
314.76,1031.876,-103.456
298.168,1042.368,-112.728
286.944,1036.268,-109.8
283.528,1041.148,-92.476
290.36,1049.932,-107.604
280.356,1046.028,-120.536
267.912,1024.556,-116.632
262.544,1005.524,-83.936
249.856,1002.352,-88.084
243.268,1032.364,-129.808
231.312,1008.452,-124.44
215.452,1016.26,-108.58
202.764,987.468,-120.78
234.24,934.52,-158.6
125.172,1018.456,46.116
179.34,1013.332,-82.228
175.68,1020.896,-98.332
174.948,956.968,-53.68
127.612,900.116,-6.344
133.468,943.06,-37.82
156.16,959.408,-60.756
120.292,929.64,-11.468
118.584,944.036,-32.452
123.464,956.968,-43.188
118.34,953.796,-51.24
75.64,946.476,-51.728
55.388,970.388,-60.512
84.424,1021.384,-89.06
66.368,1020.164,-112.24
41.724,996.74,-80.276
53.192,1000.156,-67.588
43.92,1049.444,-87.352
46.604,1073.356,-90.524
38.552,1041.88,-53.192
44.896,1020.408,-36.112
34.16,997.716,-37.82
-1.22,955.504,-37.088
-38.064,894.748,-26.84
-40.504,877.18,-34.404
-38.308,855.22,-59.292
-64.416,829.112,-95.404
-123.708,764.452,-76.128
-124.196,742.736,-60.756
-124.196,753.96,-69.54
-135.664,767.868,-89.06
-143.716,769.332,-88.816
-125.416,799.832,-109.312
-136.152,832.772,-99.552
-127.124,878.644,-52.704
-42.7,909.876,-55.876
-110.532,858.636,-53.192
-97.112,940.132,-74.908
-23.912,968.192,-82.228
-2.684,990.884,-84.424
-11.224,998.692,-91.988
12.444,1009.184,-38.064
34.404,1062.62,1.708
42.7,1131.916,-135.908
186.416,1316.38,-92.476
266.692,1132.892,12.444
435.784,812.276,8.54
525.82,636.596,-112.24
473.604,505.324,-123.464
508.74,725.412,-19.032
736.392,744.688,35.38
759.572,607.56,127.124
521.428,491.172,253.028
577.304,408.456,334.28
1018.212,285.968,369.416
1148.508,221.308,334.524
1156.56,242.78,202.52
1197.064,247.66,119.56
1108.248,251.32,142.496
959.408,257.176,199.348
932.08,276.94,165.188
932.324,241.072,150.548
946.964,193.98,162.016
971.608,182.756,137.616
1000.644,162.748,79.3
948.916,194.712,54.656
954.772,179.34,42.212
999.424,153.72,7.32
862.54,156.404,17.08
750.056,170.8,57.096
721.02,169.092,74.908
756.888,173.728,16.836
772.26,168.604,-19.276
711.26,183.732,-9.272
597.8,178.608,-16.104
594.14,147.62,-15.128
638.06,101.26,-38.064
579.744,77.592,-41.48
491.172,39.772,4.392
479.216,-6.1,32.94
564.616,-36.112,37.576
605.852,-54.9,-13.908
661.972,-93.452,-34.404
697.596,-152.256,-33.916
783.484,-193.248,-73.444
900.604,-243.024,-121.512
924.516,-295.972,-93.452
1063.108,-369.66,-42.7
1258.308,-420.656,-112.484
1376.16,-479.704,-92.72
1400.072,-488.976,-51.484
1455.948,-521.184,-76.616
1505.236,-522.404,-116.876
1482.788,-504.348,-113.46
1432.524,-492.636,-87.84
1423.496,-495.808,-73.444
1362.252,-491.66,-34.16
1368.108,-485.072,-50.508
1367.132,-483.852,-84.912
1261.724,-457.5,-32.452
1213.412,-444.812,-2.196
1269.044,-427.0,-48.312
1261.724,-432.856,-54.168
1121.668,-376.98,-45.628
1007.232,-360.876,-40.26
1028.46,-389.18,-15.128
1042.612,-332.328,11.224
1032.12,-324.276,-18.056
934.276,-260.592,-56.12
777.628,-231.312,-107.36
885.72,-229.848,-62.708
1019.432,-251.32,-33.184
1092.632,-269.132,14.152
1056.276,-256.2,30.012
944.524,-177.388,7.564
932.568,-193.492,-29.28
962.824,-156.16,-69.784
994.3,-85.4,-32.696
1045.54,78.324,92.232
1145.58,-147.132,9.516
1305.644,-212.28,-108.336
1259.04,-126.148,-30.988
1183.4,5.124,-171.044
1061.4,171.532,-294.02
797.148,208.132,-212.036
673.928,235.216,-61.976
790.56,391.376,-158.844
879.132,407.724,-154.94
824.232,351.848,-80.032
752.984,465.064,-147.864
668.316,499.712,-170.8
720.288,535.092,-131.272
857.416,594.14,-211.548
798.124,711.504,-266.692
689.544,650.504,-207.888
721.264,632.448,-174.948
823.988,689.544,-165.676
905.728,673.684,-213.5
713.944,848.388,-150.304
494.1,786.656,-84.668
649.04,723.948,-106.872
737.368,757.376,-161.04
566.812,821.304,-132.98
584.624,818.132,-231.312
573.156,850.584,-189.344
414.312,896.944,-18.788
416.752,842.044,-111.752
485.56,892.308,-178.12
515.572,921.832,-168.116
440.908,946.476,-110.776
433.344,948.428,-151.28
228.14,893.772,-72.712
263.032,842.044,-71.98
358.68,940.132,-144.692
320.128,941.108,-139.324
349.164,940.864,-121.756
295.24,906.46,-51.24
235.948,877.668,-48.8
232.776,941.596,-132.248
244.732,962.336,-152.012
327.448,966.972,-142.496
295.728,959.408,-124.684
281.82,951.6,-118.34
278.892,920.368,-93.94
268.644,995.032,-140.544
288.896,1014.308,-148.596
289.14,985.516,-102.236
267.18,952.332,-97.356
309.148,931.836,-84.18
264.984,927.444,-104.92
227.164,965.752,-134.688
246.196,949.16,-72.956
285.236,950.624,-53.436
264.74,982.832,-93.452
224.724,954.772,-62.22
235.216,926.468,-62.22
277.428,960.628,-110.776
270.596,950.38,-85.888
267.668,984.296,-94.184
240.34,958.92,-77.592
248.392,977.708,-73.688
200.812,935.252,-53.924
233.508,941.108,-65.148
253.516,977.22,-102.48
231.312,966.24,-86.132
235.948,945.5,-53.68
197.64,944.28,-66.124
195.688,959.652,-78.568
242.292,976.976,-103.456
247.904,970.876,-104.432
230.824,955.504,-69.296
229.604,955.016,-69.052
204.96,955.992,-71.736
211.06,960.872,-83.448
234.728,975.268,-80.032
221.308,970.144,-81.252
209.352,944.036,-61.976
223.504,941.84,-50.508
226.432,981.856,-91.988
214.476,993.324,-97.112
234.484,976.0,-82.96
217.404,982.1,-91.256
201.788,964.776,-91.256
212.036,984.784,-69.54
228.872,998.936,-69.54
227.652,1005.036,-86.864
233.752,1017.724,-82.96
238.388,1026.02,-82.228
229.116,1037.976,-79.788
229.604,1037.244,-64.66
232.044,1071.404,-65.148
210.084,1098.488,-90.28
220.088,1124.596,-100.772
260.348,1152.168,-101.992
234.972,1158.268,-71.004
247.904,1160.708,-71.98
232.532,1125.084,-42.212
225.944,1145.58,-64.904
211.792,1163.392,-71.98
209.596,1138.748,-45.872
204.228,1127.524,-48.8
188.368,1118.74,-41.724
176.656,1098.244,-36.356
171.288,1115.812,-68.076
163.236,1093.608,-45.628
171.532,1097.268,-42.944
137.616,1075.796,-36.112
136.396,1041.88,-16.348
153.232,1056.276,-38.796
113.216,1015.04,-27.572
71.736,958.188,-27.084
67.1,965.264,-50.264
68.564,987.712,-50.508
46.604,947.94,-20.74
42.212,965.996,-34.404
16.836,970.876,-32.696
17.568,965.752,-46.848
6.1,963.068,-47.58
9.272,936.228,-4.148
-0.976,938.18,3.416
-10.248,972.828,-37.332
-37.576,954.528,-37.088
-46.36,934.52,-33.672
-96.136,880.352,-22.448
-81.984,886.696,-28.06
-73.688,894.992,-26.352
-74.908,882.304,-49.532
-130.052,839.36,-51.484
-157.624,783.728,-47.336
-150.06,754.936,-31.964
-165.92,735.66,-13.42
-169.58,704.916,-10.492
-181.536,700.524,-25.864
-194.468,726.144,-45.872
-178.364,732.0,-72.468
-208.376,727.852,-57.828
-247.904,732.732,-26.352
-222.284,774.7,-42.944
-191.052,863.76,-103.212
-203.74,946.964,-137.616
-203.252,982.1,-115.168
-166.652,1011.136,-98.576
-168.36,1016.992,-69.784
-173.484,1005.28,6.344
-115.168,1086.288,-16.348
-83.936,1195.112,-114.924
-92.476,1213.168,-107.604
-33.184,1315.648,-105.164
-19.764,1130.208,-164.944
6.344,1063.352,-158.112
-14.152,1189.5,131.516
93.208,1083.604,140.788
195.688,1034.804,-3.172
230.336,1057.252,-25.132
364.048,967.46,-27.328
332.816,891.82,-39.772
193.248,810.568,-145.424
200.324,671.244,-72.468
508.496,831.308,78.324
809.592,789.828,-115.9
679.784,595.116,-310.612
509.716,492.88,-305.244
669.536,532.896,-102.724
689.056,464.82,135.176
586.576,385.032,227.164
640.744,434.32,188.368
767.38,370.88,22.936
826.672,395.524,-83.204
869.128,412.36,-56.608
636.352,359.656,-31.232
639.524,379.664,-68.564
594.14,306.464,-36.356
601.216,282.552,-21.472
517.768,264.496,-21.228
572.18,264.984,-90.524
630.008,199.592,-54.656
615.856,157.868,51.728
569.252,104.188,72.468
507.276,122.488,7.076
542.656,104.676,-25.62
577.548,43.432,-31.72
741.76,5.124,-51.484
885.232,-50.752,-75.152
833.992,-78.324,-106.14
773.48,-101.504,-105.164
891.82,-169.824,-32.696
1004.548,-199.348,-70.76
1142.896,-266.204,-149.084
1225.368,-283.284,-163.48
1212.924,-324.032,-96.136
1313.452,-359.9,-101.504
1372.744,-385.52,-104.92
1321.26,-396.256,-60.268
1276.12,-422.364,-16.104
1408.612,-445.788,-55.144
1553.304,-450.424,-148.596
1485.228,-434.076,-145.668
1287.832,-423.34,-69.784
1306.376,-410.652,-91.744
1408.368,-402.844,-150.06
1465.22,-419.68,-195.932
1264.408,-383.324,-118.34
1250.988,-389.424,-65.148
1432.036,-390.4,-101.504
1459.12,-387.96,-117.608
1293.444,-310.856,-60.512
1083.116,-349.408,67.588
1052.86,-317.2,25.376
1102.392,-262.788,-58.56
1163.148,-244.0,-65.392
1080.188,-246.196,22.936
1130.94,-194.956,-43.676
1193.404,-102.724,-121.268
1090.192,-15.128,-115.9
1035.536,-192.272,-46.848
1072.136,-63.684,-36.844
1182.18,103.456,-48.556
1237.812,-18.544,-98.088
1185.84,8.052,-46.848
1040.416,131.76,33.428
1227.076,329.4,-329.156
999.668,211.304,-246.196
652.7,206.668,217.404
685.64,454.328,415.776
939.888,556.32,-18.544
819.84,355.752,-57.584
691.252,556.076,23.18
666.364,796.416,-83.936
620.004,800.564,-220.576
731.024,701.012,-192.516
667.34,612.684,3.66
569.74,666.364,168.36
589.016,783.24,-58.072
319.64,759.084,-187.392
213.988,793.488,-76.616
374.54,929.64,-53.192
244.976,822.036,4.392
108.58,837.164,118.34
136.64,929.396,66.612
42.456,896.7,-51.24
59.536,933.056,-149.572
129.808,950.38,-144.692
63.44,928.664,-30.744
5.856,956.724,31.964
-15.128,987.712,-34.648
41.236,968.68,-87.84
77.836,938.912,-71.004
26.352,952.088,17.08
57.828,954.772,14.396
-8.784,967.46,-21.228
-5.368,956.968,-61.244
40.992,942.572,-87.84
74.664,959.896,-82.472
20.496,977.708,-45.384
-4.636,994.788,-48.556
19.764,969.656,-40.26
83.448,969.168,-67.1
69.54,976.488,-43.92
57.34,988.444,-30.5
44.164,996.496,-47.336
117.852,985.028,-53.924
108.58,976.976,-7.32
175.436,981.124,-12.932
118.584,997.472,-7.32
113.704,986.492,0.244
98.82,979.416,4.392
91.744,981.856,7.076
139.08,979.904,-28.792
147.864,991.86,-41.48
118.584,989.176,-26.84
122.976,980.636,-28.304
135.42,976.0,-31.72
141.52,986.492,-22.448
134.2,980.392,0.976
152.5,981.368,-11.956
169.336,1014.308,-51.24
124.44,995.032,-17.568
143.472,991.616,-19.032
123.708,996.984,-25.864
112.972,987.956,-27.328
138.592,987.468,-43.432
130.296,998.692,-48.068
130.052,981.612,-26.596
137.128,971.364,-13.908
144.204,975.024,-17.568
124.196,987.956,-34.16
133.468,981.368,-37.332
149.328,991.372,-43.432
128.344,988.444,-32.452
131.028,982.588,-33.672
122.0,974.536,-14.884
124.44,974.536,-14.884
127.124,975.756,-19.032
129.076,985.028,-27.084
142.008,999.18,-46.116
127.856,990.152,-33.184
135.176,989.176,-30.744
127.856,984.54,-24.156
127.368,980.148,-31.72
125.66,979.416,-33.672
122.0,986.98,-30.988
112.972,984.296,-29.768
117.12,978.44,-33.916
122.488,972.34,-23.668
114.436,982.344,-30.988
126.88,973.804,-31.476
142.74,986.492,-42.456
132.004,992.592,-44.408
134.932,983.808,-41.236
138.348,983.564,-33.672
142.74,980.148,-23.18
131.272,982.344,-24.4
125.904,983.808,-30.012
126.392,989.176,-37.82
122.732,998.204,-49.532
124.928,993.08,-43.92
154.452,998.692,-56.364
132.248,994.056,-34.892
148.596,984.296,-30.988
142.74,990.64,-30.012
119.072,981.612,-16.592
127.368,970.876,-17.568
132.248,977.464,-30.988
133.468,987.468,-52.704
136.64,984.784,-52.46
137.128,980.392,-44.896
136.64,992.836,-47.092
129.808,988.932,-43.92
134.444,988.2,-54.412
131.028,983.808,-50.02
122.488,985.028,-48.8
120.292,981.856,-45.872
128.1,989.908,-53.924
125.416,989.664,-49.532
124.196,978.928,-37.332
140.056,972.34,-29.036
143.472,977.952,-28.792
134.2,985.272,-39.284
124.928,981.612,-42.456
127.856,974.536,-40.016
123.952,973.804,-41.724
117.852,986.004,-53.192
122.0,975.512,-41.724
138.592,987.956,-52.704
127.612,987.468,-48.068
130.052,978.44,-43.92
127.856,991.86,-45.384
110.532,979.172,-35.136
119.56,975.512,-39.528
127.124,987.712,-38.796
142.008,981.368,-28.548
146.888,994.056,-40.26
113.46,989.42,-30.012
114.68,979.66,-25.376
130.784,982.832,-37.576
120.292,983.564,-40.504
122.0,980.636,-38.064
122.244,983.564,-33.916
121.512,984.784,-42.456
120.536,988.2,-53.924
118.096,982.832,-45.628
123.22,983.32,-34.16
130.54,988.2,-39.04
127.612,991.372,-49.044
122.488,982.588,-44.652
112.484,978.44,-34.892
