acc_x[mg],acc_y[mg],acc_z[mg]
178.12,956.48,68.076
183.976,963.068,69.784
191.54,973.56,66.612
190.076,979.904,62.22
183.976,984.54,53.192
177.388,987.468,49.776
177.144,988.2,50.02
175.192,985.272,50.264
173.24,979.66,47.824
174.216,975.756,49.044
178.852,974.536,54.9
181.78,975.512,59.78
183.0,974.292,60.512
186.172,971.12,62.22
182.756,970.632,60.024
180.56,973.316,54.9
179.096,978.196,54.656
179.096,981.612,53.68
179.34,984.784,50.264
173.972,983.808,46.36
169.58,980.636,49.532
170.556,980.636,50.02
168.116,980.392,52.948
173.484,981.856,48.068
180.804,986.248,52.46
167.872,981.856,60.268
167.628,978.928,55.144
156.648,975.268,65.88
159.332,978.684,63.44
156.892,986.736,60.024
154.208,987.224,50.02
153.964,990.396,44.164
151.28,994.3,43.432
156.404,995.032,45.384
150.548,989.664,43.432
151.524,982.344,41.236
155.916,983.564,42.944
162.748,984.296,39.772
161.284,981.124,41.236
161.772,976.244,48.312
163.48,974.536,54.168
166.652,972.096,59.048
166.652,966.728,61.0
167.14,964.532,61.0
171.044,965.264,62.22
169.336,971.12,64.66
167.872,974.536,63.928
172.02,978.928,61.976
173.24,986.004,59.048
173.484,989.176,56.608
173.972,991.372,52.704
169.336,987.712,55.876
173.484,988.932,54.656
168.36,986.98,56.852
168.848,981.612,58.56
173.484,988.688,53.436
172.264,986.492,55.388
173.728,984.296,52.46
166.896,978.928,52.948
169.092,981.124,54.412
164.944,984.784,56.12
169.092,984.784,47.58
169.58,999.668,40.016
160.796,1004.792,41.48
164.7,1019.432,39.772
162.992,1037.732,39.528
151.036,1042.856,39.284
143.716,1029.68,39.284
136.396,1019.676,41.48
135.664,1006.744,46.604
139.324,991.86,58.804
144.692,976.732,66.368
147.864,962.336,68.564
153.232,949.404,71.492
153.232,943.792,77.348
148.84,941.108,77.348
144.936,946.232,76.616
136.884,956.48,74.176
136.64,968.436,66.856
133.224,983.32,60.512
134.444,1015.04,48.556
132.492,1064.328,46.116
130.052,1118.008,43.188
141.032,1166.564,17.324
158.112,1207.8,-1.952
81.984,1261.48,44.896
94.672,1287.344,24.644
61.244,1273.436,39.04
53.924,1238.056,80.764
-30.256,1162.904,150.06
-54.656,1114.592,157.136
-28.548,1104.832,172.264
-58.56,1052.616,173.728
-84.668,1015.772,137.86
-128.588,1021.872,169.824
-97.112,1044.32,157.136
-70.516,1073.6,206.668
-50.02,1019.188,185.196
-52.216,1036.756,188.856
1.952,982.832,132.736
101.992,985.028,123.952
164.456,982.344,249.612
223.26,965.996,336.232
264.496,941.352,373.32
304.268,902.312,407.724
315.004,760.06,530.212
323.056,491.66,725.168
373.564,305.976,762.744
405.04,243.756,824.964
332.572,202.764,862.296
230.336,136.884,782.508
376.004,55.388,620.004
494.832,-21.472,463.6
506.056,-115.168,223.26
580.232,-132.736,-14.884
694.912,-84.18,-160.308
562.908,-32.94,-297.192
493.368,139.08,-539.24
798.856,310.856,-715.164
739.808,256.932,-706.136
728.34,166.896,-867.42
842.776,131.028,-936.228
947.94,216.184,-908.412
959.164,296.216,-884.744
908.656,328.668,-828.868
876.204,355.02,-761.768
827.892,407.724,-689.3
856.44,403.332,-560.712
958.188,369.172,-507.52
1010.648,306.22,-429.196
881.572,265.228,-272.06
592.432,331.108,-119.804
422.12,357.948,-58.072
778.116,219.356,-156.892
1122.888,117.852,-7.32
945.256,142.74,105.896
478.972,39.284,117.852
846.436,-4.636,-33.184
1457.412,12.2,-97.844
1579.412,11.224,-101.504
1565.26,-22.448,-268.4
1368.84,-182.024,-320.372
1354.688,-162.748,-502.396
1609.18,77.348,-737.856
1735.328,189.588,-750.056
1630.164,171.532,-787.876
1497.672,84.668,-757.62
1458.876,-109.8,-600.972
1423.252,-295.728,-533.14
1301.008,-437.492,-579.988
1140.944,-435.052,-576.572
959.408,-379.176,-477.508
884.988,-305.976,-463.844
843.996,-318.664,-546.56
835.212,-334.524,-683.2
801.54,-218.868,-710.772
689.788,-72.712,-735.904
542.656,24.888,-764.208
471.408,123.22,-819.84
608.048,145.424,-803.736
765.184,183.0,-695.4
770.796,179.584,-576.572
691.252,143.96,-546.804
606.34,224.236,-536.556
645.624,270.108,-541.192
931.104,335.256,-551.196
1082.14,541.924,-521.428
962.092,721.752,-464.332
848.144,821.548,-491.904
845.948,819.84,-480.436
823.744,887.428,-384.3
717.36,977.464,-379.176
558.76,935.252,-335.744
460.184,908.412,-236.192
331.108,895.48,-148.84
290.36,917.928,-107.36
334.036,992.348,-95.892
215.452,1013.332,-63.196
126.392,923.052,-0.976
220.332,915.488,23.912
131.516,882.304,55.388
-26.84,787.144,51.24
-234.24,676.124,144.936
-216.672,592.432,168.36
-284.016,586.332,260.104
-359.9,590.48,295.484
-419.924,568.52,297.68
-439.444,604.632,278.648
-407.968,656.116,252.784
-350.384,745.908,204.472
-298.168,829.356,160.308
-268.156,922.32,143.228
-244.488,1013.332,138.348
-218.624,1074.576,149.572
-208.62,1079.456,157.136
-219.112,1066.036,153.232
-215.452,1039.684,151.036
-210.572,1012.356,151.28
-233.264,977.708,155.428
-237.9,957.7,138.836
-241.072,950.868,137.616
-224.48,951.356,131.516
-223.26,951.112,123.464
-224.968,948.184,117.364
-233.264,945.744,122.0
-212.524,948.916,111.02
-221.552,945.5,115.168
-228.384,945.5,121.024
-230.58,936.96,127.368
-230.824,932.08,122.976
-235.216,936.96,128.588
-226.676,939.644,133.468
-224.724,942.572,136.396
-227.896,945.988,133.956
-205.204,967.216,123.22
-208.132,974.536,129.564
-210.328,973.316,131.028
-219.112,967.948,131.272
-239.12,958.188,135.176
-241.804,957.456,126.88
-236.68,955.26,111.996
-212.28,968.68,85.644
-199.836,978.196,72.712
-185.928,986.98,64.66
-179.584,993.08,61.244
-174.46,1007.964,50.264
-160.308,1031.632,16.836
-193.248,1036.512,8.54
-220.332,1054.324,15.616
-198.372,1081.652,8.54
-184.22,1088.484,-9.272
-210.328,1082.628,-0.976
-229.848,1052.616,12.932
-258.152,1019.188,33.916
-236.68,1020.408,16.348
-193.492,1014.064,-19.276
-200.08,996.984,-24.644
-173.484,1002.84,0.244
-77.104,1030.412,6.588
28.304,1060.912,-13.42
16.836,1074.576,-7.564
-30.5,1060.668,20.74
-26.84,1053.348,53.68
17.812,1051.152,106.384
87.84,1062.864,175.436
145.912,1097.756,233.264
209.352,1133.136,252.54
265.96,1091.656,281.088
305.0,1043.344,324.276
301.828,992.348,379.176
269.132,908.412,480.924
303.536,807.64,625.86
470.432,641.232,705.648
523.38,368.44,865.224
477.508,75.152,954.284
387.472,-210.084,815.448
205.448,-267.424,836.432
263.52,-192.028,712.236
466.528,-55.144,386.496
637.572,19.764,156.648
677.1,25.376,-72.224
840.336,43.92,-268.888
682.224,106.384,-427.732
369.172,69.54,-622.2
564.128,285.968,-901.092
1087.264,673.684,-1220.244
1029.924,704.916,-1063.108
774.212,547.292,-964.044
745.42,493.612,-1011.38
787.632,403.576,-857.172
749.812,321.104,-599.996
670.024,376.004,-466.528
657.824,420.656,-423.828
752.008,376.248,-324.52
906.704,182.268,-165.92
888.16,72.224,56.12
777.14,22.204,101.748
557.784,-162.748,264.74
610.244,-284.504,430.904
963.312,-176.656,467.016
1158.756,-106.14,385.764
1226.1,-7.564,349.896
1372.256,1.22,177.388
1481.568,-104.188,11.468
1570.872,-112.972,-178.608
1792.912,92.232,-474.58
1837.32,278.16,-486.78
1694.092,281.576,-388.936
1537.444,160.308,-463.6
1422.032,-20.496,-494.344
1335.9,-162.016,-508.74
1192.916,-193.492,-549.976
1050.908,-160.308,-512.4
938.912,-189.588,-509.716
883.524,-209.84,-520.696
855.464,-236.436,-593.652
877.18,-219.844,-741.516
905.24,-39.772,-851.804
764.452,88.816,-833.504
741.76,149.084,-730.292
875.96,195.932,-712.724
1021.872,179.096,-731.024
1027.484,167.628,-665.876
990.884,238.632,-623.176
896.456,456.28,-532.652
823.256,557.052,-480.436
901.092,556.564,-471.896
918.66,656.36,-394.548
786.168,784.704,-275.476
544.364,843.996,-220.088
309.392,813.496,-88.328
274.012,813.496,-46.36
198.86,751.276,-17.08
127.856,794.464,42.7
-24.644,770.064,82.96
-86.62,677.588,120.536
-14.152,654.164,175.436
-108.824,660.508,220.332
-269.132,619.76,249.368
-225.944,642.452,215.94
-169.824,706.136,198.128
-198.372,734.196,226.92
-218.624,755.912,196.908
-246.196,752.252,154.696
-223.016,774.944,150.304
-208.376,861.32,155.916
-229.848,979.416,192.028
-196.42,1074.576,186.416
-184.708,1140.212,141.276
-161.772,1183.888,107.604
-129.32,1203.652,103.212
-153.964,1179.252,124.44
-181.048,1126.304,118.584
-202.764,1065.548,127.856
-194.224,1028.216,109.312
-183.976,1009.916,81.252
-169.58,999.424,65.636
-155.672,996.252,46.36
-169.824,977.464,57.34
-168.36,965.508,55.632
-183.488,950.136,65.148
-171.044,951.6,62.708
-148.596,964.776,41.968
-147.376,972.828,50.508
-142.008,990.64,55.876
-154.208,983.32,71.248
-156.648,970.876,78.08
-149.084,965.996,72.468
-151.28,958.92,75.64
-139.324,962.58,64.416
-140.3,955.26,69.54
-138.836,956.724,78.568
-149.816,952.332,90.768
-147.864,955.748,84.424
-148.84,958.188,77.592
-153.964,957.7,72.956
-155.672,962.336,75.64
-148.596,971.12,67.344
-155.916,985.028,55.388
-159.82,1006.012,26.352
-162.992,1011.868,16.104
-192.028,1006.744,30.5
-240.34,1028.46,16.836
-320.128,1053.592,13.42
-370.392,1100.44,16.104
-371.368,1150.948,25.864
-321.592,1183.888,43.432
-249.124,1184.132,77.836
-189.1,1170.956,125.416
-117.364,1136.796,177.876
-83.936,1069.94,242.292
-66.612,1011.136,311.344
-5.368,992.104,365.024
95.16,964.776,389.912
186.66,939.888,385.764
205.204,926.224,446.032
188.612,930.616,520.208
177.388,915.0,574.132
164.7,898.408,579.744
203.252,874.252,581.452
274.988,865.956,617.564
379.908,858.88,588.284
411.872,823.5,588.04
417.24,783.24,602.68
457.988,727.364,601.216
547.78,670.024,602.436
585.844,608.048,649.284
553.88,484.584,790.072
504.104,293.044,854.976
639.524,100.284,758.596
662.948,79.056,754.692
275.232,183.732,954.528
77.348,166.164,955.26
311.1,131.272,681.736
377.224,151.28,567.3
423.584,109.556,416.752
331.596,83.692,280.6
292.312,103.944,184.464
223.26,115.168,-25.132
393.572,259.616,-386.984
902.068,481.168,-387.716
975.756,461.404,-407.968
773.968,373.808,-523.136
514.352,430.66,-640.988
711.26,563.884,-965.996
1128.256,687.348,-955.26
1218.292,795.196,-907.68
1127.036,727.12,-874.496
974.536,658.556,-799.1
883.524,449.936,-636.352
769.576,267.424,-392.84
759.084,62.22,-167.384
849.852,-55.632,22.204
839.36,-58.804,215.452
774.212,-204.472,446.276
773.724,-240.584,565.348
908.656,-86.376,652.7
995.764,22.692,574.132
1231.468,184.464,440.176
1522.804,156.16,266.936
1644.804,-16.104,97.6
1637.972,-183.732,-20.252
1590.636,-169.092,-278.892
1552.084,47.092,-423.096
1727.52,245.952,-494.344
1767.536,268.888,-500.932
1672.864,126.148,-517.768
1596.736,-40.504,-581.696
1533.296,-132.492,-621.712
1433.744,-159.332,-595.848
1248.548,-196.908,-523.868
1081.408,-219.844,-486.78
949.16,-202.52,-511.668
831.308,-133.712,-568.032
899.872,-30.256,-648.796
880.596,103.212,-680.028
735.904,268.888,-635.376
543.144,450.18,-690.52
353.8,535.092,-634.888
307.44,611.952,-552.904
476.776,610.732,-568.764
481.412,686.616,-471.408
267.18,695.644,-387.472
209.84,629.276,-350.14
334.036,607.316,-324.032
224.236,677.344,-280.6
12.932,739.076,-173.972
-56.852,725.9,-104.92
50.996,699.304,-41.724
140.788,624.884,53.192
89.548,618.54,283.284
101.016,661.728,424.072
159.332,680.76,536.8
200.812,709.308,643.916
264.74,764.696,633.424
302.56,856.928,543.144
324.764,1005.28,432.124
313.052,1121.18,356.728
293.532,1222.196,292.312
228.14,1275.144,242.048
156.16,1243.424,207.156
108.336,1174.128,174.704
82.96,1113.616,142.984
69.296,1054.08,134.932
84.668,1014.064,131.272
97.844,1006.988,122.488
99.308,992.104,129.564
127.368,989.664,132.736
116.388,973.56,146.644
162.016,988.688,123.22
143.716,978.928,135.42
167.872,969.412,121.024
190.564,991.372,111.508
156.892,978.196,130.296
142.984,960.384,126.88
178.852,976.976,107.116
181.536,975.512,107.604
164.944,953.064,118.34
173.24,972.828,108.58
142.252,972.584,127.368
121.268,952.332,136.152
127.612,949.648,124.684
142.252,973.804,113.46
134.932,971.608,114.192
121.268,967.948,112.972
130.296,991.616,108.092
106.872,993.08,121.268
106.872,986.004,128.1
86.864,991.128,127.368
136.64,1017.724,105.164
156.404,1026.508,106.872
176.412,1018.7,97.844
174.216,1008.452,94.184
143.228,973.316,107.116
103.7,927.444,97.356
89.548,912.56,69.052
88.572,934.52,60.024
98.332,974.292,57.584
88.816,1003.084,57.34
72.956,1003.572,68.564
71.736,996.496,71.98
75.396,1004.792,71.736
65.88,987.956,81.496
62.464,978.684,80.764
67.1,978.44,69.052
54.168,974.536,81.496
51.972,983.32,69.54
81.984,1016.748,40.504
83.204,1016.992,48.068
73.2,1014.308,53.68
63.196,1014.064,50.508
50.264,986.736,71.736
39.528,974.048,77.836
35.136,966.484,72.956
46.116,952.088,76.616
58.56,957.212,72.956
54.168,978.44,62.952
60.512,993.812,62.952
68.564,1000.156,61.0
56.852,989.908,67.588
60.024,977.952,68.32
61.244,978.44,62.464
70.76,990.884,53.68
64.904,998.204,49.044
61.976,993.812,46.116
62.22,989.664,44.164
67.588,992.104,47.58
64.172,997.472,45.872
55.632,998.448,42.212
55.876,998.204,44.652
56.364,994.544,45.872
55.144,996.984,41.48
47.092,989.908,44.652
55.632,987.956,41.48
48.556,985.76,43.676
55.144,996.252,40.26
55.632,1000.156,46.604
56.12,994.788,49.288
67.1,998.448,37.332
60.756,989.664,45.14
59.536,988.688,50.508
56.364,992.104,42.944
56.608,984.296,49.532
60.512,979.904,45.384
66.124,990.884,30.012
58.072,978.684,41.724
58.56,985.272,40.26
53.436,977.464,43.432
59.536,972.34,45.872
55.388,976.488,39.528
57.096,980.88,35.624
57.828,998.204,24.644
49.532,1012.356,14.884
36.112,1022.36,13.42
26.352,1026.996,19.032
15.128,1038.22,18.788
6.1,1049.932,14.884
4.88,1062.62,15.128
2.44,1092.144,22.204
17.324,1121.18,25.864
29.524,1130.452,28.304
11.468,1129.476,43.676
-15.128,1129.476,52.216
-39.528,1129.232,66.124
-44.164,1151.68,89.548
-30.744,1178.032,102.48
-30.012,1176.08,128.344
-40.26,1169.98,158.6
-60.268,1155.34,183.488
-79.544,1124.108,208.864
-60.756,1102.88,236.924
-43.188,1073.356,266.448
-48.068,1035.048,298.9
-36.356,1004.548,330.376
21.96,984.54,326.472
64.66,985.76,328.668
109.8,978.928,324.764
119.804,957.944,350.872
167.628,924.516,418.46
270.84,972.828,481.412
374.052,972.584,496.052
423.584,929.396,502.64
439.444,861.32,485.804
421.388,768.112,500.444
453.352,587.064,553.88
381.86,300.852,708.088
509.716,43.676,764.208
719.312,-175.924,805.688
651.968,-418.704,723.948
348.92,-644.404,629.764
233.996,-520.696,536.068
396.988,-250.588,160.552
777.14,155.916,-257.664
819.596,286.456,-411.14
635.132,176.9,-582.916
579.256,96.38,-744.2
698.084,119.316,-815.204
874.984,187.88,-809.104
1068.72,288.652,-820.816
1121.424,423.096,-877.424
1181.204,533.14,-830.576
1146.556,526.796,-738.832
880.108,518.256,-627.812
662.704,549.488,-538.752
617.32,468.968,-355.752
652.7,315.248,-163.48
580.72,74.176,105.896
490.684,-41.724,239.12
484.096,-196.908,278.892
611.464,-195.688,345.992
902.556,-114.436,352.824
979.66,65.88,258.396
1184.62,156.16,69.052
1590.88,111.264,-112.728
1727.764,-30.012,-227.408
1629.676,-73.444,-452.864
1563.064,27.572,-666.608
1658.468,158.844,-777.872
1631.384,144.448,-849.608
1474.248,103.944,-883.524
1314.184,46.36,-850.828
1234.884,-126.148,-751.764
1238.544,-240.34,-790.316
1178.52,-314.516,-777.384
1025.288,-390.156,-744.2
886.696,-375.028,-733.952
819.352,-367.464,-750.056
771.04,-297.68,-721.508
720.044,-200.568,-749.568
732.732,-92.72,-722.728
681.98,20.252,-684.176
683.932,46.848,-666.852
703.208,58.804,-591.944
740.052,91.744,-480.192
753.716,140.3,-436.76
733.952,178.12,-439.932
778.116,153.72,-416.996
826.428,212.524,-357.948
844.484,365.512,-360.388
781.532,518.744,-386.984
743.468,627.568,-413.58
819.352,743.712,-483.608
915.976,835.7,-583.648
988.2,829.844,-627.324
1082.14,744.444,-523.136
963.068,782.508,-354.532
656.604,790.316,-239.364
355.264,754.692,-145.668
92.476,705.16,-3.172
-9.272,654.164,96.136
125.904,628.3,198.616
101.992,665.632,363.56
-17.324,677.832,414.556
-91.5,656.604,353.068
-109.312,638.548,354.288
-119.56,669.048,370.392
-159.82,707.844,332.328
-241.072,749.08,278.16
-253.76,819.108,248.148
-217.404,882.304,218.868
-275.964,905.728,210.572
-265.472,955.504,170.556
-204.96,1062.62,126.636
-177.876,1137.04,101.748
-169.824,1162.416,88.816
-158.356,1160.464,57.584
-199.836,1119.96,59.536
-157.624,1093.852,29.768
-187.636,1044.076,47.092
-177.876,1020.652,30.744
-180.072,1008.696,18.544
-190.32,971.364,32.452
-158.112,973.56,2.44
-144.204,995.276,-14.396
-144.692,975.756,9.272
-141.276,958.92,14.884
-126.636,961.116,16.592
-137.616,962.336,25.132
-135.664,954.772,24.4
-120.536,967.948,24.4
-125.904,984.784,21.472
-139.08,975.024,29.768
-127.612,971.364,27.084
-156.404,971.608,32.696
-164.456,965.996,25.132
-148.596,977.952,17.324
-151.28,985.76,18.788
-153.476,987.956,23.668
-161.528,982.1,32.452
-143.716,981.612,23.668
-146.888,984.54,20.74
-148.352,981.124,24.644
-143.716,981.124,23.424
-156.892,972.096,23.668
-163.968,956.724,22.204
-149.084,965.02,8.052
-139.812,989.42,-2.684
-142.74,989.664,0.976
-139.812,987.956,-0.488
-156.404,982.1,11.468
-154.208,972.584,11.224
-144.692,971.364,5.124
-147.376,972.34,-1.708
-147.376,972.34,-5.612
-154.208,968.68,3.416
-159.088,967.46,7.564
-153.72,968.192,5.368
-145.424,969.412,3.904
-142.984,979.172,-1.464
-149.572,974.536,5.856
-139.812,980.392,1.464
-150.06,973.804,4.148
-153.232,968.924,6.344
-141.032,979.416,-1.952
-142.984,986.98,4.392
-142.74,986.736,6.344
-147.864,984.784,8.784
-152.744,974.536,13.908
-139.568,969.412,4.88
-137.372,966.972,2.928
-145.18,965.508,0.976
-142.984,970.388,-4.636
-144.692,972.584,1.708
-146.156,978.684,-2.684
-144.448,977.464,-9.76
-146.888,973.56,-10.248
-150.548,972.34,-15.616
-152.5,970.876,-18.544
-143.716,966.24,-18.056
-138.592,970.876,-22.204
-136.64,972.096,-22.204
-144.448,969.9,-20.984
-149.328,963.556,-18.3
-146.888,955.504,-16.592
-141.032,954.284,-20.008
-142.74,963.068,-23.424
-142.74,967.948,-18.788
-139.812,971.608,-15.372
-140.056,974.78,-13.42
-133.224,988.932,-17.568
-133.224,1001.376,-19.764
-132.492,1016.504,-24.156
-148.596,1037.244,-33.184
-173.972,1064.328,-40.748
-213.012,1123.62,-55.632
-264.496,1195.6,-59.048
-308.904,1240.74,-60.512
-341.112,1261.724,-65.636
-343.308,1273.436,-57.096
-309.636,1265.872,-21.716
-277.428,1237.324,31.232
-254.248,1196.82,68.808
-257.176,1133.38,111.508
-232.776,1101.66,150.06
-137.616,1071.892,165.92
-63.684,1015.04,175.68
-38.308,966.728,202.276
-29.768,910.608,248.88
-24.644,869.616,303.292
17.812,834.236,328.668
82.472,812.764,374.296
224.236,814.228,384.3
365.268,826.428,405.284
455.06,881.816,461.892
539.972,831.064,524.356
652.944,674.904,555.1
704.428,428.22,591.212
555.832,173.728,748.348
187.636,-162.016,1044.808
195.932,-399.428,955.26
424.316,-318.664,802.516
464.332,-181.048,542.412
479.704,-77.836,98.576
448.96,-19.276,-262.3
649.04,168.36,-537.044
819.352,405.284,-574.376
624.884,268.4,-605.12
429.196,25.62,-850.34
436.028,116.388,-1075.796
749.812,390.888,-1275.388
933.788,556.564,-1300.764
950.38,555.588,-1245.62
955.26,517.524,-1199.26
947.94,382.592,-1090.924
832.772,268.156,-893.528
731.756,276.94,-757.864
637.084,337.94,-626.592
552.904,274.988,-466.04
459.208,136.396,-266.692
389.912,-16.836,-91.744
461.892,-138.592,-21.228
756.156,-241.56,88.572
951.844,-152.988,156.404
979.172,11.224,49.532
1037.488,140.788,-146.4
1085.8,143.96,-292.8
1162.172,124.44,-455.304
1165.832,62.464,-606.096
1249.524,63.928,-732.976
1476.932,103.7,-853.756
1553.304,48.8,-891.82
1493.524,44.896,-1000.156
1406.904,55.388,-1047.736
1331.02,-1.22,-1019.676
1244.888,-141.52,-954.04
1157.78,-260.836,-872.056
1072.868,-371.124,-862.296
1013.82,-406.26,-865.224
923.296,-412.848,-814.96
793.244,-367.952,-800.076
749.08,-244.0,-837.896
712.968,-60.268,-919.392
653.188,108.58,-899.14
579.988,214.72,-812.764
577.06,255.956,-774.944
599.752,257.42,-744.444
643.428,208.376,-660.02
654.652,225.456,-575.596
646.112,322.568,-519.964
676.612,377.468,-529.236
723.704,436.028,-505.08
767.868,545.096,-466.04
706.868,716.14,-406.016
621.712,827.648,-383.08
624.396,839.604,-391.864
621.956,862.296,-348.92
592.188,843.752,-280.844
562.908,760.792,-220.332
483.12,774.944,-117.12
157.868,819.596,19.52
-125.904,741.272,115.656
-17.812,742.004,142.008
119.072,664.9,169.58
-14.884,660.508,314.76
-295.484,706.38,344.284
-368.196,704.184,307.44
-324.276,758.596,280.844
-285.968,832.284,234.484
-308.172,891.332,173.24
-317.2,941.84,93.94
-325.008,960.628,80.276
-247.66,1002.108,50.996
-280.6,998.204,92.964
-307.684,984.052,82.472
-312.808,978.684,44.896
-308.904,954.04,48.312
-246.44,987.956,29.524
-246.928,998.936,36.844
-261.324,985.028,65.636
-247.416,981.856,54.656
-276.94,953.796,73.2
-229.848,958.188,46.604
-245.464,957.212,55.632
-253.272,943.548,63.196
-253.272,946.964,62.464
-267.424,948.428,69.784
-241.316,956.968,55.632
-232.288,966.484,42.944
-220.332,968.192,39.284
-227.896,961.116,49.776
-233.752,960.872,49.288
-240.34,958.188,49.288
-236.436,958.92,46.116
-230.58,963.068,44.652
-232.044,962.092,42.212
-237.656,962.58,36.112
-244.976,950.136,38.064
-227.164,961.604,28.792
-246.196,951.356,40.992
-232.044,954.772,38.552
-245.708,962.336,40.748
-248.88,952.576,47.092
-229.604,961.604,41.724
-241.56,960.14,40.748
-210.328,970.388,20.74
-217.16,971.608,31.232
-224.48,966.484,38.064
-222.772,964.776,41.236
-236.924,949.16,46.848
-228.872,938.18,39.528
-224.968,940.62,36.6
-223.26,943.792,30.256
-223.504,953.796,29.28
-228.872,961.116,33.916
-227.164,959.652,31.72
-223.26,958.432,32.452
-224.724,959.652,31.476
-228.872,956.724,32.696
-220.576,958.432,26.108
-228.384,959.896,33.916
-223.504,962.336,34.892
-214.964,966.728,29.524
-207.4,966.972,22.692
-221.308,963.8,27.572
-225.212,969.168,28.06
-228.628,968.924,26.596
-225.944,960.384,26.596
-226.92,962.58,19.52
-226.92,964.044,25.132
-218.868,970.876,29.28
-222.04,969.168,32.696
-218.868,965.996,33.184
-218.624,962.092,30.256
-216.672,965.02,24.888
-215.452,964.532,24.888
-217.16,966.972,19.52
-223.504,967.948,13.908
-227.652,969.656,14.152
-238.632,973.56,9.76
-254.98,983.076,3.66
-263.032,1009.916,0.244
-266.448,1035.536,-3.172
-279.624,1057.74,-13.42
-303.78,1086.288,-15.128
-329.644,1108.248,-10.98
-351.604,1120.936,-14.884
-354.044,1127.768,-25.132
-327.692,1121.912,-19.52
-282.308,1088.728,11.712
-259.616,1045.052,47.58
-260.836,999.912,87.596
-255.712,956.48,126.88
-250.588,902.312,174.948
-243.268,857.904,218.868
-185.928,833.992,224.236
-90.768,868.64,229.116
-23.18,911.584,260.348
-3.66,975.024,322.568
61.0,1018.944,353.068
103.212,1060.668,386.008
83.204,1055.056,432.856
72.468,1023.824,454.572
158.6,1017.724,440.908
152.012,1008.452,478.972
13.664,918.66,611.22
-14.396,755.668,659.044
144.692,505.568,772.504
339.16,273.28,958.676
286.944,25.376,1049.932
125.66,-202.276,1003.328
122.244,-296.704,955.26
227.164,-348.92,836.188
250.344,-329.644,479.948
476.776,-209.352,-0.244
802.516,120.292,-439.2
945.5,347.944,-522.892
721.264,325.008,-599.752
563.64,264.74,-955.26
536.8,270.84,-1204.14
828.38,360.388,-1269.532
927.444,429.44,-1250.012
875.96,398.94,-1196.332
948.672,392.596,-1133.624
1024.068,375.76,-982.1
1006.256,352.336,-823.012
868.152,271.572,-691.496
649.772,194.712,-521.672
495.32,96.38,-324.276
553.88,-66.124,-103.456
777.872,-57.828,28.06
1009.672,-144.448,99.064
1117.52,-209.596,210.816
926.712,16.348,388.936
787.632,184.464,339.648
984.54,283.04,181.292
1211.46,275.964,41.48
1414.956,227.164,-127.856
1346.148,97.356,-181.292
1159.976,-75.152,-300.364
1157.292,-79.544,-466.528
1375.672,-2.196,-687.104
1494.012,15.372,-722.484
1437.892,-27.816,-755.18
1347.856,-52.216,-865.956
1254.404,-90.524,-885.232
1249.28,-176.412,-877.668
1192.184,-306.952,-861.564
1140.944,-419.68,-838.14
1029.192,-474.336,-717.848
1009.184,-476.776,-663.436
937.936,-454.328,-743.468
862.296,-313.54,-852.536
770.308,-94.916,-833.26
740.296,94.428,-795.684
732.0,238.144,-823.744
746.64,387.228,-809.836
798.368,417.728,-705.404
842.532,354.532,-627.324
841.068,293.776,-570.228
885.72,287.188,-505.324
851.316,400.648,-371.124
744.932,540.948,-306.708
697.596,595.36,-287.676
742.736,593.652,-223.504
785.924,609.268,-154.452
633.668,612.44,-72.224
218.624,599.02,72.956
-125.172,553.392,183.244
-194.712,510.936,204.96
-197.396,488.244,287.92
-301.584,525.576,419.436
-306.464,574.864,385.032
-267.424,663.68,305.0
-239.364,759.572,250.1
-168.36,840.336,178.608
-171.532,900.116,152.5
-132.736,991.616,108.58
-73.444,1084.092,65.148
-60.756,1135.82,47.58
-47.58,1139.48,62.952
-27.816,1135.576,78.812
-53.192,1119.472,68.808
-81.252,1095.072,49.044
-88.816,1076.04,47.824
-54.9,1076.772,40.748
-50.02,1070.428,54.168
-62.952,1054.812,45.628
-78.568,1029.924,43.188
-74.664,1009.672,40.016
-44.652,1010.648,36.6
-53.436,1008.696,41.724
-50.508,995.032,32.94
-30.256,1003.084,12.444
-51.728,992.348,23.912
-32.208,991.86,34.892
-41.236,988.444,55.876
-72.712,957.944,66.856
-34.16,964.044,50.752
-8.784,990.152,44.164
-10.248,990.152,51.728
0.976,1000.888,57.828
-12.688,1005.768,67.588
-7.564,1003.816,53.924
-19.764,991.128,48.068
-17.568,1002.84,41.48
-45.14,995.276,49.776
-71.248,981.124,58.56
-79.544,968.924,51.972
-61.732,970.876,33.184
-59.292,975.512,27.084
-52.46,990.64,19.032
-58.316,1001.376,22.448
-68.564,993.812,26.596
-74.664,981.368,33.672
-71.98,979.416,37.088
-65.636,979.904,31.232
-55.632,980.392,21.716
-49.288,984.54,18.544
-56.364,986.98,24.4
-69.54,977.464,30.988
-75.64,968.192,34.892
-72.956,964.288,30.744
-65.392,967.948,20.984
-51.728,986.736,12.688
-66.368,991.86,14.64
-62.952,991.86,12.932
-65.636,995.032,19.032
-74.908,979.66,26.108
-70.76,978.928,27.816
-71.98,982.1,25.62
-65.148,982.832,19.276
-59.536,1001.62,12.444
-61.244,1010.404,19.764
-78.08,1012.356,29.524
-85.4,1000.888,32.452
-87.352,989.176,34.892
-71.736,983.32,27.084
-60.024,989.664,19.764
-58.804,997.472,19.52
-61.976,1006.256,20.008
-73.932,999.424,19.276
-83.936,986.98,16.592
-82.96,978.684,12.444
-79.788,973.072,10.98
-81.984,974.292,9.272
-80.52,982.1,11.956
-76.372,989.176,10.736
-72.468,989.908,14.152
-80.276,986.492,21.228
-76.128,988.688,22.448
-76.372,986.98,22.204
-77.592,981.124,17.812
-75.64,985.272,14.884
-73.932,992.348,18.788
-78.324,996.74,17.324
-80.276,990.884,17.324
-81.74,984.54,20.252
-81.74,981.856,21.228
-76.86,979.172,18.544
-79.788,977.708,20.008
-81.74,978.684,22.448
-88.084,977.952,28.304
-85.4,974.292,25.62
-81.008,970.144,21.716
-79.544,974.292,21.472
-82.96,981.368,20.008
-85.4,982.832,24.888
-86.376,983.32,26.596
-84.668,982.588,26.596
-81.496,992.592,19.52
-82.716,994.788,20.74
-81.74,1005.524,20.496
-88.572,1012.356,25.132
-93.208,1014.308,30.012
-94.428,1014.552,30.744
-92.232,1011.624,27.816
-88.816,1007.232,31.232
-91.5,1005.524,30.744
-92.72,1004.548,31.232
-95.648,1002.84,34.648
-105.164,1000.4,32.94
-101.748,999.18,28.548
-105.896,1002.108,23.424
-111.264,1009.428,17.812
-121.024,1026.752,17.568
-130.052,1022.36,21.716
-145.18,1018.456,22.448
-146.4,1011.868,26.108
-137.128,1012.844,26.352
-139.324,1007.476,30.012
-138.836,1006.5,29.768
-153.72,1008.208,38.308
-183.244,1019.188,42.456
-228.628,1034.804,44.896
-221.308,1067.744,43.432
-229.36,1095.56,36.356
-212.036,1108.98,23.668
-224.724,1110.2,30.012
-284.748,1103.368,41.48
-318.664,1128.012,75.152
-301.828,1123.864,90.768
-284.504,1130.696,108.336
-238.388,1114.592,101.016
-218.868,1081.896,104.188
-270.108,1059.936,140.788
-248.636,1028.948,128.1
-142.008,1015.772,121.512
-19.276,1007.476,137.616
38.796,976.976,152.012
-65.392,929.152,177.632
-118.096,901.58,155.916
-55.632,875.96,122.488
-23.424,828.868,91.012
7.564,875.228,93.696
71.98,886.452,88.084
-24.888,881.084,121.756
-72.224,886.452,90.768
-40.26,841.312,38.552
-39.528,665.632,43.188
176.9,497.516,61.244
596.824,317.688,-40.016
973.56,-18.3,-64.172
673.196,-169.58,117.364
641.476,172.508,-422.852
1384.212,788.12,-478.972
983.076,609.268,-243.756
828.38,440.42,-584.38
910.364,95.648,-574.132
1159.976,14.64,-397.476
1101.66,135.664,-323.056
942.572,248.636,-300.852
872.544,310.368,-258.884
842.776,351.848,-262.3
883.524,381.86,-292.8
1000.644,418.704,-289.14
1072.868,475.556,-254.736
1096.78,498.98,-185.684
1091.9,474.58,-89.304
1133.136,429.44,16.104
1261.968,365.512,110.044
1318.576,270.108,183.244
1216.096,191.052,240.828
1106.54,152.5,235.46
1005.036,142.252,170.068
897.432,91.988,111.752
850.584,-2.684,-3.66
824.232,-35.38,-202.276
694.424,-57.584,-313.54
471.652,-58.316,-422.364
478.484,-15.616,-618.296
574.376,-42.7,-760.548
549.488,-44.652,-927.932
590.48,30.5,-1126.548
675.636,103.212,-1223.66
695.156,75.884,-1244.644
700.768,25.864,-1215.364
697.84,-23.424,-1119.96
788.12,35.136,-1008.452
868.152,126.88,-873.276
920.124,153.232,-726.876
875.228,76.86,-588.772
819.108,-65.392,-396.5
798.612,-47.092,-293.532
787.632,63.684,-191.296
775.188,52.46,-63.44
726.876,-113.46,74.42
801.784,-255.712,181.78
962.58,-254.492,253.76
1167.296,-174.704,300.12
1311.744,-126.88,296.216
1331.508,-187.392,271.084
1322.48,-225.944,225.944
1442.284,-165.188,161.528
1508.408,-72.468,77.836
1484.496,-41.724,-20.252
1384.456,-46.848,-89.06
1258.796,-15.86,-144.448
1175.836,23.424,-146.888
1176.08,40.992,-177.876
1183.4,-14.396,-188.612
1162.416,-123.22,-185.196
1168.272,-237.656,-168.604
1207.312,-335.256,-201.788
1212.68,-363.072,-275.232
1146.8,-352.58,-281.576
1089.704,-396.256,-308.172
1044.32,-467.504,-410.896
924.516,-518.988,-456.28
845.216,-501.664,-478.972
824.964,-468.724,-628.056
820.572,-368.684,-810.08
784.46,-250.1,-890.112
724.192,-161.772,-947.94
671.0,-104.92,-945.988
725.168,-44.896,-882.792
790.316,-11.224,-776.896
836.92,-1.952,-688.812
894.992,-27.084,-579.744
928.42,-17.568,-515.572
923.052,2.684,-461.404
941.108,7.076,-390.888
935.496,27.816,-342.576
911.828,57.096,-295.972
955.016,150.06,-341.6
999.668,236.68,-389.424
1043.588,298.168,-396.012
1015.772,338.916,-379.908
934.52,416.02,-353.068
872.544,528.748,-361.364
806.42,582.184,-337.696
710.528,597.068,-269.132
613.416,629.276,-195.2
536.068,693.936,-142.252
470.676,787.632,-117.12
398.452,825.696,-95.16
344.528,852.292,-56.852
380.396,922.808,-10.004
383.812,963.312,18.544
281.82,980.148,60.512
304.756,988.444,28.792
291.58,945.988,18.056
223.992,940.864,100.04
201.788,941.84,142.008
191.052,940.62,165.676
149.816,910.364,152.5
97.844,856.196,161.528
133.224,852.048,164.944
41.724,886.94,176.412
-13.908,959.896,164.456
4.88,1037.0,150.792
0.732,1089.216,165.676
-36.356,1123.376,144.692
-56.364,1145.58,103.212
-39.528,1151.68,72.468
-23.424,1143.384,45.14
-14.396,1127.524,1.464
-14.64,1098.488,0.976
-2.928,1064.572,20.74
6.588,1041.392,24.644
12.688,1039.44,16.104
11.712,1024.068,32.208
33.916,1029.924,9.516
-7.076,994.3,30.012
-5.368,967.948,35.38
-6.344,969.9,13.176
-33.672,942.572,30.256
29.524,980.88,-13.42
7.564,1001.376,-9.516
10.004,989.908,7.32
14.152,1014.796,-4.636
-16.592,1000.4,21.472
0.732,995.52,26.84
-22.204,983.32,34.892
4.148,988.444,19.764
-8.052,998.204,27.084
-11.224,982.1,48.556
0.0,996.008,46.604
-35.624,970.388,82.228
-22.204,964.532,80.276
-39.04,959.408,76.128
-26.84,955.504,73.688
-18.056,975.268,51.24
-38.796,969.168,56.608
-12.2,989.908,41.48
-18.544,1007.72,37.82
-16.592,1001.376,43.432
-5.124,1005.524,38.064
-16.104,999.18,40.26
-26.596,981.368,50.02
-25.376,987.468,36.844
-48.068,973.072,47.58
-30.256,972.096,41.236
-38.796,973.316,36.844
-46.848,961.36,52.948
-40.016,959.652,58.56
-59.536,949.404,65.148
-40.748,958.188,53.436
-31.232,977.708,43.676
-31.232,988.444,40.992
-35.624,997.716,41.724
-49.532,997.716,48.556
-50.996,987.468,51.484
-52.216,979.66,52.216
-41.48,980.88,45.872
-44.408,981.612,51.24
-41.724,987.468,47.824
-47.824,985.76,48.8
-45.628,983.32,52.948
-45.14,979.172,55.388
-40.504,976.732,50.508
-37.088,984.052,47.336
-33.916,988.444,47.336
-37.332,995.032,42.944
-44.408,995.52,45.872
-44.408,990.64,47.58
-52.46,984.54,51.484
-52.704,980.88,51.24
-43.92,987.712,42.7
-39.04,994.056,44.164
-35.624,997.228,49.776
-37.82,991.372,53.68
-39.04,985.028,52.704
-38.308,980.636,50.508
-34.404,984.296,50.264
-33.184,987.956,48.8
-34.16,986.492,50.264
-28.06,991.86,43.92
-30.5,996.74,43.676
-26.352,999.18,45.384
-30.988,996.252,50.264
-35.136,986.98,53.192
-33.672,982.832,51.728
-31.476,983.564,48.556
-32.94,989.176,45.14
-32.452,995.764,43.676
-29.28,1000.644,43.432
-32.452,1001.132,43.432
-39.04,997.716,45.628
-35.624,997.96,44.164
-42.944,995.52,45.628
-42.944,1002.108,40.26
-42.7,1002.596,43.188
-33.916,999.668,38.552
-35.38,998.204,43.432
-35.624,1000.888,51.728
-41.48,998.448,64.416
-46.116,1002.352,73.932
-51.728,1015.284,75.396
-55.144,1031.144,75.396
-59.536,1036.756,80.52
-60.756,1037.244,75.884
-66.856,1036.024,79.3
-53.924,1037.244,71.98
-50.996,1028.46,70.272
-46.36,1018.944,70.272
-47.336,1006.988,75.396
-57.096,1013.332,82.228
-41.48,1034.56,84.18
-31.476,1040.172,71.736
-81.252,1025.776,91.012
-82.472,1044.32,60.756
-118.34,1061.4,112.728
-121.024,1133.136,100.772
-128.344,1150.46,97.844
-147.376,1137.284,104.432
-129.076,1118.984,85.888
-125.66,1102.636,70.028
-118.584,1091.9,71.98
-36.112,1057.74,37.088
16.592,1028.46,6.1
-27.084,1012.112,36.6
-36.844,1001.376,48.556
-69.54,990.396,59.048
-93.94,1007.476,91.988
-59.536,990.396,90.28
-98.82,978.684,101.748
-119.804,968.924,93.452
-140.788,948.184,106.14
-166.164,940.132,131.76
-186.416,942.816,130.052
-176.412,943.548,121.024
-183.976,967.704,142.008
-218.136,973.56,135.42
-284.504,976.488,119.072
-309.392,1010.404,112.24
-191.296,1065.548,93.208
-104.188,1032.12,80.764
-237.656,973.072,151.524
-261.08,907.68,102.48
-301.828,869.616,29.036
-95.892,842.532,1.708
262.788,723.948,-43.432
462.624,515.816,-93.696
787.876,457.012,322.812
541.436,-168.116,281.82
259.616,-267.912,-648.064
485.804,679.296,-66.368
865.224,921.1,-126.636
1141.432,782.264,85.644
1186.328,460.184,57.584
1074.332,122.732,-98.82
1128.988,5.856,-157.136
1153.144,59.78,14.152
1074.332,273.524,110.532
995.032,463.112,24.888
955.992,506.056,-27.328
960.384,451.4,-33.672
975.268,411.384,-75.884
1015.772,390.888,-103.944
1059.204,401.136,-121.756
1021.14,428.952,-115.412
972.34,456.768,-95.648
953.308,465.796,-79.3
951.112,457.012,-42.456
1027.24,459.208,-10.248
1097.756,451.4,44.164
1110.444,414.8,129.32
1008.94,365.268,232.776
884.988,305.976,337.208
820.328,218.624,362.34
747.372,91.5,293.776
679.296,11.956,156.404
696.62,-43.676,-8.296
638.548,-150.548,-197.884
615.612,-112.484,-528.016
630.252,33.428,-785.924
658.312,54.412,-972.828
692.472,-1.464,-1216.34
661.972,-40.748,-1291.736
663.924,-1.708,-1241.472
686.86,36.6,-1131.916
725.412,56.364,-984.296
833.992,99.552,-887.428
908.412,84.912,-754.204
882.304,113.704,-610.488
854.732,204.96,-488.244
875.472,220.088,-272.548
874.008,147.132,-96.624
742.248,25.864,172.752
720.044,-66.856,358.68
674.66,-162.992,531.92
730.292,-290.116,663.436
963.556,-332.328,744.2
1151.68,-320.372,759.572
1175.348,-243.512,719.8
1184.62,-176.9,653.676
1295.64,-137.616,574.132
1378.844,-160.796,523.38
1447.652,-231.556,488.0
1525.732,-320.616,444.08
1508.164,-404.064,424.804
1510.848,-481.412,355.996
1551.352,-597.556,199.104
1512.312,-637.328,-44.896
1286.856,-565.592,-296.46
1051.64,-458.476,-538.508
972.34,-304.268,-916.952
1021.628,-110.532,-1108.98
958.92,36.6,-1053.592
847.656,38.796,-947.208
799.832,-50.264,-882.792
837.896,-84.18,-785.436
925.248,-86.132,-648.308
1004.548,-80.52,-516.548
1069.208,-63.684,-406.26
1171.444,-121.268,-277.184
1466.684,-102.48,-336.964
1708.732,-76.128,-419.68
1589.172,-27.084,-391.864
1427.4,-76.372,-185.684
1456.68,-35.868,-151.524
1040.66,38.064,-171.776
448.716,386.74,-0.244
-90.28,488.488,-114.436
-409.676,603.656,75.64
-152.256,872.544,346.968
-13.664,876.448,302.56
26.596,821.06,80.52
9.272,794.952,42.944
-34.404,776.896,185.196
-49.776,837.408,263.032
-47.336,867.908,209.352
-109.068,873.032,194.956
-121.024,901.092,226.432
-108.336,942.572,256.2
-91.744,946.476,269.62
-85.888,990.152,253.516
-111.996,1051.884,233.508
-105.652,1109.956,236.924
-88.816,1144.604,206.912
-79.544,1142.652,167.628
-76.86,1131.184,127.124
-101.26,1085.8,115.168
-92.476,1047.492,84.18
-92.964,1005.036,68.32
-77.592,967.216,74.664
-32.94,975.756,57.34
-47.092,952.82,67.588
-34.648,944.524,72.468
-19.764,953.064,64.66
-6.832,965.752,57.34
-2.196,963.068,48.556
-11.956,982.344,33.184
-40.26,966.728,54.656
-46.116,968.192,68.808
-66.856,966.972,79.056
-58.072,968.68,75.884
-38.064,1006.988,48.556
-43.676,1005.768,54.656
-64.904,996.984,69.052
-68.564,1002.352,67.588
-61.244,991.86,78.812
-51.24,998.936,80.764
-49.044,1036.268,50.264
-53.192,1034.316,51.972
-68.564,1036.024,53.68
-84.424,1014.308,53.68
-74.176,992.348,48.068
-63.44,985.028,41.48
-60.268,990.884,45.14
-61.0,981.612,51.972
-60.024,968.436,60.268
-54.168,957.212,68.808
-44.408,950.624,72.224
-44.652,947.208,81.984
-43.432,951.112,86.132
-48.312,961.116,87.108
-51.728,982.1,81.008
-57.584,998.692,76.86
-58.56,1009.428,75.64
-55.876,1006.988,76.616
-51.24,1006.5,81.252
-53.436,1003.816,88.084
-58.56,997.96,91.744
-65.636,985.028,85.888
-68.564,978.44,80.52
-70.516,973.072,81.984
-74.176,971.12,81.984
-62.952,978.44,75.396
-56.852,983.564,70.516
-50.02,981.368,78.08
-59.536,975.512,86.864
-56.852,979.416,89.792
-52.46,989.664,90.036
-57.34,994.544,90.524
-61.488,1004.06,88.816
-60.756,1013.82,87.84
-53.68,1018.944,91.256
-56.364,1015.772,93.696
-66.612,1005.28,93.452
-69.54,998.936,93.94
-66.612,1002.352,100.528
-78.568,1021.872,113.216
-84.424,1035.292,114.68
-111.264,1036.024,116.876
-129.564,1037.732,114.68
-124.684,1062.62,104.188
-124.928,1083.36,108.092
-125.416,1087.02,110.288
-158.844,1076.284,116.388
-189.344,1057.74,113.216
-195.444,1052.86,108.336
-180.804,1048.468,114.68
-169.092,1037.0,129.808
-139.812,1008.696,131.272
-176.168,985.028,120.78
-81.496,970.388,90.28
-106.384,968.192,119.316
-146.644,956.236,125.416
-202.276,940.376,132.248
-247.904,930.128,134.444
-218.624,959.652,111.02
-226.432,984.296,119.56
-255.224,995.276,119.072
-290.116,990.152,144.692
-284.26,977.22,147.62
-270.84,985.76,148.596
-295.484,1039.44,199.348
-291.824,988.932,143.228
-328.668,1000.156,185.684
-204.228,967.704,154.452
-92.476,1002.108,89.304
-162.992,982.344,135.176
-238.632,1022.848,122.976
-264.74,955.504,40.26
-135.42,1047.004,-31.476
92.232,1034.804,-68.32
-27.084,1014.796,-21.716
-117.12,1002.596,15.372
-183.244,976.0,3.416
-253.516,907.192,-13.42
-189.832,908.9,10.736
-52.704,873.52,-12.688
-261.08,878.888,61.244
-412.604,897.92,39.772
-314.272,889.868,36.844
64.172,752.984,4.392
458.476,513.132,-75.152
814.716,226.92,-93.452
1024.8,-77.104,483.852
1009.916,-743.956,753.472
688.324,-463.112,-129.32
629.276,615.612,146.644
1054.568,807.884,122.732
1466.684,568.276,91.5
1342.0,244.732,-16.348
995.52,93.94,-176.412
966.728,170.8,-4.636
968.436,340.868,260.592
1007.964,447.252,282.796
1019.676,431.636,227.164
1032.852,390.4,256.932
1124.108,363.56,321.348
1163.392,310.124,345.992
1135.088,256.444,371.368
1100.684,226.188,382.348
1053.348,212.768,393.084
976.0,216.672,347.944
885.476,218.624,297.924
712.48,178.12,227.164
620.98,108.336,68.32
667.828,70.516,-171.288
583.404,-20.252,-385.52
459.696,-64.66,-568.764
407.236,-12.2,-858.148
372.344,-16.592,-1005.28
399.428,-20.74,-1048.956
437.248,75.396,-1288.564
591.7,255.956,-1493.28
747.372,346.236,-1464.0
857.172,366.244,-1338.828
872.788,290.116,-1143.14
774.212,171.288,-835.212
655.14,60.024,-517.768
512.888,-174.216,-129.32
554.856,-262.788,240.584
744.2,-334.524,435.54
906.948,-513.62,644.404
1077.016,-606.584,899.384
1225.124,-643.672,1075.308
1382.748,-610.732,1131.428
1551.84,-549.976,1103.124
1625.284,-481.168,982.832
1706.048,-426.512,803.004
1667.74,-382.592,641.232
1557.94,-371.856,504.104
1472.54,-433.832,324.032
1402.024,-519.964,27.084
1419.104,-475.068,-277.184
1392.508,-344.284,-463.112
1178.276,-278.16,-465.552
1052.372,-232.044,-712.236
1006.5,-107.116,-966.24
1035.78,33.428,-951.112
995.032,131.76,-692.472
888.404,169.58,-548.024
920.856,99.552,-550.708
1180.96,110.532,-672.708
1261.968,194.712,-651.48
1192.672,201.788,-523.868
1196.332,332.572,-312.808
1046.76,498.248,-210.816
808.128,521.428,-146.4
764.208,555.344,-94.184
843.752,664.656,-79.544
759.572,664.412,-113.216
456.28,774.7,-47.58
256.2,659.532,-27.084
56.608,565.104,39.528
-53.924,749.812,178.364
0.732,618.052,243.268
-175.924,560.468,355.508
-182.268,483.852,322.08
-238.388,583.892,382.592
-221.064,661.484,293.532
-155.428,780.068,213.988
-105.652,874.496,157.136
-227.652,968.924,163.724
-247.172,1076.04,169.58
-250.588,1115.08,213.256
-223.992,1168.516,162.26
-221.064,1189.256,117.364
-223.26,1169.248,138.348
-228.872,1136.552,130.052
-268.644,1040.904,164.7
-227.896,1001.62,141.764
-199.104,1034.072,86.62
-199.104,1014.308,119.804
-189.832,975.024,122.732
-199.592,938.18,116.388
-192.272,947.696,103.212
-158.112,970.876,82.472
-127.856,1003.328,53.436
-137.128,1010.648,53.924
-134.2,988.932,74.176
-152.5,972.096,77.836
-168.36,960.14,61.976
-159.576,963.556,48.556
-161.04,972.096,33.916
-183.488,963.068,40.504
-173.728,952.576,51.24
-174.216,957.7,66.124
-181.536,948.184,91.256
-169.824,947.696,97.844
-100.528,1001.132,54.168
-111.996,1016.992,84.912
-108.336,1035.536,90.768
-127.856,1038.464,94.916
-146.4,1034.56,103.456
-149.816,1024.8,97.112
-138.592,1013.576,93.696
-150.06,990.152,103.212
-158.112,963.068,105.408
-156.648,943.304,119.316
-132.736,942.572,112.24
-120.048,945.256,116.388
-128.1,945.744,125.172
-134.2,950.624,113.46
-152.744,946.964,123.464
-144.448,957.7,119.56
-124.684,989.42,89.548
-139.324,983.076,109.8
-128.1,980.88,108.092
-143.716,972.096,111.264
-150.06,954.528,124.196
-123.952,973.804,99.064
-138.104,973.316,117.608
-131.272,979.66,105.408
-133.712,979.904,111.996
-138.104,967.216,122.244
-143.472,949.648,133.712
-147.132,931.104,139.812
-152.256,927.688,131.272
-137.86,947.208,120.048
-135.42,959.408,118.096
-141.764,957.212,114.192
-152.5,947.696,130.54
-145.424,947.94,135.176
-137.372,953.552,127.124
-128.832,965.752,113.704
-132.248,975.756,107.848
-135.176,991.128,105.164
-140.544,998.936,107.604
-151.28,1008.452,115.168
-154.208,1028.704,114.192
-169.336,1034.072,122.488
-184.708,1041.88,115.412
-193.98,1056.52,115.9
-194.956,1067.256,121.024
-226.92,1071.892,132.248
-252.052,1100.44,133.956
-237.656,1139.48,128.588
-248.88,1144.848,144.936
-251.076,1110.2,149.328
-240.828,1061.888,149.816
-208.376,1036.268,159.576
-165.92,1010.16,154.696
-177.632,982.1,160.796
-183.976,973.072,152.012
-155.672,947.696,152.744
-161.528,935.008,170.312
-187.148,916.708,185.196
-186.66,891.82,190.564
-204.228,884.744,211.304
-216.184,887.672,203.984
-245.464,905.484,213.012
-242.292,934.764,218.136
-262.056,936.96,212.036
-285.968,922.808,214.72
-329.888,906.704,187.392
-391.132,880.352,150.548
-471.408,896.7,160.308
-431.392,929.884,122.0
-288.652,984.54,32.94
-291.092,974.536,30.256
-320.616,965.752,28.548
-464.576,944.28,11.956
-547.78,917.44,-41.724
-466.528,948.428,-47.092
-199.836,1006.012,49.776
7.808,905.484,2.196
166.896,645.38,-206.424
479.46,465.064,-245.22
732.732,312.808,-38.796
892.552,2.928,600.484
756.156,-546.072,-229.848
1007.476,664.412,67.1
1198.284,782.508,36.112
1212.68,759.328,277.916
1131.184,393.572,188.612
1163.148,98.82,74.908
1201.212,75.152,219.356
1046.028,258.396,447.496
864.492,425.292,504.348
678.076,383.568,504.348
665.632,254.248,517.768
713.944,92.964,410.652
745.42,-22.692,142.252
724.68,-76.86,-98.576
691.252,-86.864,-265.228
678.32,-50.264,-516.792
657.092,66.612,-846.192
723.216,168.848,-994.3
810.08,142.984,-1174.372
743.224,144.448,-1264.408
639.524,141.276,-1241.96
731.024,199.836,-1147.288
817.4,241.804,-1063.108
770.064,236.436,-896.212
682.956,203.252,-747.616
584.624,35.868,-453.352
635.376,-55.876,-147.864
714.432,-175.436,122.732
803.492,-261.568,346.724
872.056,-442.372,517.524
1074.332,-447.74,724.192
1484.008,-438.956,888.16
1563.308,-417.728,1108.492
1448.14,-458.72,1129.72
1299.3,-460.916,1103.856
1288.808,-376.492,978.44
1361.032,-368.44,758.596
1419.104,-449.936,526.064
1435.94,-596.092,245.952
1418.372,-669.536,-110.532
1520.364,-577.548,-491.66
1473.516,-342.576,-767.136
1306.376,-168.36,-852.292
1214.144,-71.004,-926.224
1157.292,38.552,-1022.36
976.976,111.508,-936.228
817.4,120.536,-759.572
757.864,94.184,-648.552
765.184,42.456,-543.144
832.284,-10.736,-470.188
927.444,-14.396,-429.928
995.764,-32.208,-359.656
1096.78,63.928,-338.184
1151.192,209.596,-355.264
1111.908,267.668,-280.6
1113.616,339.892,-225.7
1112.152,386.984,-215.94
1047.736,418.704,-192.516
958.92,469.212,-160.796
886.696,542.656,-132.98
760.548,573.888,-93.452
751.52,622.444,-112.24
733.22,642.696,-129.32
632.204,626.348,-108.58
610.976,649.528,-96.624
575.84,692.472,-114.192
514.352,707.844,-133.224
422.12,726.144,-157.868
245.464,713.212,-78.812
223.26,794.708,-58.804
225.7,843.508,-70.028
67.344,836.676,-7.076
-127.368,860.1,168.116
2.928,909.876,185.196
12.2,848.388,260.592
-56.852,863.272,346.968
-172.02,844.728,347.456
-94.184,886.94,279.624
-50.508,925.492,284.504
-12.932,961.604,247.172
63.928,1026.02,143.716
76.372,1091.168,84.424
52.704,1135.332,79.544
79.3,1141.188,76.86
155.428,1171.444,1.464
54.412,1128.5,57.584
28.304,1063.352,84.668
59.78,1022.116,75.152
49.044,1017.236,61.488
38.796,993.812,92.232
97.356,996.252,74.42
88.816,1010.648,59.78
69.54,986.98,83.692
113.704,978.684,60.512
118.34,994.788,33.916
60.268,964.776,71.248
67.344,945.744,81.74
87.84,961.116,58.316
44.164,956.968,72.224
57.34,965.508,72.468
66.124,984.052,46.116
18.056,965.508,69.784
47.824,971.852,56.12
27.328,987.468,51.972
3.66,975.756,68.808
46.604,991.616,37.088
22.936,1010.404,24.888
8.784,1004.792,45.628
31.232,1005.28,35.624
23.668,1010.648,33.184
7.808,999.668,48.312
23.18,1003.084,32.696
11.224,1000.888,41.724
15.616,996.008,56.852
28.304,993.324,55.632
7.564,979.904,71.004
40.748,989.664,39.04
29.28,998.448,55.388
22.448,998.204,70.516
29.036,996.74,65.636
51.24,998.692,45.872
39.04,996.984,49.776
47.092,1005.036,36.844
46.116,1007.964,27.816
27.816,988.688,38.796
12.444,977.22,40.748
11.224,973.804,33.916
25.62,980.88,21.228
30.256,994.056,14.884
24.4,998.204,18.788
17.812,997.716,25.132
10.492,989.42,35.136
0.488,981.124,40.992
-2.44,984.54,34.892
-4.148,989.42,37.088
8.784,1001.132,38.308
25.864,1001.864,35.136
18.056,988.688,44.408
17.568,979.904,47.336
23.18,981.124,42.7
20.252,977.22,43.432
22.448,972.828,43.432
20.008,976.488,43.676
12.2,985.028,51.24
11.712,994.3,56.12
22.448,1007.964,41.48
27.816,1013.576,35.868
26.352,1011.38,39.284
12.2,1005.768,42.212
-18.056,1005.524,56.12
-35.624,1031.388,69.296
-58.316,1095.56,83.936
-90.768,1189.988,112.484
-120.048,1258.064,148.596
-168.604,1300.764,157.38
-242.292,1328.824,184.22
-253.028,1336.144,204.96
-177.876,1309.792,186.172
-99.552,1272.216,138.104
-33.672,1243.668,110.776
48.312,1206.092,50.508
-26.352,1125.572,22.204
-74.908,1042.612,12.444
-65.636,998.204,33.672
-135.176,930.372,80.764
-247.904,836.92,-9.76
-258.396,854.976,-68.32
19.276,775.188,-149.816
328.668,586.088,-210.084
424.072,398.94,-220.088
377.956,199.104,-4.148
592.432,-365.756,241.804
895.724,-391.376,-108.336
909.144,333.792,-14.64
801.296,679.784,63.44
873.764,726.632,134.2
978.684,477.02,-41.968
1093.364,184.708,-116.632
1078.968,171.776,-19.52
985.272,328.18,159.332
888.892,508.496,221.796
828.868,560.468,245.952
898.652,549.244,300.364
995.032,515.572,354.532
987.224,470.676,405.528
976.244,409.432,439.688
954.772,328.668,445.3
912.56,240.096,439.2
815.692,134.932,395.524
723.216,33.184,291.824
730.78,-12.932,108.092
748.104,-72.712,-152.012
735.172,-81.496,-411.14
649.772,-75.64,-665.388
619.028,-0.976,-840.092
510.692,45.384,-1004.792
516.548,100.772,-1226.344
641.232,148.84,-1301.008
725.168,180.072,-1317.356
675.88,200.812,-1236.104
733.464,256.688,-1148.996
806.176,203.252,-978.928
823.988,145.18,-787.632
863.028,80.764,-640.5
877.424,-30.988,-470.92
905.972,-209.352,-180.316
954.528,-345.748,66.124
941.84,-374.296,338.184
957.944,-420.9,528.26
985.76,-432.368,675.148
1107.028,-385.032,762.256
1166.076,-374.052,830.332
1205.604,-386.74,811.056
1283.684,-379.42,739.32
1367.62,-374.54,650.016
1460.584,-389.18,566.08
1536.468,-438.712,456.524
1562.332,-522.16,344.772
1597.956,-575.84,205.448
1708.976,-589.26,33.916
1750.944,-544.852,-189.588
1551.84,-417.972,-524.112
1295.396,-257.908,-755.668
1130.452,-76.86,-866.2
1037.244,18.788,-881.084
968.192,80.764,-871.812
881.328,124.44,-794.464
794.708,119.072,-728.584
776.652,106.628,-633.424
793.244,89.548,-531.92
821.304,94.184,-437.98
881.328,104.432,-345.748
950.136,193.248,-258.64
1048.468,310.124,-203.74
1069.452,279.868,-158.6
1080.432,305.244,-74.664
1079.7,432.856,-28.548
1205.604,516.06,-45.384
1189.012,446.52,-28.06
1142.408,458.72,34.892
1021.14,471.896,44.408
578.524,457.256,109.8
181.292,503.372,188.612
-0.732,528.748,169.336
10.736,603.656,191.54
-35.868,670.512,258.884
-140.3,667.096,301.584
-161.528,690.52,274.012
-203.496,702.964,272.548
-169.336,792.512,225.944
-156.404,856.44,186.416
-122.0,940.376,141.032
-106.14,1015.284,122.244
-126.392,1035.78,164.944
-129.564,1029.924,176.412
-80.52,1072.136,130.296
-139.324,1092.144,157.868
-110.288,1112.884,142.252
-71.98,1132.892,106.872
-103.944,1116.056,125.904
-54.168,1103.124,93.696
-67.344,1085.312,82.472
-96.624,1040.904,86.864
-88.816,1008.208,68.564
-110.776,976.244,70.76
-112.728,959.408,65.148
-90.768,967.216,39.528
-59.78,983.564,26.596
-52.46,995.764,27.084
-51.24,992.592,29.28
-62.952,978.684,50.264
-66.612,967.46,53.436
-92.72,954.528,70.516
-65.148,959.164,66.612
-62.464,975.024,71.736
-72.468,981.368,91.5
-51.972,986.248,71.492
-50.996,982.344,50.996
-80.276,967.46,63.928
-78.08,968.436,61.0
-81.008,962.092,69.052
-102.236,960.14,82.472
-105.164,964.288,83.936
-94.184,979.172,74.664
-100.04,981.124,92.964
-88.572,969.412,108.092
-77.348,972.096,105.408
-85.4,975.756,123.22
-38.796,1002.596,99.796
-43.188,1015.284,97.112
-47.092,1017.236,111.264
-28.06,1028.216,90.28
-59.78,1020.652,99.308
-76.616,1013.576,105.652
-62.952,1021.872,79.3
-89.792,1016.748,100.284
-77.348,1007.476,95.16
-91.988,984.54,97.6
-86.62,963.068,102.236
-71.004,961.116,92.72
-54.9,967.948,91.256
-40.748,966.728,98.088
-35.38,955.504,103.944
-27.572,949.404,97.844
-16.348,955.504,83.936
-12.688,967.704,81.74
-3.416,983.808,73.688
-11.712,990.884,78.568
-20.984,988.2,83.692
-38.308,976.0,82.228
-41.724,971.12,81.496
-44.652,974.536,85.644
-43.92,977.952,85.156
-50.02,982.1,90.28
-51.972,983.32,96.868
-55.632,983.564,100.284
-56.608,982.1,100.284
-65.392,990.152,96.868
-71.004,1004.792,98.332
-68.32,1017.236,101.016
-69.54,1021.14,106.628
-67.344,1022.116,99.308
-70.516,1015.284,98.576
-59.536,1009.184,87.108
-64.416,1004.06,84.18
-62.464,998.936,88.572
-65.148,996.496,94.184
-67.1,996.496,96.136
-67.588,991.86,91.256
-66.368,992.348,78.324
-62.464,995.276,78.568
-63.928,1000.644,81.984
-70.028,1001.864,83.448
-68.32,1007.964,78.568
-67.588,1011.38,71.736
-69.052,1003.328,63.44
-81.74,990.152,70.516
-91.988,983.564,88.816
-84.912,987.956,92.964
-88.084,985.028,85.644
-85.156,973.316,81.74
-83.692,966.728,81.008
-82.472,973.072,85.156
-75.884,985.272,84.424
-73.932,996.008,87.596
-71.736,1001.864,89.06
-77.104,1003.572,93.452
-91.256,1004.304,93.696
-110.532,1014.308,81.496
-135.908,1030.168,87.84
-149.572,1047.98,101.504
-165.676,1070.672,103.7
-188.124,1088.728,107.604
-207.888,1072.38,113.948
-236.68,1037.732,115.656
-253.272,975.512,107.116
-249.368,935.984,81.008
-253.028,939.156,74.908
-200.568,950.38,24.888
-290.604,959.896,-22.692
-251.808,1034.072,-60.024
-183.488,1036.268,-97.112
105.896,1092.388,-191.052
340.38,1055.544,-184.952
507.52,868.64,-205.692
616.1,674.172,-261.08
756.644,562.908,-248.88
897.188,265.716,116.632
337.208,-434.564,89.06
184.952,-182.024,511.668
407.724,395.768,579.988
1096.78,708.82,339.892
1511.58,565.836,154.452
1420.812,244.0,165.676
1132.404,74.664,80.764
925.004,151.036,145.18
809.104,304.512,274.012
842.776,416.996,275.476
920.856,454.816,228.14
964.044,430.416,218.868
1000.4,418.216,240.828
1046.028,406.504,284.504
1068.476,374.784,366.244
1096.048,333.548,437.98
1035.048,290.116,481.412
904.996,258.884,546.804
840.092,176.9,529.236
823.012,63.196,424.072
762.744,-46.116,237.168
679.296,-126.636,71.492
705.648,-150.304,-57.096
751.764,-180.804,-250.832
767.868,-81.984,-532.408
731.268,49.776,-795.196
914.268,125.904,-1013.088
1054.324,135.664,-1138.26
970.388,81.496,-1130.696
906.704,53.924,-1077.748
993.08,65.88,-973.072
999.668,115.412,-814.472
955.748,183.0,-620.492
956.236,197.884,-442.616
934.276,102.236,-260.104
862.052,-45.872,-92.964
748.348,-133.712,105.164
651.968,-190.32,227.896
611.708,-337.452,387.228
608.536,-506.788,632.692
562.908,-521.916,807.396
660.02,-583.892,837.164
1008.208,-543.876,801.052
1342.976,-453.596,771.528
1382.992,-468.236,676.368
1404.952,-576.084,504.348
1524.756,-620.248,228.14
1815.36,-530.944,58.56
2090.592,-557.54,-65.636
1977.132,-598.532,-163.968
1657.004,-660.508,-278.404
1443.748,-627.568,-377.468
1237.812,-568.764,-590.48
1178.764,-361.364,-823.988
1057.252,-208.864,-742.248
852.536,-133.956,-632.692
795.196,-79.544,-642.94
834.236,-45.628,-614.636
876.204,-52.46,-535.336
886.452,-44.896,-424.804
878.644,-46.36,-333.304
888.892,-29.28,-234.24
934.032,-25.62,-154.208
958.432,8.784,-81.008
1013.576,56.608,-26.596
1067.744,165.188,28.06
1100.196,269.376,53.924
1115.08,335.744,67.832
1160.22,380.152,82.472
1192.916,472.628,79.544
1053.592,520.94,52.948
957.212,532.408,-4.148
1033.828,573.888,-73.444
1037.244,611.708,-138.104
953.796,484.584,-165.432
614.148,457.744,-146.888
536.068,565.104,-90.768
326.716,617.808,112.972
213.988,758.108,349.652
209.84,685.152,379.176
-41.968,743.712,392.352
-71.248,791.048,244.488
-36.112,831.308,194.956
13.908,896.212,170.312
116.876,970.388,52.46
80.276,1043.1,16.104
46.36,1046.516,56.852
124.44,1042.368,57.584
94.916,1007.964,88.084
190.808,997.716,44.164
152.012,1015.284,91.256
156.892,991.372,99.796
211.06,1018.944,84.424
185.684,1049.932,109.556
183.488,1050.42,119.56
203.008,1045.54,124.684
153.232,991.372,140.544
195.688,972.096,106.14
196.664,991.616,110.288
159.088,983.808,126.88
196.908,992.104,101.748
237.168,1034.56,108.092
173.972,1027.972,153.964
134.444,1005.036,148.108
125.66,982.344,155.428
165.676,996.74,124.684
145.912,1001.62,117.364
144.692,1020.652,96.868
108.824,1009.672,111.508
80.52,980.148,123.952
67.344,947.452,120.048
65.148,939.156,91.256
30.012,919.148,91.012
20.252,900.116,85.156
9.272,883.768,93.696
15.86,896.212,97.6
38.308,933.544,86.376
71.004,969.9,72.956
108.824,1010.892,64.66
108.092,1020.164,85.156
116.144,1010.648,90.036
104.188,999.912,102.236
75.152,979.66,103.944
80.764,976.488,87.84
67.1,985.76,91.256
80.764,994.3,84.18
69.296,996.74,88.328
63.928,985.516,87.84
51.728,971.852,90.28
49.532,967.704,79.544
50.508,983.076,77.836
51.728,994.544,83.936
69.784,1016.504,75.396
68.076,1018.7,90.524
60.512,1000.4,94.672
70.272,1008.696,68.808
42.944,996.496,87.84
48.312,979.66,85.644
40.26,977.464,86.132
26.352,964.044,100.772
19.52,958.92,106.14
18.3,958.92,86.864
12.444,968.68,80.52
25.62,983.808,72.224
22.692,988.688,73.2
23.668,992.104,68.32
23.424,993.812,71.492
27.816,995.032,66.612
37.82,993.812,55.876
41.968,996.74,48.312
42.7,988.2,50.02
31.232,974.78,56.364
24.4,964.532,70.76
34.648,966.24,75.396
27.084,973.072,84.18
41.236,986.248,79.788
50.752,1003.328,80.276
51.24,1010.892,88.084
45.384,1007.72,95.648
46.36,1007.232,95.892
53.68,1022.848,93.208
50.264,1026.508,99.308
43.432,1020.652,91.012
34.16,1017.236,91.256
30.988,1015.528,94.184
17.812,1011.624,93.452
4.392,1000.644,87.596
-11.956,981.612,90.28
-10.98,973.316,85.644
10.736,987.224,69.296
21.716,1002.84,72.468
27.816,1016.016,78.08
2.684,1016.016,99.308
-16.104,1011.38,108.824
-25.62,1024.312,108.092
-16.104,1057.496,109.8
-18.056,1090.924,116.876
-26.84,1113.372,117.852
-38.552,1125.328,124.196
-57.828,1126.06,128.832
-68.076,1124.84,122.732
-68.808,1115.812,118.584
-77.104,1091.656,120.78
-92.476,1060.912,131.76
-104.188,994.788,117.852
-106.872,927.932,109.068
-104.188,889.38,105.164
-76.86,918.904,89.792
-73.2,960.872,68.808
-139.812,999.912,55.388
-243.512,1076.284,8.784
3.904,1252.94,-41.724
404.552,1138.016,-119.804
642.94,827.892,-278.16
569.252,504.592,-238.632
258.396,-21.472,450.18
308.172,-884.256,762.5
238.876,-584.136,778.604
276.94,188.612,541.436
1028.216,748.836,179.096
1507.432,811.3,292.312
1287.588,542.168,271.816
926.956,333.548,257.908
672.464,213.744,376.492
615.856,266.692,560.468
840.092,378.688,600.972
994.3,379.42,615.856
963.312,307.196,678.564
856.44,171.044,646.356
816.912,112.484,544.12
747.86,51.484,436.028
719.068,17.08,262.788
675.148,-28.06,140.056
604.144,-121.268,-50.02
738.1,-93.94,-350.384
856.196,-86.864,-569.496
896.7,-131.516,-740.54
958.432,-172.996,-876.204
1118.008,-204.472,-926.956
1200.48,-222.772,-900.604
1189.012,-107.604,-833.992
1136.308,19.52,-684.664
1019.188,118.828,-500.932
874.496,171.532,-336.72
768.112,131.272,-136.396
695.156,50.752,-3.416
650.748,-177.632,186.172
505.568,-416.02,467.26
411.384,-569.252,694.18
643.916,-644.16,889.38
960.384,-712.236,984.296
963.556,-679.784,1026.996
868.396,-661.728,1027.972
1062.132,-614.148,972.096
1240.008,-593.896,927.444
1377.136,-563.396,889.868
1378.844,-551.196,860.1
1424.472,-590.236,801.052
1451.068,-640.012,700.768
1469.612,-712.724,620.98
1459.364,-783.484,500.688
1447.896,-798.612,299.632
1460.096,-795.928,111.996
1366.4,-837.896,-37.82
1415.932,-761.28,-380.152
1296.128,-608.78,-654.896
1047.492,-336.232,-854.244
886.452,-98.82,-851.072
844.24,17.812,-787.632
858.392,62.464,-740.296
783.728,69.052,-668.316
798.368,105.652,-582.916
841.8,171.044,-465.552
908.412,209.596,-369.66
964.776,284.992,-260.348
1000.156,348.188,-189.1
1004.304,328.668,-130.052
1083.604,333.548,-102.48
1122.4,365.756,-79.788
1110.444,392.352,-44.652
1048.712,443.348,22.936
991.372,476.532,31.232
978.196,503.372,34.892
1015.528,523.624,24.888
1050.42,538.996,3.904
1121.912,573.4,-39.04
1021.384,593.652,-32.208
920.368,662.46,11.468
847.9,728.584,32.208
836.188,804.956,24.644
739.076,845.704,39.772
533.384,872.056,115.9
303.292,874.74,215.452
165.188,800.564,233.508
53.436,663.924,284.992
-236.68,529.48,397.72
-127.856,561.932,313.54
-188.856,654.408,316.956
-233.752,735.904,255.468
-220.332,807.884,193.004
-198.372,874.008,170.068
-208.132,884.988,198.128
-203.74,886.94,203.984
-196.42,913.78,180.804
-138.592,962.092,175.436
-103.456,1012.356,148.84
-116.876,1018.944,165.676
-99.308,1022.848,164.212
-102.724,1028.46,160.552
-105.408,1032.364,152.744
-95.648,1037.0,136.396
-93.208,1033.096,123.464
-91.5,1011.136,121.512
-106.872,983.32,139.812
-92.72,973.316,138.104
-91.256,966.972,146.644
-79.544,969.9,145.912
-84.424,970.632,132.98
-96.136,963.312,132.248
-83.448,981.856,121.268
-109.312,971.608,138.348
-86.132,973.56,117.12
-92.476,995.52,107.604
-116.144,976.244,123.464
-129.076,954.284,118.096
-112.24,968.68,94.672
-122.732,961.36,105.652
-109.556,968.924,93.208
-121.268,998.204,77.592
-132.248,991.86,95.892
-135.42,984.052,95.892
-128.832,977.952,84.424
-109.8,988.932,73.932
-110.532,986.98,80.276
-104.676,974.048,90.524
-108.58,961.848,97.356
-110.044,960.14,99.552
-120.536,959.652,97.112
-123.952,958.92,83.692
-141.52,960.872,82.716
-138.104,963.556,81.74
-146.888,967.46,75.64
-152.256,962.092,76.86
-143.228,969.412,68.076
-159.576,966.972,76.128
-156.892,966.484,69.54
-155.916,968.924,62.22
-157.38,968.924,68.564
-154.94,976.488,63.44
-151.28,977.22,64.904
-145.18,978.684,61.488
-145.668,969.9,66.368
-141.764,961.604,68.564
-138.104,963.312,71.98
-140.3,966.972,75.152
-146.888,969.656,81.74
-152.5,975.024,80.276
-159.332,986.004,78.812
-160.796,1014.552,70.76
-165.676,1046.272,66.856
-185.928,1063.84,75.152
-188.856,1088.484,79.056
-204.228,1102.148,90.524
-222.772,1099.22,94.184
-237.9,1092.388,95.404
-278.16,1084.824,116.388
-288.896,1098.0,131.028
-311.1,1113.86,137.86
-298.412,1120.936,131.028
-278.892,1139.724,122.976
-269.864,1148.996,116.632
-259.86,1136.308,106.14
-269.132,1123.864,108.092
-304.512,1116.056,107.604
-336.476,1134.6,122.244
-336.964,1144.848,126.88
-314.76,1130.452,96.136
-278.16,1128.012,49.044
-300.852,1103.124,44.164
-384.056,1075.552,63.928
-392.108,1061.156,86.132
-380.884,1027.24,100.04
-344.528,986.736,79.056
-360.388,935.008,102.48
-410.896,846.68,101.016
-411.872,769.332,80.764
-357.948,665.632,59.292
-310.124,615.612,34.892
-340.136,590.236,41.724
-481.168,560.712,44.896
-549.976,532.652,4.392
-452.62,394.792,-110.776
139.812,270.108,-128.588
648.552,178.364,-61.732
798.368,-234.484,164.7
618.54,-797.148,513.132
1361.032,-474.58,-88.572
2053.26,428.464,-287.432
1330.776,329.644,14.396
1015.284,281.576,-234.972
1000.888,-3.172,-288.652
1301.496,-53.192,-145.912
1274.412,20.984,1.952
951.356,154.208,76.616
721.02,252.784,88.816
819.596,310.124,89.304
1028.948,314.272,50.508
1140.212,294.508,25.132
1211.46,264.252,49.532
1259.04,237.9,106.384
1241.472,203.984,178.12
1173.64,201.544,258.396
1054.812,195.444,380.396
948.916,176.9,465.308
941.84,129.808,476.288
906.704,67.344,448.716
773.48,31.476,368.684
721.02,54.9,260.348
804.468,23.424,173.972
691.252,-117.364,-2.44
612.196,-209.352,-270.84
734.684,-183.0,-511.668
874.496,-151.768,-713.944
750.544,-313.54,-926.956
615.368,-403.332,-1098.732
807.64,-250.588,-1405.684
957.212,1.22,-1518.9
982.588,62.708,-1510.36
949.892,11.468,-1487.912
887.428,-135.908,-1308.084
846.436,-301.096,-1056.032
861.076,-268.156,-740.784
963.8,-92.476,-615.124
962.336,-54.412,-491.904
841.556,-206.668,-322.324
734.196,-151.28,-148.108
656.36,-131.516,-19.032
614.88,-181.292,174.216
517.768,-345.504,457.744
473.36,-316.712,670.268
519.72,-407.48,816.912
670.512,-448.472,974.78
887.672,-308.172,1022.36
965.996,-245.22,1061.4
1004.304,-229.848,1042.368
1006.988,-230.092,1035.536
1068.476,-238.876,1100.684
1183.156,-367.22,1110.444
1266.848,-537.044,1031.632
1381.528,-684.664,880.84
1481.08,-864.736,731.268
1603.08,-1048.224,462.136
1784.372,-1154.608,-3.172
1800.232,-1066.28,-511.18
1514.02,-768.356,-851.072
1312.964,-480.436,-963.8
1322.968,-280.6,-1012.6
1238.544,-191.784,-1204.384
1008.208,36.112,-1051.152
834.236,105.164,-889.624
878.156,149.816,-808.372
932.08,131.516,-628.544
944.036,63.684,-440.908
973.804,30.012,-280.844
931.592,19.52,-149.816
850.828,40.26,-31.476
873.52,74.42,41.236
959.896,112.24,86.132
1044.808,143.472,106.384
1099.708,159.088,91.256
1108.98,180.56,66.856
1105.808,193.98,55.144
1109.224,226.432,64.172
1135.088,204.472,53.68
1158.512,233.508,40.504
1128.012,291.58,29.524
1129.964,333.548,10.98
1105.564,362.34,7.564
1034.804,411.628,14.396
949.892,442.128,26.596
945.988,460.184,27.328
961.848,490.196,16.592
886.94,463.6,-17.812
828.38,556.076,-26.352
866.444,584.38,-94.916
901.824,523.868,-151.768
741.516,634.156,84.18
608.292,749.812,85.4
542.412,770.552,42.212
566.324,757.864,20.252
501.176,738.344,43.188
347.944,706.38,62.952
258.152,746.152,108.336
240.34,865.468,113.704
139.568,899.628,84.424
63.196,843.264,55.144
-8.54,843.264,91.744
-112.972,949.404,193.004
-72.956,966.972,197.884
14.152,971.364,174.46
59.78,976.244,183.732
5.368,978.928,213.5
-64.416,949.404,233.996
-65.88,932.08,254.736
17.08,974.048,227.652
21.472,994.056,215.696
19.032,975.024,192.76
64.66,995.52,162.016
102.724,1054.08,162.26
130.296,1071.892,155.916
107.116,1069.94,165.92
46.848,1061.644,177.632
8.784,1034.56,179.584
15.372,1011.136,166.652
7.076,992.836,138.104
-21.716,960.384,123.22
-15.616,932.324,104.92
-3.66,945.012,99.796
-19.276,949.16,116.632
-42.944,945.012,123.464
-41.236,949.648,114.192
-42.7,953.308,104.92
-43.432,947.94,90.524
-37.576,964.044,61.732
-57.584,966.484,63.196
-35.868,982.588,66.612
-39.284,985.76,73.688
-43.676,983.564,79.3
-37.82,984.052,84.912
-34.892,992.836,80.032
-41.724,1002.108,74.664
-43.188,1009.184,75.396
-57.34,998.692,81.008
-52.704,987.468,74.908
-58.316,966.972,82.472
-61.732,950.136,84.18
-30.988,981.368,66.368
-48.8,982.344,70.76
-59.78,980.636,69.296
-78.568,967.46,79.056
-55.632,981.124,68.808
-29.28,1008.94,54.412
-16.592,1034.316,39.772
-27.328,1035.536,52.46
-45.872,1025.288,70.76
-65.392,1010.648,87.84
-55.388,1006.988,76.86
-39.772,1017.236,55.144
-30.744,1023.336,48.068
-31.476,1017.968,59.048
-53.68,995.52,87.352
-61.488,972.096,103.7
-63.44,957.944,112.972
-58.072,954.04,108.824
-47.824,965.508,92.72
-48.556,979.416,84.668
-49.532,994.788,87.108
-69.784,1005.28,102.968
-82.472,1004.792,113.704
-95.16,1011.624,118.096
-91.988,1018.212,119.072
-102.724,1024.556,125.904
-126.636,1029.436,139.324
-150.548,1043.1,153.72
-169.092,1058.716,166.896
-168.848,1068.964,160.308
-161.04,1082.628,141.764
-161.528,1089.46,125.416
-184.22,1100.684,119.56
-211.548,1102.88,130.784
-230.092,1098.732,137.372
-240.584,1091.412,133.956
-248.636,1068.476,136.884
-259.372,1049.688,134.444
-282.308,1027.972,127.368
-331.352,1002.352,133.712
-354.532,1000.4,136.396
-327.204,998.204,120.536
-314.76,1007.964,105.408
-345.748,1001.864,112.484
-325.74,960.872,79.3
-334.768,918.66,35.868
-358.436,920.124,65.636
-368.684,925.004,99.796
-390.4,905.24,98.82
-417.24,874.008,73.932
-479.948,842.044,37.576
-642.696,810.568,-5.856
-768.112,800.564,-206.18
-585.844,924.516,-83.692
-213.012,908.412,144.448
-1.22,786.412,68.564
425.048,688.568,-27.084
479.704,456.768,151.768
613.904,-124.196,464.332
47.824,-726.388,528.016
650.26,37.82,113.216
1496.696,747.616,135.908
1103.124,723.46,124.684
871.08,542.9,-37.088
932.08,271.084,-30.988
1210.728,153.72,50.996
1275.632,164.7,99.308
1071.648,191.296,124.196
894.748,235.46,148.352
910.608,299.876,202.032
966.728,319.884,262.056
971.12,267.18,304.512
908.412,206.424,307.684
843.264,183.732,307.928
800.32,188.856,291.092
829.356,180.804,232.776
829.6,163.968,155.916
763.964,139.324,107.604
709.064,109.8,50.264
704.428,43.676,-77.104
720.288,12.444,-197.64
729.316,23.668,-288.896
729.804,-28.304,-382.836
767.624,-110.288,-538.508
872.056,-166.164,-721.508
903.288,-262.788,-881.084
994.788,-290.116,-1060.668
1040.416,-282.796,-1185.108
1038.708,-224.724,-1218.048
1105.076,-107.848,-1203.408
1071.892,-93.696,-1088.24
1021.872,-63.44,-966.728
936.472,-103.944,-803.492
886.208,-116.144,-637.816
853.756,-75.884,-567.788
823.744,-70.516,-458.232
765.916,-123.952,-249.612
654.652,-146.4,-87.596
578.768,-260.836,81.74
680.028,-299.632,261.324
766.648,-518.256,451.888
926.956,-650.992,657.824
1015.772,-714.676,775.676
918.172,-707.844,960.384
1031.876,-648.796,1051.64
1245.864,-552.904,1021.14
1342.976,-492.392,921.832
1361.276,-458.72,846.436
1382.016,-437.248,743.224
1388.36,-443.592,610.244
1453.508,-434.076,510.936
1535.492,-427.488,418.704
1623.332,-409.432,231.556
1604.544,-371.368,92.964
1525.488,-359.656,26.108
1403.0,-375.028,-55.144
1322.724,-432.612,-226.188
1278.072,-404.796,-447.984
1227.808,-330.864,-531.676
1094.096,-246.44,-593.164
1015.284,-141.52,-650.992
934.764,-62.708,-701.012
889.136,15.128,-677.344
876.692,89.548,-625.372
841.312,120.048,-538.752
836.432,115.9,-436.028
859.368,110.532,-346.236
894.748,82.228,-276.452
943.06,76.372,-226.188
1025.532,118.34,-232.288
1126.792,193.736,-250.344
1187.792,270.84,-227.164
1219.268,340.136,-206.18
1220.976,396.012,-212.28
1210.728,396.012,-218.624
1180.96,445.544,-208.62
1064.084,500.444,-173.972
898.896,593.408,-125.416
796.172,666.852,-75.396
674.172,683.444,-4.392
630.496,734.928,16.592
552.172,732.0,33.184
478.24,752.252,92.232
463.844,779.336,95.648
394.792,796.904,111.508
285.236,765.184,136.884
122.976,727.852,164.7
-44.408,725.656,218.624
-114.436,757.376,215.208
-240.828,730.78,282.308
-181.536,703.94,298.656
-331.108,692.716,392.596
-424.56,694.668,363.804
-467.748,708.088,362.584
-393.084,776.408,317.932
-299.388,909.876,198.372
-304.268,1024.312,150.06
-234.484,1135.088,96.136
-150.548,1208.532,80.52
-92.72,1242.692,78.324
-90.524,1192.184,114.192
-68.076,1134.356,104.432
-111.996,1050.176,116.144
-133.956,955.992,123.464
-113.46,924.028,100.772
-138.836,915.976,92.964
-136.884,910.852,82.716
-124.928,926.224,72.712
-157.868,912.56,84.912
-127.612,936.96,60.024
-148.108,951.6,74.176
-142.74,954.772,73.688
-116.144,975.512,48.8
-149.084,978.196,74.664
-140.3,974.292,76.372
-146.156,970.388,74.664
-168.604,949.892,93.696
-150.06,955.504,86.62
-162.992,958.676,86.376
-168.604,955.748,86.864
-136.152,988.688,46.604
-166.896,986.98,66.124
-171.532,987.468,72.224
-198.128,977.952,86.132
-200.568,965.508,86.864
-184.464,967.216,66.124
-161.772,973.56,54.412
-143.472,974.78,57.34
-149.084,978.684,64.172
-158.356,974.536,77.836
-166.652,964.288,91.988
-159.088,963.312,77.104
-166.896,963.312,79.3
-162.26,969.656,82.228
-162.992,976.732,74.908
-169.58,973.072,85.4
-154.696,974.292,87.352
-158.112,965.752,93.94
-153.964,958.432,103.944
-145.18,955.504,99.064
-149.084,946.964,106.14
-148.352,943.548,104.432
-155.428,946.476,100.772
-146.156,954.772,97.112
-135.176,961.36,94.428
-127.368,965.996,90.524
-122.488,968.68,95.16
-127.124,978.196,94.672
-142.252,993.568,97.356
-155.916,1011.868,98.576
-170.068,1038.952,97.356
-187.392,1075.308,102.236
-200.568,1119.96,103.456
-228.872,1145.58,105.896
-256.444,1150.948,102.236
-263.764,1146.312,99.308
-271.572,1136.308,108.336
-264.984,1117.764,116.144
-264.496,1093.608,125.172
-262.056,1063.352,122.976
-260.104,1036.756,129.076
-254.004,1022.116,142.74
-264.984,999.912,149.328
-291.58,978.196,158.356
-309.636,955.504,158.844
-325.008,943.304,162.26
-347.7,938.18,165.432
-353.8,941.596,154.452
-361.12,942.816,148.352
-372.832,943.304,164.944
-375.028,934.52,172.508
-385.764,909.632,175.68
-396.012,872.544,170.8
-443.348,846.436,175.68
-481.9,805.2,140.056
-523.38,803.736,132.492
-520.208,814.716,144.692
-443.104,853.268,137.372
-384.788,903.776,125.66
-378.2,927.444,131.272
-379.908,919.636,133.224
-373.32,879.62,155.428
-359.9,814.228,171.532
-373.076,731.268,164.7
-534.116,559.492,148.108
-633.668,383.324,129.32
-413.092,406.504,273.524
128.344,302.072,282.552
880.352,184.708,-50.264
1461.804,319.396,-131.272
976.244,-101.992,63.928
549.244,25.132,-725.168
1436.916,991.128,-679.54
1545.008,727.608,-292.556
1088.24,579.988,-238.388
844.484,189.344,-322.812
1038.708,-47.092,-278.648
1355.176,261.812,-39.772
1204.14,514.108,25.132
806.908,573.888,-19.52
668.072,631.472,-11.956
927.932,665.144,8.052
1166.32,632.204,-16.592
1186.084,599.996,-7.32
1070.428,581.452,76.616
981.124,536.312,176.168
1006.988,420.656,216.184
1059.204,327.692,272.304
999.424,242.78,317.932
775.92,104.188,390.888
586.576,-80.52,392.352
466.04,-104.676,303.292
430.416,-84.912,3.904
418.46,-193.248,-410.652
481.9,-287.92,-765.428
451.644,-283.284,-1085.556
414.068,-103.456,-1407.392
392.108,-27.572,-1570.872
529.968,52.216,-1660.176
540.704,87.84,-1740.94
463.6,32.696,-1738.744
503.86,48.556,-1664.812
571.204,98.576,-1521.34
644.16,110.044,-1344.684
699.304,42.456,-1155.096
684.908,9.516,-940.132
665.876,-61.976,-734.684
705.648,-209.596,-506.3
719.8,-199.836,-108.58
732.244,-178.12,238.876
800.076,-396.5,392.596
933.3,-627.812,512.4
1150.46,-630.008,692.716
1245.62,-551.196,918.416
1175.592,-523.624,1059.448
1317.844,-537.288,1035.536
1569.408,-531.676,991.86
1688.968,-518.744,863.516
1689.944,-489.464,715.896
1653.588,-473.116,570.96
1586.488,-460.916,449.204
1573.068,-420.412,328.18
1596.736,-403.088,180.56
1517.924,-400.404,74.908
1353.224,-461.16,-19.764
1315.404,-393.084,-213.988
1289.052,-340.38,-526.552
1138.016,-309.392,-899.628
903.288,-109.068,-1094.34
703.452,184.464,-1089.216
588.528,345.992,-1018.212
563.884,383.568,-977.708
600.484,242.78,-929.884
690.52,101.016,-747.616
814.96,64.66,-580.964
945.744,63.928,-430.172
1034.804,130.052,-288.408
1093.608,243.268,-218.624
1141.92,346.48,-197.396
1218.536,441.884,-201.788
1280.024,536.312,-209.596
1245.62,552.904,-222.528
1240.984,600.24,-256.2
1163.392,655.628,-278.892
970.876,680.76,-302.316
766.892,733.708,-285.236
592.92,742.248,-212.768
331.596,772.504,-80.032
202.764,818.62,-21.472
107.604,780.312,47.824
172.996,729.072,67.344
124.928,676.368,146.888
51.24,636.108,189.832
70.028,654.164,162.016
29.768,677.832,242.292
22.448,723.216,273.28
-8.052,730.78,276.452
-66.856,757.132,304.024
-68.564,797.88,309.636
-18.544,866.932,264.252
19.032,972.828,203.252
54.656,1088.484,158.844
139.568,1180.96,114.436
179.34,1230.736,86.864
119.56,1177.544,117.364
154.94,1095.56,105.652
159.332,1069.208,115.168
103.212,1019.432,135.908
123.952,993.324,133.468
104.432,971.364,134.2
98.82,954.528,116.144
114.192,963.068,101.504
96.38,975.756,96.868
80.52,959.652,97.112
81.496,978.684,101.504
34.648,962.824,114.68
27.572,950.868,111.508
65.636,966.24,80.032
30.988,970.144,98.088
24.4,972.828,109.068
44.896,972.096,100.528
59.292,990.152,90.28
38.308,988.932,96.868
52.46,996.252,79.3
64.172,1002.84,64.172
54.168,996.252,80.764
55.876,1000.4,72.956
48.556,990.64,70.028
49.044,983.32,75.152
62.952,991.128,62.464
41.968,991.616,58.804
33.672,990.64,60.756
25.864,989.176,74.664
36.844,995.52,70.76
22.692,990.884,76.616
29.524,989.664,68.564
16.836,987.712,74.908
11.956,975.512,91.988
50.752,989.176,79.3
20.496,981.612,102.724
16.592,970.144,105.896
38.552,974.536,91.012
29.524,977.464,103.456
35.868,983.076,99.308
40.016,996.008,82.96
16.348,981.856,96.868
9.516,973.804,91.988
6.588,966.972,90.524
20.984,970.876,85.644
49.532,989.908,62.464
34.892,996.984,74.176
40.504,999.912,79.056
28.06,991.86,85.888
21.472,982.588,92.232
23.912,986.98,79.788
29.524,991.128,73.932
33.672,1002.84,68.564
30.988,1011.38,71.492
28.792,1016.26,77.592
26.596,1016.504,80.52
28.06,1019.676,82.716
19.276,1010.16,92.476
13.42,1005.036,94.916
14.396,1005.768,84.18
21.716,1014.796,79.544
14.152,1028.46,83.692
0.976,1036.024,91.012
-10.004,1039.928,97.6
-15.128,1050.42,101.748
-15.372,1069.696,105.896
-28.06,1080.92,117.12
-48.312,1092.876,122.244
-72.468,1111.42,124.928
-92.72,1130.452,123.708
-116.144,1147.288,119.56
-142.984,1154.852,124.196
-161.528,1168.028,117.608
-202.032,1176.568,104.92
-233.02,1171.932,96.38
-243.024,1162.172,91.256
-252.052,1147.532,104.676
-262.544,1114.592,120.292
-284.748,1079.7,129.32
-291.58,1051.152,129.076
-304.756,1016.748,126.88
-320.128,976.976,131.516
-305.244,948.916,144.936
-300.852,923.296,152.744
-345.016,893.772,172.996
-387.96,836.676,202.276
-410.896,767.868,220.576
-462.38,703.696,238.388
-553.636,669.78,238.388
-705.404,583.404,238.876
-794.708,533.14,203.74
-781.288,546.56,209.352
-823.256,481.412,322.324
-949.648,507.032,346.48
-349.164,440.664,237.168
74.664,306.22,152.744
540.948,213.012,13.664
802.76,57.096,213.744
1052.372,-307.196,589.26
613.172,-889.868,456.524
841.312,-210.572,238.876
1339.56,507.52,253.516
1393.24,655.14,219.356
1385.188,525.576,73.2
1215.608,151.768,0.0
1141.676,115.656,-15.86
1053.592,355.02,154.94
852.536,499.712,201.544
757.62,531.432,159.82
809.592,470.92,142.496
925.248,404.552,122.976
1025.044,405.772,110.532
1067.5,426.756,81.252
1037.732,452.864,77.592
1037.244,475.068,99.552
1097.512,466.04,156.16
1151.68,411.628,273.28
1139.724,279.136,419.68
1014.796,122.488,552.66
861.32,20.252,627.08
831.308,-46.604,630.496
839.848,-82.716,507.764
827.16,-67.344,390.4
781.532,-74.42,257.176
732.244,-109.556,88.328
654.164,-141.276,-97.844
627.812,-120.292,-307.928
615.612,-58.56,-541.68
698.084,41.724,-742.492
787.388,98.088,-862.784
739.32,12.2,-966.484
757.376,-113.46,-1166.564
824.476,-171.532,-1269.532
884.5,-173.728,-1264.896
998.204,-56.852,-1219.024
1041.636,57.096,-1081.652
1008.696,160.064,-938.18
1006.988,138.348,-741.272
1048.224,133.468,-510.448
1045.296,24.4,-295.972
968.192,-80.52,-19.276
773.968,-140.544,273.036
615.856,-380.64,498.248
651.48,-543.144,741.76
923.54,-646.356,965.752
1116.544,-857.172,1171.444
908.168,-915.976,1393.728
848.388,-815.204,1367.376
1070.672,-676.612,1261.968
1358.836,-569.252,1094.34
1418.86,-539.972,889.624
1398.852,-585.6,701.256
1380.552,-709.796,486.292
1380.308,-766.892,253.272
1503.284,-735.66,-21.472
1706.048,-563.884,-220.088
1702.388,-339.16,-358.436
1408.612,-254.492,-452.132
1249.036,-203.496,-674.904
1171.688,-175.68,-830.576
1125.328,-100.528,-850.828
1023.336,83.448,-736.88
938.912,292.068,-628.544
874.008,342.332,-572.912
832.528,340.38,-490.44
827.404,337.208,-442.128
851.56,293.288,-359.656
868.152,341.6,-232.776
852.78,443.348,-152.012
847.168,507.764,-139.568
918.66,544.852,-159.576
1034.56,601.46,-161.284
1103.856,701.012,-170.068
930.128,705.404,-145.912
620.98,708.576,-38.308
221.552,685.64,64.416
-0.732,705.648,116.876
37.576,661.972,151.036
113.704,642.208,243.512
39.772,609.024,342.088
-97.356,604.876,329.156
-122.976,680.516,289.872
-23.912,797.636,266.448
48.8,904.752,255.712
41.724,977.22,228.384
38.308,1042.124,176.9
31.232,1077.504,148.84
44.652,1092.388,117.12
35.38,1091.656,84.18
-0.244,1058.96,83.692
-8.54,1038.708,71.492
-26.108,1013.332,80.764
-24.644,1003.084,75.884
-26.108,987.712,75.64
52.216,1020.408,30.5
16.104,1026.508,51.972
40.748,1010.892,47.824
99.796,1039.196,27.084
61.976,1028.46,58.316
58.072,994.3,71.248
76.616,1005.28,67.344
44.408,986.736,77.104
31.232,959.652,77.592
86.132,988.932,42.212
50.02,994.3,47.824
46.848,982.1,48.312
49.776,969.9,53.68
58.56,994.3,40.504
32.696,990.64,50.264
61.732,1007.476,31.964
69.052,1024.312,16.592
41.968,1012.112,31.964
45.872,994.788,33.672
40.504,996.984,36.844
24.4,986.248,42.7
51.484,984.052,30.5
53.436,988.444,27.328
52.216,984.296,30.988
82.472,1001.864,18.544
58.316,997.716,35.38
58.804,983.564,41.48
82.228,985.76,38.796
67.344,978.44,51.484
72.224,974.78,53.192
84.912,979.66,48.068
70.76,972.828,60.024
82.472,977.708,48.556
76.86,980.636,53.68
82.228,988.444,47.336
81.74,988.688,40.992
76.616,985.272,46.116
83.448,987.956,42.212
83.448,987.712,39.772
85.4,988.444,38.552
88.816,986.98,31.72
92.232,987.224,32.94
91.256,993.568,35.868
80.764,993.08,39.04
78.08,989.42,40.992
76.86,987.712,35.38
72.712,990.152,35.624
81.252,997.96,30.256
85.4,1001.864,29.768
81.252,1006.5,32.94
78.08,1002.352,32.696
74.176,996.252,29.036
77.592,992.348,25.864
68.808,992.592,26.596
63.44,988.932,28.548
59.536,986.492,30.5
63.196,986.004,26.596
67.344,984.296,26.352
71.248,987.224,26.108
76.616,990.884,24.4
78.08,989.176,30.256
75.884,982.1,40.748
68.564,974.048,51.24
60.024,974.536,57.096
59.292,988.932,55.632
65.148,1020.164,51.24
70.516,1063.108,50.996
71.492,1106.784,44.896
52.216,1133.38,56.608
43.188,1153.876,57.096
40.26,1167.052,51.484
33.184,1156.56,49.288
24.888,1133.38,43.432
15.128,1119.96,37.576
-7.076,1113.128,39.772
-9.028,1117.52,43.432
-24.4,1122.888,48.312
-42.212,1133.868,39.772
-59.048,1152.168,44.408
-75.64,1171.688,50.264
-129.564,1182.18,71.248
-196.664,1184.132,93.696
-244.976,1190.964,105.408
-272.548,1200.236,123.952
-319.152,1195.356,152.012
-373.32,1172.176,165.432
-359.656,1145.092,145.668
-352.092,1087.264,157.868
-407.236,1015.284,197.396
-456.28,941.596,240.096
-453.108,864.248,239.608
-470.188,773.48,252.54
-518.5,647.332,259.616
-560.712,536.312,248.636
-438.224,445.544,203.496
-415.044,345.016,194.468
-530.944,316.224,223.504
-622.688,230.336,127.368
-194.956,128.588,-3.66
265.716,30.012,-38.308
668.316,-26.596,-163.724
1110.2,-60.756,-158.6
1393.972,-151.524,-1.952
1036.268,67.1,-140.056
1085.312,499.224,-136.884
1262.456,504.348,-163.724
1018.7,465.064,50.996
1147.532,237.168,-103.944
1456.924,60.268,-90.036
1632.604,100.04,48.8
1440.576,215.696,247.66
1134.844,322.324,336.964
1084.58,359.412,380.64
1222.928,335.988,455.06
1325.164,289.14,493.368
1293.444,200.324,515.572
1150.704,103.944,553.636
1026.508,22.448,559.98
941.352,-62.708,431.148
833.016,-108.336,229.116
693.692,-91.012,58.804
551.44,-90.524,-82.472
441.152,-86.376,-355.996
394.792,-95.892,-662.46
424.316,-88.816,-895.968
560.224,-142.252,-995.276
604.388,-98.332,-1153.632
476.532,51.484,-1351.272
666.608,247.66,-1476.932
927.688,349.164,-1592.588
750.788,371.856,-1546.716
625.86,430.172,-1528.416
807.64,437.248,-1367.376
924.76,346.236,-1121.424
858.88,266.448,-877.424
719.312,128.832,-611.22
525.576,-48.312,-293.532
323.3,-328.18,33.428
347.456,-591.944,296.46
700.036,-723.948,457.744
1037.0,-902.068,705.16
992.836,-925.736,981.612
974.048,-789.828,991.616
1408.368,-668.804,827.16
1825.852,-658.068,629.276
2011.292,-885.476,330.376
1963.224,-970.632,84.424
1922.232,-813.496,-172.508
2079.124,-476.044,-443.592
2022.76,-271.572,-561.932
1738.988,-283.284,-652.7
1541.348,-298.656,-821.06
1489.864,-293.288,-902.068
1412.272,-284.26,-921.1
1177.788,-265.228,-971.364
978.196,-90.768,-997.716
838.628,198.86,-948.672
858.148,288.164,-802.028
882.304,315.492,-685.396
870.836,290.848,-639.768
943.548,211.792,-628.056
834.968,258.884,-471.164
651.968,345.016,-254.492
568.032,455.304,-88.816
555.588,493.124,-8.296
569.008,477.264,25.62
498.004,510.448,25.376
28.06,439.932,141.764
-323.788,462.624,212.524
-309.392,527.528,240.584
-192.76,568.52,278.648
-281.576,508.74,355.996
-361.12,570.472,325.984
-459.94,633.668,283.284
-463.112,741.272,258.884
-378.932,867.176,201.544
-394.06,943.06,197.64
-342.332,1025.044,120.292
-305.976,1070.428,64.66
-190.808,1134.6,5.856
-140.788,1171.688,-16.104
-182.756,1139.236,22.448
-175.68,1071.892,31.476
-197.396,1047.736,69.052
-233.264,986.98,104.92
-174.704,962.58,93.208
-99.552,989.664,74.42
-151.524,968.68,94.916
-138.592,949.648,91.744
-98.332,978.684,88.084
-130.296,974.536,112.484
-109.556,976.488,107.36
-126.148,994.056,105.652
-165.432,984.052,108.092
-145.912,991.372,88.084
-145.424,1002.108,74.664
-158.112,1004.06,70.76
-136.884,1012.356,56.608
-158.356,999.18,68.32
-157.624,984.54,70.76
-140.788,978.684,63.684
-147.864,979.416,76.128
-142.74,979.416,72.468
-136.884,973.56,73.688
-150.548,963.312,79.3
-129.32,971.608,62.952
-142.74,960.628,81.984
-143.716,956.724,85.156
-129.32,963.312,75.64
-135.42,958.676,88.816
-134.688,959.896,83.692
-106.384,983.564,63.44
-123.708,983.564,78.324
-122.732,987.712,72.956
-128.588,990.884,80.032
-142.496,974.78,89.548
-142.008,967.46,81.74
-136.884,960.872,85.156
-134.2,960.872,82.228
-130.54,966.484,72.956
-136.884,965.996,74.176
-133.712,968.436,69.296
-141.032,966.24,77.348
-142.008,966.24,79.788
-145.668,963.556,75.396
-144.936,963.556,73.2
-137.86,968.192,69.54
-139.324,970.144,70.028
-134.688,974.048,76.128
-131.028,980.392,74.664
-125.172,987.468,76.372
-127.612,991.372,75.152
-133.712,989.176,74.176
-137.616,983.808,72.956
-145.18,974.78,74.908
-149.572,966.728,76.372
-154.94,961.36,76.616
-155.672,962.824,75.64
-139.568,974.292,70.272
-127.856,985.516,66.612
-127.612,988.444,67.832
-134.688,987.712,70.272
-142.008,989.908,73.688
-147.132,1001.132,78.324
-152.012,1023.58,79.3
-166.652,1060.424,80.52
-173.484,1108.492,78.812
-199.104,1138.748,84.424
-227.408,1156.072,79.788
-277.184,1162.66,70.76
-323.788,1165.1,66.124
-339.404,1166.808,59.78
-348.432,1174.86,56.608
-355.508,1160.708,68.32
-376.248,1109.956,81.74
-406.992,1058.472,105.164
-457.744,1006.988,131.272
-507.032,960.628,145.912
-527.772,926.712,169.336
-530.944,890.112,193.98
-539.728,853.024,201.788
-568.276,811.056,197.884
-607.804,787.876,205.448
-627.568,769.088,216.184
-630.984,752.008,235.704
-613.172,719.068,233.264
-591.212,670.756,235.216
-585.6,604.876,238.144
-599.752,528.748,233.264
-600.24,454.328,227.408
-591.7,366.0,222.528
-693.692,251.32,287.92
-908.168,165.432,384.056
-747.128,229.848,327.692
-101.016,234.484,253.028
267.18,155.916,142.008
618.54,43.188,8.54
849.12,2.196,181.78
1094.584,-262.3,355.996
1176.568,-516.548,-380.396
902.312,246.44,33.428
755.424,748.836,6.588
918.66,1043.1,102.236
1283.196,839.36,43.92
1601.86,357.46,-57.584
1673.108,74.176,-70.028
1484.984,232.288,244.0
1215.364,446.276,475.8
1031.144,526.064,485.804
999.912,475.068,460.428
1143.872,471.164,423.096
1222.684,461.892,423.828
1245.132,430.904,421.388
1144.116,378.688,432.368
974.536,352.092,491.904
890.6,308.416,555.1
845.704,173.728,563.396
776.164,46.604,640.988
818.62,-85.644,713.456
884.988,-218.624,621.468
868.396,-254.736,363.316
720.288,-249.612,174.216
645.136,-287.432,-114.924
731.024,-302.804,-461.404
837.896,-131.272,-735.904
705.16,122.488,-879.132
874.008,268.888,-1168.76
1237.08,234.972,-1367.132
1092.876,121.512,-1301.496
867.908,37.332,-1224.636
927.444,45.628,-1089.216
1002.84,89.792,-841.556
1025.776,84.912,-636.352
973.804,34.404,-447.74
909.144,12.688,-301.096
763.72,57.096,-113.704
564.372,98.82,94.184
556.32,52.216,187.636
685.396,-104.432,168.604
784.704,-339.16,279.38
930.616,-457.744,442.616
937.204,-429.44,650.016
803.736,-523.624,818.376
845.704,-631.472,955.26
1215.608,-649.772,950.868
1410.32,-599.02,896.7
1681.404,-630.984,772.26
1974.936,-772.504,628.056
1950.78,-941.352,458.232
1769.244,-1111.42,154.94
1697.996,-1008.208,-144.692
1830.0,-696.376,-513.864
1693.604,-336.476,-732.732
1413.248,-150.06,-749.08
1319.308,47.824,-798.368
1216.584,143.96,-800.808
1154.608,107.116,-707.356
1169.98,71.248,-676.124
1106.052,57.34,-649.528
929.396,72.468,-548.756
869.86,149.084,-431.636
1042.124,242.048,-394.792
1171.444,232.044,-414.068
1093.852,165.676,-338.916
959.652,165.188,-251.076
884.988,226.432,-190.32
849.12,418.46,-24.4
778.36,245.708,-217.648
586.088,340.624,-75.64
465.796,425.048,-15.86
409.188,493.124,-28.06
294.508,534.36,0.0
68.076,574.376,143.716
-143.96,611.22,277.916
-253.028,618.784,329.644
-226.676,573.888,287.432
-323.788,451.888,383.08
-403.088,387.716,455.548
-331.108,393.816,423.096
-158.356,458.964,293.776
-193.98,589.504,283.04
-105.652,856.196,233.752
113.948,1130.696,134.688
98.332,1296.86,175.192
202.764,1456.924,166.896
272.304,1523.292,170.8
293.044,1498.648,144.692
227.408,1414.956,144.692
157.136,1292.468,134.2
85.888,1155.34,131.516
60.268,1063.108,116.388
33.916,995.52,110.776
40.504,972.584,67.832
34.892,976.0,50.508
32.696,962.336,63.928
77.836,977.708,41.236
76.128,996.008,57.584
61.976,978.684,72.712
64.66,961.36,56.852
83.692,973.316,56.852
61.976,962.336,88.328
68.808,956.236,81.74
106.872,988.2,60.756
65.636,992.348,83.448
68.076,995.52,70.272
54.412,995.276,69.54
53.68,979.172,70.76
78.08,985.76,43.188
42.456,978.196,67.588
62.708,983.076,66.612
55.876,981.124,69.54
47.336,971.852,83.204
78.08,987.956,57.096
49.288,987.956,64.172
55.388,991.616,55.388
65.88,1004.792,47.824
52.46,995.52,68.32
65.148,994.788,56.364
62.952,996.496,55.144
44.408,977.708,64.416
41.724,964.776,50.264
55.388,974.048,36.844
35.624,972.096,55.876
51.24,993.324,36.112
53.68,1007.964,39.284
41.968,1001.132,51.972
44.652,990.64,49.532
42.944,979.66,58.56
51.728,985.028,51.728
51.972,990.396,52.704
45.628,991.372,56.608
40.504,987.224,52.948
43.188,982.344,54.412
44.896,981.612,56.12
49.532,983.808,57.096
40.748,977.22,62.708
42.212,972.584,57.34
39.04,971.12,61.244
45.628,964.288,61.732
48.556,958.676,58.316
47.092,953.064,61.0
42.944,942.816,66.856
41.236,931.348,64.66
39.528,924.516,61.0
37.576,934.276,44.408
33.672,951.6,23.18
36.844,980.392,10.98
44.896,1023.092,0.244
41.724,1079.212,4.148
34.404,1153.144,-5.124
17.08,1214.144,-13.908
-31.232,1262.7,-22.204
-62.708,1322.724,-31.72
-68.564,1374.452,-20.008
-91.5,1379.332,6.588
-93.208,1367.132,28.548
-95.648,1335.9,40.992
-115.656,1311.5,52.216
-114.68,1278.56,83.448
-109.068,1233.908,107.116
-129.32,1195.6,130.54
-149.572,1158.024,136.396
-147.376,1109.956,139.568
-171.288,1054.324,155.916
-205.448,1002.108,163.724
-215.94,942.084,159.332
-234.728,868.64,145.18
-299.388,792.024,160.308
-362.096,723.216,169.092
-333.304,667.584,151.28
-269.864,638.792,158.6
-277.672,575.108,188.368
-422.364,479.46,147.62
-625.372,308.416,48.068
-494.588,281.576,8.784
-300.12,402.112,299.876
141.764,377.224,330.62
801.296,346.968,55.632
1215.852,415.532,60.024
823.256,-312.564,151.524
700.768,-924.272,-578.768
1306.62,81.008,-207.644
2014.464,747.616,-133.224
1670.668,581.94,45.14
1323.7,471.652,-55.144
1098.244,136.884,-393.572
1083.848,-67.588,-216.916
1138.504,281.332,70.028
996.008,542.9,113.704
692.96,589.992,93.208
856.928,593.896,72.956
1241.96,539.728,104.92
1383.968,421.632,157.136
1329.312,342.332,224.48
1162.172,287.676,362.584
948.916,216.916,493.856
848.876,151.28,519.72
822.768,-16.348,379.42
754.204,-142.496,136.884
546.804,-209.596,-178.12
419.68,-263.764,-578.28
510.936,-128.832,-908.412
394.548,-13.42,-998.692
132.492,79.3,-1249.524
417.728,259.616,-1678.72
975.512,438.956,-1734.352
895.236,350.14,-1603.08
649.772,182.268,-1473.76
602.192,84.668,-1193.404
707.112,78.568,-923.54
615.368,-98.332,-638.548
370.636,-154.452,-238.144
221.796,-169.824,77.348
396.012,-167.14,245.22
696.864,-288.652,322.568
807.64,-290.604,430.172
830.82,-226.676,481.656
1011.624,-160.552,551.928
1284.904,-173.728,599.508
1446.676,-297.192,502.152
1525.976,-481.656,299.632
1879.532,-605.608,32.208
2455.372,-640.256,-270.108
2587.376,-630.496,-429.684
2364.36,-580.232,-567.544
1835.368,-502.396,-867.908
1484.252,-234.484,-1114.836
1155.096,-50.508,-978.44
905.728,13.664,-893.772
821.06,97.6,-867.664
936.472,149.816,-777.384
1008.208,259.128,-628.056
1253.672,372.344,-626.836
1522.316,386.984,-704.672
1624.796,205.204,-656.604
1388.604,189.344,-497.516
951.356,231.068,-372.1
390.156,352.824,-161.528
-114.924,282.308,-94.672
-324.032,196.664,37.576
-246.196,363.316,276.208
-323.544,317.932,367.464
-465.796,293.288,376.492
-584.38,233.996,333.548
-412.36,301.828,230.58
-388.448,399.184,233.508
-342.332,491.66,149.084
-302.56,614.88,98.82
-207.644,784.948,59.536
-173.484,975.024,80.52
-91.5,1111.176,41.236
-87.84,1216.828,10.98
-102.968,1277.096,4.148
-106.14,1298.568,8.296
-92.232,1311.256,-15.86
-132.736,1304.668,2.196
-124.684,1282.464,9.028
-116.144,1244.644,-5.368
-136.64,1170.468,7.076
-101.504,1109.956,-14.396
-120.048,1048.712,-1.708
-126.392,990.884,7.564
-65.636,978.44,-14.64
-72.224,962.58,11.468
-62.464,948.916,25.864
-35.38,941.596,25.62
-57.584,923.784,66.124
-20.008,930.616,56.608
-26.84,931.836,74.908
-16.592,940.376,87.108
25.132,970.388,70.516
14.152,980.636,91.744
26.352,998.692,87.596
26.108,1014.308,77.592
12.932,1006.012,70.76
20.008,1009.672,46.36
-14.152,992.592,52.46
-10.736,979.172,49.532
-30.5,980.392,58.804
-47.092,964.288,69.784
-29.524,964.044,62.708
-21.472,980.392,50.02
-17.08,991.86,50.752
-6.832,1004.304,45.14
6.344,1011.136,39.528
17.568,1017.724,40.504
15.616,1020.652,41.968
8.052,1016.992,44.408
-7.808,1008.94,48.8
-23.668,997.472,57.096
-25.864,987.224,54.9
-25.132,985.272,41.968
-23.18,984.784,38.796
-17.324,988.444,38.064
-14.884,988.2,40.748
-17.324,978.684,45.14
-15.128,972.584,39.528
-21.228,970.632,38.308
-31.232,967.704,42.944
-37.332,966.24,46.848
-41.724,976.732,46.848
-45.14,992.104,48.068
-51.484,1014.796,52.704
-51.484,1048.956,55.144
-73.444,1081.652,64.904
-91.256,1134.112,61.976
-118.584,1183.4,63.44
-141.276,1213.412,66.124
-163.236,1222.928,65.636
-178.12,1233.176,71.98
-174.216,1238.3,83.692
-180.804,1209.264,92.476
-168.848,1167.296,94.916
-172.996,1111.42,102.236
-172.264,1072.38,105.652
-169.58,1031.144,99.552
-188.124,996.984,94.916
-203.252,971.608,97.844
-204.228,959.896,109.068
-207.156,938.912,123.464
-224.968,906.704,131.516
-257.176,875.96,145.668
-312.808,843.752,168.848
-374.296,808.128,183.488
-428.952,757.62,192.272
-681.98,672.952,276.208
-819.596,617.076,223.992
-638.548,604.632,151.768
-376.98,534.116,77.836
38.308,397.232,-83.204
544.12,320.372,-168.604
850.096,188.856,-149.084
1049.2,-74.176,137.616
729.316,-290.36,-641.476
761.28,530.456,-391.132
1451.8,870.592,-368.928
1062.62,626.592,137.372
974.048,270.596,-132.248
1273.436,-135.42,-357.948
1620.16,-10.004,-179.828
1493.524,186.416,-30.988
1055.3,312.32,-58.316
682.956,395.768,-44.896
692.96,499.712,-27.328
843.264,518.744,-45.14
912.316,479.948,-93.94
964.532,436.272,-140.788
980.148,420.412,-128.344
945.256,404.796,-99.796
923.784,408.944,-100.284
992.592,393.084,-98.088
1049.688,366.244,-76.616
1060.18,353.8,-63.928
1041.148,343.308,-62.22
1056.764,346.236,-66.612
1077.26,359.656,-62.464
1103.368,383.812,-50.508
1168.028,426.756,-41.724
1215.852,419.924,50.508
1201.456,352.336,141.276
1071.648,255.712,257.42
947.94,111.264,392.84
951.356,-11.224,341.6
960.384,-85.156,120.536
892.796,-117.608,-41.236
760.304,-147.62,-172.996
657.336,-80.764,-302.804
445.3,28.304,-446.276
256.2,72.224,-534.116
215.94,46.848,-675.88
501.176,64.904,-902.068
732.0,105.896,-991.128
676.368,149.816,-1064.328
734.928,286.7,-1275.632
979.416,325.984,-1266.116
1091.656,251.564,-1108.004
1024.556,91.5,-969.412
957.212,14.396,-772.016
954.284,109.8,-582.672
893.772,238.876,-385.276
747.86,199.836,-173.484
520.452,-45.14,70.272
353.312,-278.404,215.94
187.636,-548.512,260.836
211.06,-902.556,318.42
828.136,-920.368,249.368
1607.472,-851.804,24.888
2001.532,-677.588,-170.312
1927.356,-612.44,-231.068
1692.872,-627.568,-389.18
1656.76,-583.404,-729.804
1729.472,-437.492,-890.6
1768.756,-274.744,-956.724
1587.952,-274.744,-890.6
1384.456,-392.352,-903.044
1360.056,-549.976,-1091.656
1267.58,-605.608,-1205.604
1013.088,-547.292,-1152.656
769.088,-423.828,-1153.632
665.144,-271.816,-1037.0
616.832,-122.488,-976.244
681.98,206.18,-1269.044
603.9,377.712,-1130.452
526.552,290.116,-881.084
698.572,129.808,-729.56
1105.808,-3.172,-809.836
1384.212,-73.2,-880.596
1247.328,9.516,-684.908
789.828,56.608,-351.116
342.82,178.12,124.44
204.716,361.852,222.04
162.504,397.964,156.648
-20.008,457.5,194.468
-224.48,570.96,253.76
-304.268,623.908,158.356
-315.98,727.852,125.66
-118.828,870.104,64.172
-39.528,957.456,18.056
-92.476,977.708,-23.424
-156.404,952.576,-27.084
-110.044,937.204,-22.448
-35.868,952.576,-22.936
-10.004,980.88,-29.28
1.952,1012.844,-33.916
54.9,1052.372,-22.936
137.616,1094.828,-22.204
117.364,1107.028,12.2
166.164,1095.316,-3.172
168.116,1090.68,-11.224
95.648,1053.104,22.936
152.256,1043.1,-2.928
149.084,1036.756,16.348
115.168,1024.312,38.796
140.788,1011.624,20.496
117.852,994.788,33.672
128.832,999.668,21.716
119.56,992.836,29.036
153.232,998.448,16.348
124.928,996.984,25.132
125.172,979.416,40.504
136.396,987.224,41.724
102.48,974.292,55.632
138.836,966.484,52.704
154.696,981.856,45.628
140.3,972.828,62.464
168.848,984.052,62.22
137.86,979.66,75.64
133.224,960.384,84.668
164.212,972.828,68.808
146.4,972.828,76.372
153.232,968.436,78.08
173.484,981.856,66.856
148.84,975.756,78.568
156.892,971.852,71.248
168.604,978.928,66.124
149.816,973.072,77.104
159.82,968.436,72.956
154.452,964.044,77.348
144.204,960.384,73.2
153.72,967.216,51.24
151.768,976.244,52.948
151.036,985.272,55.876
143.228,987.712,61.732
146.156,985.028,63.44
146.4,978.684,57.584
145.18,975.512,49.532
143.96,972.34,47.824
134.932,968.924,44.408
131.516,977.464,39.772
134.444,1020.652,30.256
128.588,1085.312,21.472
118.096,1167.54,3.416
58.804,1230.736,-12.932
36.112,1289.296,-45.872
24.156,1334.436,-39.772
19.52,1345.66,-26.352
-47.092,1325.408,16.592
-83.692,1291.736,37.576
-101.992,1247.328,50.996
-127.124,1190.476,68.076
-172.264,1129.72,76.616
-235.216,1070.184,76.616
-259.616,1038.464,89.548
-268.4,1018.7,122.732
-288.652,992.104,141.032
-321.592,952.332,152.256
-362.828,903.532,175.68
-395.768,854.244,175.192
-397.476,815.692,179.34
-417.728,791.78,222.04
-446.52,758.352,247.172
-474.336,706.868,279.38
-489.952,638.06,283.04
-500.444,573.644,279.136
-507.032,531.188,281.82
-614.148,459.94,290.604
-900.848,350.628,261.568
-853.268,257.664,113.704
-629.764,324.032,421.632
-176.168,388.204,372.1
462.136,377.956,226.676
892.308,306.708,-91.012
1456.192,272.792,168.116
1116.3,-672.952,-157.38
781.532,-105.408,-324.276
1196.332,736.88,-142.984
1319.796,797.392,192.028
1342.732,738.832,-70.028
1385.432,250.832,-75.64
1169.98,-161.04,-159.82
1082.14,170.312,4.392
809.348,503.86,194.712
696.376,641.964,152.744
777.628,615.856,73.444
882.548,496.54,36.356
1026.508,484.34,15.616
1065.304,515.572,35.624
1081.896,567.788,80.276
1112.64,586.82,142.252
1127.036,547.292,204.96
1044.808,495.808,271.328
951.6,450.424,356.484
1013.088,429.196,434.076
1066.036,353.556,499.956
1043.588,238.144,570.472
1037.0,146.156,532.652
947.208,187.88,462.868
717.36,189.588,453.108
541.436,235.216,443.104
502.396,257.42,296.46
495.32,157.38,59.78
493.612,17.08,-218.868
454.572,-155.672,-530.456
452.62,-171.044,-914.024
477.02,10.98,-1232.688
468.236,187.88,-1276.608
533.872,166.896,-1263.188
598.776,120.048,-1382.016
493.124,143.96,-1432.768
396.988,223.016,-1398.364
442.616,201.056,-1299.056
538.508,205.204,-1210.972
624.884,245.708,-1164.368
702.476,252.784,-1074.576
750.544,296.948,-947.94
727.12,337.208,-749.812
645.624,279.136,-502.884
402.844,-60.024,-229.116
322.324,-516.792,-44.408
585.6,-610.488,169.58
1141.92,-580.476,271.572
1529.392,-873.276,455.06
1076.284,-784.704,860.588
612.928,-599.02,961.604
1182.912,-397.72,657.824
1729.716,-265.228,431.392
1822.68,-328.668,224.236
1841.712,-598.532,-106.628
1937.604,-874.252,-551.684
1808.772,-809.836,-893.772
1894.66,-283.772,-1161.44
1884.412,-4.148,-1110.2
1861.232,72.224,-1097.756
1670.18,34.648,-1003.328
1482.544,-223.504,-874.252
1376.404,-339.404,-873.764
1292.468,-283.284,-892.064
1186.328,-153.232,-828.868
1106.54,-23.668,-630.984
1099.22,128.344,-527.284
996.496,247.66,-472.14
932.568,285.724,-440.42
718.58,273.768,-343.552
462.868,178.608,-247.904
357.216,244.0,-225.7
182.024,317.932,-231.556
41.48,333.548,-244.732
-179.828,313.296,-106.628
-204.472,492.636,-7.808
-131.76,589.992,61.488
5.612,607.804,25.864
-149.328,579.012,120.78
-223.504,527.284,205.936
-311.588,507.52,324.52
-255.956,578.28,273.768
-326.716,603.656,270.596
-365.512,680.516,241.072
-290.116,875.472,132.248
-196.176,1147.776,35.868
-90.036,1378.112,-38.796
-72.712,1537.688,-44.164
-28.792,1572.336,-50.752
-70.272,1484.984,-21.472
-145.668,1327.604,16.348
-114.924,1223.416,-16.836
-164.212,1097.268,31.232
-160.552,983.32,31.476
-166.896,897.432,41.236
-98.332,886.696,7.076
-75.152,882.792,12.444
-5.612,935.984,-33.672
-17.568,977.464,-21.96
-27.572,960.14,-4.88
-25.864,945.988,2.196
-67.344,935.496,20.008
-65.148,938.912,8.784
-63.44,965.508,-10.736
-84.18,971.852,6.1
-45.14,994.544,6.832
-47.824,1014.552,30.988
-61.0,1001.376,49.288
-52.216,988.688,51.972
-8.052,1007.72,17.812
-32.452,1001.132,35.136
1.708,1008.452,13.664
-18.788,1007.476,37.82
-35.38,990.396,53.68
-31.72,978.44,49.288
-52.216,965.02,49.288
-45.628,952.82,41.48
-8.784,968.924,12.2
-33.916,963.556,33.428
-4.636,972.828,31.232
10.736,999.424,32.696
-7.076,997.96,50.752
-3.416,992.348,51.24
1.22,988.932,50.264
-10.248,969.168,62.22
17.324,970.876,43.188
12.688,984.784,42.944
-0.976,977.952,47.336
14.884,982.1,30.988
-5.856,983.076,39.04
-14.152,977.708,43.432
0.244,991.372,23.668
-14.64,996.496,27.084
-10.492,991.86,32.208
0.976,995.764,32.208
-4.636,990.64,38.308
12.2,1007.232,25.376
6.1,1013.332,32.94
11.224,1020.652,31.964
6.588,1025.288,30.5
2.44,1025.532,30.5
-7.32,1016.992,32.696
-7.32,1009.916,27.328
-7.32,1005.036,26.108
-4.148,1000.644,26.108
-0.244,997.96,27.084
2.44,991.86,32.452
3.416,984.052,36.112
3.416,980.636,33.672
2.196,979.66,31.232
2.684,977.708,31.476
-0.244,976.488,29.28
0.976,978.44,30.5
1.22,976.488,29.036
-3.172,975.756,29.524
-5.124,975.512,30.256
-0.976,981.124,28.792
-4.148,978.684,38.552
-0.244,983.076,36.844
-10.492,994.056,31.964
-24.644,1007.72,34.648
-26.84,1017.724,38.308
-26.84,1039.44,33.672
-21.96,1071.892,27.328
-22.204,1094.828,36.112
-30.988,1093.608,44.408
-35.624,1078.968,48.068
-39.04,1068.964,50.02
-39.772,1056.52,51.728
-50.264,1033.828,54.412
-55.144,1009.916,56.12
-53.436,993.812,56.364
-61.244,983.32,58.56
-72.224,978.44,70.516
-72.712,984.54,79.056
-60.756,1002.596,74.908
-62.22,1009.672,79.544
-70.272,1026.02,79.3
-89.548,1045.296,87.352
-107.116,1081.164,93.452
-140.788,1118.74,110.044
-192.272,1149.484,117.364
-228.628,1170.224,113.704
-269.864,1173.152,122.0
-292.068,1176.324,120.78
-315.492,1158.512,122.244
-361.12,1133.868,136.64
-365.756,1116.788,138.592
-369.172,1089.948,159.332
-405.528,1045.052,181.78
-400.892,980.392,185.928
-361.852,916.952,201.056
-329.4,846.924,226.188
-473.604,718.58,233.508
-691.984,467.992,109.556
-707.6,339.16,88.084
-573.156,325.984,247.172
71.248,330.62,198.616
452.864,387.228,-65.88
942.084,493.368,-218.868
623.42,-3.172,240.34
153.72,-837.896,-419.68
1183.644,391.864,-184.464
1861.964,677.832,170.068
1586.732,588.284,272.304
1354.688,144.204,169.824
1269.532,-368.44,-46.36
1353.468,-34.648,189.588
1151.192,400.404,397.476
825.452,596.58,329.4
740.296,619.028,226.188
981.612,595.604,218.38
1176.812,548.268,280.356
1221.952,462.136,305.0
1122.4,398.94,313.54
1047.248,409.188,360.144
989.664,414.8,445.788
954.528,364.048,518.256
789.096,194.224,512.4
534.848,48.8,528.504
432.612,38.796,453.84
379.176,66.368,311.1
335.012,-3.66,133.468
311.832,-150.304,-158.6
425.536,-336.232,-524.112
747.372,-395.28,-791.048
823.5,-283.528,-926.468
439.688,30.256,-1248.548
897.676,427.732,-1564.284
1329.556,449.936,-1693.604
768.6,180.316,-1347.368
514.84,-68.32,-1211.948
574.864,-78.812,-1020.408
737.856,-71.248,-791.78
782.996,89.06,-611.464
765.916,315.004,-594.628
605.12,427.0,-498.248
501.908,417.484,-299.144
575.596,255.712,-108.824
694.912,-85.156,-35.136
697.84,-392.596,49.776
765.184,-524.844,185.44
976.488,-580.232,291.092
983.32,-429.44,514.84
1486.204,-366.0,399.916
2116.7,-630.74,10.492
2513.688,-1184.864,-288.896
2358.748,-1503.284,-798.124
2228.452,-756.156,-1004.548
2531.988,-271.328,-1180.96
2237.968,-105.408,-965.996
1552.084,-217.648,-796.172
1222.684,-427.0,-786.656
1189.988,-557.296,-748.348
1107.028,-504.104,-831.064
841.8,-311.588,-801.54
664.9,-95.892,-665.632
689.3,67.588,-595.848
757.132,243.268,-596.336
763.476,301.096,-539.728
866.932,344.04,-551.196
1015.04,305.732,-647.332
1083.116,226.188,-650.992
1045.052,228.628,-477.996
991.128,272.792,-341.112
839.36,296.46,-244.488
446.032,284.992,-82.228
101.504,315.736,47.092
-106.14,395.524,129.564
-183.244,455.548,181.048
-299.876,512.156,285.48
-304.512,612.684,299.632
-145.424,711.992,163.236
-310.124,752.008,177.876
-359.656,827.892,175.924
-217.892,948.916,137.616
-157.136,1031.144,118.34
-173.24,1062.376,88.328
-205.692,1063.108,89.792
-160.308,1058.228,78.568
-101.504,1077.992,39.284
-126.88,1063.108,57.828
-96.868,1050.908,70.028
-57.828,1042.124,72.712
-61.0,1032.608,89.548
-56.12,1020.164,95.404
-50.996,1007.476,92.476
-89.06,991.86,114.436
-52.46,992.104,86.864
-90.28,984.784,97.844
-97.6,971.12,104.188
-46.36,988.932,76.616
-75.396,980.636,100.772
-63.44,985.76,89.792
-42.7,1019.188,81.252
-53.436,1010.648,104.676
-20.74,1017.724,86.62
-45.14,1012.6,101.26
-60.268,984.784,115.656
-50.02,976.732,111.508
-34.404,981.368,103.456
-34.16,973.56,105.408
29.768,1006.256,73.932
-14.396,1016.992,103.456
-23.18,1014.796,109.312
-28.06,1007.964,115.656
-45.14,985.272,117.608
-31.964,980.148,100.772
-42.7,978.44,107.36
-31.964,980.148,106.14
-27.328,981.856,108.824
-33.184,976.244,114.436
-12.932,977.952,103.7
-36.6,972.34,112.972
-40.016,964.776,102.48
-29.28,967.704,91.744
-38.552,968.192,100.772
-27.328,982.588,92.964
-39.528,981.856,100.284
-40.26,974.292,101.016
-45.872,966.484,107.116
-36.356,965.508,105.896
-41.48,964.532,101.26
-39.528,970.388,95.404
-40.504,979.66,94.672
-42.456,982.344,103.212
-46.116,978.44,108.336
-47.092,977.708,106.14
-50.996,980.88,100.772
-48.068,985.76,100.04
-43.188,993.812,99.064
-41.48,1002.84,95.404
-42.456,1009.916,85.4
-43.92,1017.48,76.616
-39.772,1020.896,78.324
-38.796,1020.652,76.372
-45.14,1018.456,81.252
-49.532,1016.26,82.716
-57.828,1019.676,87.108
-62.22,1032.364,90.036
-86.864,1042.612,94.184
-126.148,1044.076,108.824
-156.892,1047.736,113.216
-186.416,1064.328,108.58
-224.48,1089.46,98.332
-289.14,1101.904,87.84
-353.312,1116.544,81.252
-400.16,1128.988,97.112
-428.22,1132.648,118.096
-443.836,1121.668,139.08
-456.524,1093.364,166.896
-482.388,1040.172,183.976
-505.812,984.54,201.056
-526.308,932.812,215.696
-514.108,907.68,210.572
-507.764,897.432,205.448
-518.988,877.912,215.452
-540.948,840.336,219.844
-587.796,774.944,225.212
-622.688,702.964,238.876
-630.252,631.472,260.348
-628.056,558.028,277.184
-634.888,490.684,279.38
-632.448,436.516,267.424
-617.076,399.428,240.096
-606.34,352.824,230.092
-609.512,241.56,203.984
-1009.916,-109.8,118.584
-1453.752,-222.528,323.056
-716.628,109.312,556.808
146.644,325.008,379.664
925.736,302.804,-238.632
1550.132,306.952,-366.244
1962.004,-170.068,424.804
551.684,-1267.336,-480.924
764.208,266.936,272.304
1651.88,818.864,-51.972
1880.996,1047.004,-4.392
1775.832,491.66,-130.052
1195.6,-28.792,-75.152
942.084,72.468,-134.932
710.528,431.148,192.028
708.576,650.992,239.852
817.4,679.296,122.0
910.852,578.768,71.98
974.292,444.08,17.568
1049.444,403.332,-15.128
1062.376,440.664,-6.1
1039.684,474.092,4.392
1025.288,486.78,14.396
1017.968,475.8,28.548
1036.756,476.288,56.12
1062.62,490.196,103.7
1064.084,493.612,201.3
1070.916,472.384,293.288
1086.776,414.556,365.756
1067.988,314.272,444.324
1058.228,246.928,489.464
1026.02,175.924,484.584
986.248,105.652,499.468
888.404,-12.688,488.244
777.628,-104.676,322.08
707.112,-198.616,29.28
546.316,-238.144,-201.544
426.512,-435.052,-427.976
492.636,-485.316,-904.752
402.6,-252.784,-1496.452
382.104,256.2,-1669.204
527.528,322.324,-1455.216
640.5,205.936,-1581.364
439.688,7.808,-1575.02
257.908,-25.376,-1558.184
294.508,49.776,-1417.884
488.244,189.1,-1188.524
693.692,293.532,-1057.74
760.06,323.056,-887.184
735.172,285.724,-728.584
542.412,183.0,-479.704
412.848,85.4,-143.472
595.848,-223.748,-42.456
871.568,-317.2,42.212
1094.096,-433.344,200.324
1173.396,-612.684,633.18
984.784,-683.2,896.7
921.588,-640.012,921.588
1448.384,-437.004,733.464
1892.952,-262.056,560.956
2011.536,-304.024,361.364
1916.132,-521.428,200.568
1726.3,-774.944,-105.408
1676.036,-694.18,-559.492
1763.144,-391.132,-801.296
1712.392,-142.252,-899.14
1440.332,-154.208,-975.024
1209.02,-127.124,-1019.676
1008.696,-130.54,-989.908
974.536,-168.36,-906.704
984.54,-166.896,-806.908
1002.84,-190.32,-803.492
999.668,-152.256,-746.64
891.088,-101.26,-587.064
817.888,-18.056,-509.716
808.128,64.416,-454.084
852.292,135.42,-375.516
871.08,189.1,-306.952
946.964,271.328,-312.076
1020.164,293.776,-303.536
1089.46,285.968,-258.884
1038.708,303.78,-172.996
932.812,362.584,-111.752
771.772,354.532,-63.684
658.556,356.972,-15.616
464.82,345.26,31.964
169.092,290.604,92.476
-208.132,264.008,251.808
-496.54,277.184,399.428
-488.244,218.136,429.196
-321.592,198.128,466.284
-361.364,202.764,494.344
-312.32,257.908,308.904
-188.368,506.544,137.616
28.548,945.744,-45.14
138.348,1346.392,-218.624
102.724,1595.028,-231.8
163.48,1675.792,-198.86
205.936,1682.868,-148.352
187.88,1604.3,-92.72
190.32,1510.604,-78.568
133.468,1398.852,-75.152
48.556,1264.652,-68.564
19.764,1156.804,-84.18
-28.304,1067.012,-58.804
-42.212,991.372,-39.772
4.88,970.144,-71.004
8.296,971.608,-68.076
30.988,957.944,-54.412
69.784,958.432,-52.216
106.628,987.468,-47.336
103.456,978.196,-32.452
162.992,1000.156,-67.832
160.796,1028.216,-70.76
138.836,1003.084,-40.748
141.764,983.076,-30.744
96.868,980.392,-12.688
72.712,955.992,-1.22
81.008,940.376,-21.716
86.864,967.216,-52.216
66.124,968.192,-32.452
60.756,971.608,-35.868
53.192,978.196,-38.064
43.92,979.416,-18.056
57.584,978.44,-23.912
83.204,992.348,-48.8
64.416,989.664,-31.476
80.764,1006.988,-39.528
62.708,1003.572,-26.352
61.732,999.424,-27.328
59.048,995.276,-34.892
68.564,994.056,-45.628
85.156,995.032,-51.728
88.084,993.324,-49.288
82.716,986.248,-34.404
84.668,976.488,-24.4
80.764,964.288,-15.372
90.036,963.556,-24.888
85.156,960.628,-28.548
82.228,951.844,-31.72
70.028,935.984,-21.96
64.66,923.784,-18.056
58.316,918.172,-14.396
74.42,922.076,-13.42
71.492,931.836,-12.2
74.42,955.992,-21.96
76.128,982.588,-28.06
85.156,1013.088,-31.964
84.424,1050.176,-32.94
75.396,1089.704,-29.036
72.956,1127.768,-36.112
74.176,1174.616,-59.78
48.312,1207.8,-62.464
21.472,1261.968,-67.832
-13.176,1321.26,-63.196
-42.944,1388.604,-63.684
-50.996,1457.9,-73.932
-63.44,1478.884,-84.912
-79.544,1466.928,-96.38
-109.068,1441.552,-90.036
-138.348,1428.132,-67.1
-148.596,1403.0,-59.048
-133.956,1346.636,-45.628
-118.34,1265.14,-5.612
-128.588,1173.884,44.652
-126.636,1085.068,87.352
-150.548,978.684,136.396
-260.348,867.42,151.524
-239.852,822.524,151.036
-140.056,763.964,199.836
-128.344,691.496,266.692
-151.524,596.092,246.684
-150.304,507.764,235.46
-141.764,441.396,245.952
-163.968,381.86,254.004
-221.796,320.372,269.62
-282.552,277.672,287.188
-313.784,247.66,289.384
-352.58,194.712,304.268
-507.276,54.168,285.236
-720.532,-131.76,177.632
-745.42,228.384,701.988
43.676,183.976,445.056
914.512,188.856,119.804
1416.908,155.916,-250.588
1479.372,-190.808,-53.68
816.912,-794.464,-827.892
1398.364,688.568,-427.244
1951.756,954.772,-662.704
1355.664,859.124,-303.536
1336.388,677.832,-552.172
1277.34,220.82,-568.764
1304.912,275.964,-353.312
1180.228,518.256,-152.5
922.076,636.352,-25.62
880.84,659.776,-41.236
1004.304,567.3,-71.736
1146.556,477.02,-93.94
1240.984,475.8,-114.192
1208.776,511.668,-76.128
1126.548,543.144,-28.06
1069.208,538.02,30.744
1098.244,518.012,83.204
1113.616,461.892,149.084
1100.684,400.648,239.364
1041.88,315.492,340.624
946.232,206.424,404.308
874.252,119.316,396.256
815.204,47.092,274.012
702.476,28.548,127.612
571.204,4.636,-43.676
419.436,-107.848,-277.672
293.044,-250.344,-592.188
450.912,-262.056,-954.04
703.452,42.944,-1221.952
593.896,156.892,-1230.492
316.712,21.96,-1182.912
442.372,128.588,-1303.936
617.32,258.396,-1452.776
627.324,278.16,-1379.332
553.636,218.38,-1208.044
639.524,238.876,-1137.772
743.712,208.376,-988.2
757.376,188.856,-817.888
691.74,130.784,-612.684
575.352,2.928,-350.384
519.232,-58.072,-47.092
619.76,-47.092,146.4
850.584,-87.596,219.844
1158.512,-321.104,257.908
1291.492,-369.66,508.74
1083.36,-329.888,737.856
958.432,-327.448,883.524
1377.868,-286.7,807.884
1657.736,-287.432,668.56
1665.3,-341.844,549.488
1660.664,-460.916,396.988
1621.624,-597.556,187.636
1589.904,-684.42,-94.916
1697.752,-607.804,-383.08
1702.876,-394.304,-660.752
1444.236,-227.896,-788.852
1137.772,-85.888,-740.052
985.028,-61.976,-718.58
988.932,-72.956,-731.756
898.896,-171.776,-798.368
802.76,-195.444,-828.136
738.1,-138.348,-821.304
763.232,-88.572,-770.552
813.74,-23.912,-688.08
846.924,19.52,-632.692
923.296,32.696,-582.672
960.384,71.004,-560.956
910.12,72.712,-524.6
896.944,135.176,-492.88
916.708,208.376,-472.384
956.724,241.56,-430.904
895.236,278.648,-340.868
854.488,337.94,-277.428
874.496,459.208,-271.572
853.756,511.912,-263.276
804.468,479.704,-186.172
792.512,516.06,-128.344
723.948,607.804,-75.152
598.532,709.552,-32.94
500.688,751.276,-52.216
332.572,719.068,34.648
129.808,730.292,167.872
-47.824,734.928,236.192
-79.544,745.42,204.96
-56.608,773.48,229.36
-91.012,807.64,324.764
-205.692,804.468,393.084
-148.84,857.904,307.196
-252.052,871.324,294.996
-295.728,891.82,213.256
-268.4,935.496,127.612
-237.9,1025.532,16.348
-262.3,1101.416,-6.832
-208.62,1179.74,-29.524
-202.032,1180.716,-5.124
-161.772,1163.636,-5.124
-174.948,1135.088,9.516
-171.532,1076.772,51.972
-121.512,1034.316,55.876
-107.848,1012.356,36.112
-112.484,985.272,60.756
-58.804,988.688,33.428
-81.74,975.512,61.976
-71.736,965.752,48.556
-93.94,947.94,64.904
-71.736,949.648,50.752
-59.048,987.224,10.98
-88.816,979.66,47.092
-76.372,981.612,43.92
-105.408,963.556,42.944
-119.316,947.208,66.368
-88.572,959.164,65.392
-86.62,964.044,61.976
-97.112,959.408,80.276
-85.644,961.116,73.2
-99.796,953.064,97.6
-91.5,960.384,105.408
-79.056,978.196,105.652
-73.2,1001.132,92.964
-80.764,1005.036,91.012
-77.836,1015.04,77.104
-101.992,1005.036,86.864
-99.796,1004.548,77.592
-113.216,1001.376,70.516
-129.808,978.44,90.524
-122.244,967.46,82.716
-131.76,967.216,76.128
-134.2,960.872,86.62
-129.076,959.652,86.864
-133.468,959.408,92.476
-139.324,972.828,107.848
-147.864,997.472,115.656
-151.036,1042.612,111.264
-145.424,1091.168,113.704
-137.128,1124.596,98.576
-178.364,1124.84,106.872
-215.94,1128.012,112.972
-257.664,1141.92,114.924
-290.116,1165.1,101.992
-304.024,1189.256,87.84
-307.928,1185.596,97.6
-295.24,1157.292,127.368
-278.404,1099.464,157.38
-264.252,1051.152,198.86
-233.752,1003.084,220.332
-226.432,950.38,225.212
-252.052,888.16,227.164
-293.288,854.732,222.04
-338.428,831.552,216.184
-396.256,803.248,221.552
-454.572,786.656,238.388
-501.664,756.4,258.64
-556.32,712.968,282.064
-604.144,655.872,280.112
-653.432,613.172,281.088
-684.664,568.764,304.268
-685.152,517.28,335.256
-687.836,454.328,381.128
-665.632,394.792,396.744
-621.712,362.34,406.748
-591.212,337.208,403.332
-571.448,303.292,391.132
-582.916,279.624,395.28
-776.164,161.284,379.42
-1034.072,-30.744,411.384
-953.064,96.868,668.56
-465.064,101.748,543.388
311.1,141.276,70.272
1103.124,48.312,-379.176
1691.896,172.508,-506.3
1441.308,-140.3,-407.48
612.44,-423.34,-484.096
1690.92,617.076,-755.912
2019.344,732.488,-189.588
1680.916,564.616,-394.792
1454.728,235.704,-429.684
1117.764,-22.448,-600.728
1016.016,215.696,-415.532
886.94,484.096,-169.824
750.544,598.288,-156.648
679.784,579.988,-228.14
775.676,498.004,-294.264
926.712,441.64,-342.332
1024.068,432.612,-339.648
1015.284,433.1,-331.352
961.848,442.128,-313.296
975.024,438.224,-285.236
1037.244,429.684,-235.46
1089.704,423.34,-187.636
1109.712,419.924,-139.324
1047.98,385.52,-79.788
957.944,355.996,-24.644
951.844,335.988,11.956
973.072,277.916,20.252
912.804,208.376,-47.824
828.868,131.516,-152.5
732.732,68.564,-245.22
658.8,3.416,-299.388
601.46,-117.608,-406.016
592.92,-216.428,-589.992
495.32,-268.4,-814.96
481.168,-240.34,-1131.428
514.352,-119.804,-1299.056
420.9,8.784,-1268.068
297.436,55.876,-1250.012
293.044,73.444,-1285.88
339.16,61.0,-1221.464
395.28,18.3,-1098.0
469.212,33.428,-999.424
567.544,44.896,-937.936
587.796,124.684,-790.316
601.46,216.916,-660.996
640.744,269.864,-558.516
730.536,208.132,-430.416
800.32,39.04,-285.236
843.264,-119.072,-132.248
929.884,-274.988,8.296
1183.888,-432.856,306.22
1634.068,-642.452,509.96
1605.764,-791.78,598.776
1208.288,-813.984,739.808
1438.868,-550.952,674.172
1895.392,-354.532,428.952
1864.892,-334.524,222.284
1648.708,-474.336,-88.084
1559.16,-645.136,-511.912
1460.584,-568.276,-874.008
1336.144,-306.708,-963.556
1220.732,-50.508,-965.02
1149.972,-2.196,-919.636
1156.804,46.604,-911.096
1046.76,-27.572,-792.268
918.416,-132.492,-676.124
888.16,-156.404,-633.912
951.6,-158.112,-620.248
1049.932,-118.828,-621.468
1108.736,14.396,-599.02
1024.068,152.256,-512.156
1024.8,213.012,-459.94
1113.128,355.508,-452.62
1076.772,505.324,-432.368
982.588,458.72,-400.892
922.076,393.084,-282.796
979.904,460.428,-179.096
958.676,506.788,-123.952
707.112,438.224,-78.568
470.188,469.212,-0.488
59.536,561.932,35.38
-182.756,701.988,107.604
179.584,660.508,129.808
173.972,566.08,249.124
-271.572,568.52,337.696
-261.08,508.252,313.052
-80.52,487.756,265.96
-129.808,537.044,276.94
-194.224,665.388,293.288
-2.684,844.484,195.688
63.44,1045.296,167.14
127.368,1219.024,139.08
183.0,1300.032,125.172
183.732,1293.932,131.272
153.72,1228.784,113.704
129.808,1154.852,121.756
119.316,1086.288,135.42
68.32,1017.236,151.524
110.044,1023.824,90.524
42.7,998.204,123.952
37.088,971.364,108.092
93.94,995.276,39.284
48.8,979.416,82.716
47.336,956.968,84.668
93.94,962.58,62.464
61.488,949.404,106.384
54.168,931.104,118.584
132.248,973.316,58.316
103.7,996.74,77.104
83.448,998.936,89.548
100.04,1006.988,60.268
54.9,988.932,115.412
39.284,964.288,105.164
23.668,954.284,92.964
24.4,946.964,97.356
88.816,963.312,68.808
129.564,999.18,70.028
108.824,1017.724,111.508
144.936,1043.832,99.064
157.38,1050.176,92.232
151.036,1036.512,91.5
119.072,1018.944,93.696
103.212,994.056,83.936
78.812,976.976,91.5
63.196,976.488,89.792
49.776,969.412,83.692
55.144,964.532,63.196
81.984,974.78,39.528
74.908,980.148,50.02
85.888,984.784,52.46
87.108,981.612,61.976
90.768,982.1,69.052
97.112,974.78,82.716
129.564,973.804,70.028
129.076,978.196,82.96
122.244,975.512,89.06
128.344,979.416,82.472
99.064,979.416,94.184
92.72,974.048,87.84
81.74,976.976,82.716
74.42,982.1,72.224
78.812,1000.156,61.732
86.62,1031.632,54.656
91.988,1077.504,48.8
88.328,1120.448,38.064
89.06,1146.8,34.16
109.312,1171.932,29.28
111.996,1196.82,29.768
94.184,1213.9,38.308
106.628,1235.86,30.988
109.8,1241.96,38.308
70.028,1234.152,60.024
24.4,1208.776,99.064
-23.668,1179.984,128.1
-86.62,1131.184,162.992
-115.9,1074.088,183.244
-170.312,1034.072,201.056
-239.852,1000.644,204.472
-274.012,953.796,228.872
-272.06,912.072,236.68
-279.624,871.812,230.092
-305.732,865.224,224.724
-310.368,858.148,211.304
-341.112,871.812,188.856
-395.28,865.712,203.984
-424.316,826.916,228.14
-473.116,785.192,247.904
-518.5,748.348,256.688
-531.92,726.632,293.288
-502.884,698.572,292.068
-516.06,636.352,299.876
-546.072,572.912,284.748
-539.972,522.648,260.104
-509.228,499.224,278.892
-549.488,433.832,294.996
-845.704,285.968,209.108
-1057.496,211.06,309.392
-680.028,330.376,511.668
-282.796,366.732,350.872
157.624,243.512,-8.296
656.36,40.26,-155.672
752.008,-444.812,240.584
955.748,-1529.88,-72.224
1409.344,-385.52,-587.308
2375.096,885.232,-643.184
1670.912,762.5,-180.56
1052.616,421.144,-390.888
952.82,-78.568,-492.636
1350.052,-120.78,-595.604
1394.216,151.524,-279.624
1107.028,410.652,-146.4
661.728,501.42,-158.112
639.768,497.76,-167.872
949.648,426.024,-182.268
1089.704,339.892,-209.84
1106.052,298.168,-253.76
1098.732,331.84,-259.86
1092.388,377.956,-239.608
1086.776,391.864,-210.084
1084.58,374.54,-173.24
1119.472,368.684,-133.956
1108.004,358.192,-61.732
1147.776,388.692,2.196
1188.036,403.088,66.856
1175.592,399.428,139.568
1058.472,353.8,237.168
1005.524,282.552,299.388
1055.056,232.776,293.044
1056.764,206.18,330.62
899.628,121.268,365.024
738.588,110.532,324.764
692.96,133.468,160.552
654.164,61.0,-65.392
548.268,-130.54,-349.408
418.46,-299.144,-650.504
535.58,-283.528,-1016.748
625.128,-56.12,-1205.36
590.236,-16.104,-1138.016
444.568,52.704,-1274.168
481.656,248.88,-1495.476
648.064,298.9,-1435.94
668.072,219.356,-1243.912
659.044,107.36,-1124.596
711.504,28.06,-988.2
757.864,37.088,-883.036
674.66,-1.22,-738.588
535.58,-25.132,-454.084
512.156,-14.884,-95.648
620.736,-117.852,132.248
780.556,-237.656,371.612
1053.348,-445.3,621.468
1369.328,-706.624,802.028
1315.648,-740.296,991.616
1014.308,-650.504,1188.524
1271.484,-484.34,1067.988
1606.74,-410.408,776.164
1659.444,-454.328,483.608
1625.284,-620.248,181.536
1601.372,-798.612,-140.056
1763.388,-671.0,-535.58
1740.696,-396.012,-800.32
1475.468,-203.252,-803.98
1177.788,-151.28,-872.3
1025.776,-74.664,-895.968
975.268,-38.552,-885.476
982.1,-21.716,-859.856
930.128,-58.072,-851.316
896.456,-2.684,-791.048
823.5,60.024,-651.236
789.34,80.276,-537.044
876.448,87.84,-495.076
954.528,170.556,-501.42
917.196,225.944,-472.14
957.944,193.248,-430.416
1004.548,234.484,-357.216
1034.072,326.228,-304.268
1121.18,411.628,-279.38
1099.708,430.172,-218.38
1004.548,349.652,-85.4
1003.572,388.936,-15.86
919.636,489.952,55.876
842.776,514.84,80.764
719.068,530.212,114.192
450.18,546.56,224.968
-6.344,632.936,340.38
-304.268,710.772,346.968
-3.66,787.632,236.924
24.644,721.752,356.484
-261.08,699.06,419.436
-275.72,729.804,297.192
-232.288,769.088,247.172
-165.188,828.624,206.912
-131.516,896.456,154.94
-101.26,977.22,80.764
-80.764,1056.276,49.044
-36.356,1137.772,51.972
18.544,1173.152,32.452
-17.568,1134.844,61.244
40.992,1116.3,18.056
21.96,1098.244,14.884
-30.744,1044.564,44.896
23.424,1026.996,4.88
-16.348,1004.304,27.572
-25.62,974.536,38.064
-1.464,978.928,12.932
-16.348,978.44,19.764
3.66,982.588,8.784
-1.464,975.512,14.396
20.008,981.124,-1.708
25.864,991.372,-4.392
16.104,996.496,19.276
36.6,997.96,9.272
7.32,980.636,33.916
16.592,976.732,34.648
21.716,986.004,11.468
-11.956,990.884,23.668
15.616,1004.06,17.08
13.42,1012.112,16.348
-0.488,1001.62,33.672
-3.172,995.032,33.184
-16.836,983.32,34.892
-6.1,967.46,38.064
1.708,963.556,29.036
-1.708,967.46,28.548
20.74,970.876,20.252
40.992,983.564,10.248
24.156,980.392,31.476
12.444,982.1,41.236
-17.324,968.436,51.484
-27.572,952.576,50.264
-27.572,955.992,41.48
-19.276,963.312,37.088
-5.124,978.928,26.84
6.344,991.128,13.176
-6.344,993.324,21.472
-10.248,987.224,33.428
-22.936,973.316,46.116
-18.544,966.24,46.848
-2.44,977.22,27.816
-6.1,1006.988,11.224
-1.708,1071.16,-4.636
-24.4,1144.604,-15.372
-63.928,1224.636,-36.112
-112.24,1313.452,-63.928
-122.488,1403.488,-91.988
-172.996,1443.748,-71.492
-248.392,1456.436,-34.16
-299.876,1433.256,15.372
-345.992,1382.992,63.196
-384.544,1332.728,111.264
-397.476,1257.576,165.188
-383.324,1148.752,196.176
-376.004,1044.564,224.48
-364.536,955.992,256.688
-345.992,872.788,305.488
-325.252,787.632,332.084
-322.324,716.14,310.368
-318.908,665.876,277.916
-237.168,662.948,221.552
-88.816,723.46,115.412
-100.528,728.828,67.588
-290.116,695.4,60.024
-251.564,694.424,33.428
-273.524,629.764,43.432
-443.836,450.912,32.208
-351.604,354.288,184.22
-66.856,322.08,270.352
