acc_x[mg],acc_y[mg],acc_z[mg]
29.036,985.028,64.904
31.964,987.224,62.22
29.524,986.248,63.684
34.16,993.324,59.048
33.916,993.568,66.368
39.04,996.496,61.488
35.624,995.764,61.976
34.16,992.104,64.416
35.136,992.836,58.316
33.428,992.592,55.144
31.72,993.324,54.168
28.06,990.396,57.096
30.256,990.152,55.876
32.452,988.444,61.732
29.768,982.1,68.808
33.184,982.344,68.32
32.94,981.856,70.272
39.284,989.664,66.124
42.456,996.74,66.856
48.312,999.912,65.88
45.384,991.86,67.1
40.992,984.296,73.444
39.772,983.808,75.884
40.748,988.688,73.688
46.116,995.764,68.076
48.312,999.668,65.392
48.8,997.716,65.392
43.188,989.908,70.76
41.48,982.344,69.54
41.968,976.488,76.128
48.8,978.684,73.688
50.264,981.856,69.296
52.704,986.248,65.392
52.704,986.248,66.612
53.68,986.492,70.76
51.24,984.784,72.224
51.484,981.612,71.98
54.656,985.028,68.076
56.608,990.884,67.588
56.12,993.812,69.052
51.972,994.544,67.1
49.288,996.252,68.564
49.532,998.692,68.808
49.044,998.448,71.004
52.704,996.252,69.784
53.192,997.472,72.224
53.924,997.472,72.224
52.948,995.764,74.908
56.12,995.276,71.492
55.876,996.252,73.932
58.316,997.716,71.98
59.78,998.448,66.856
58.316,997.716,62.708
54.168,993.568,64.416
51.24,989.908,61.976
52.948,994.3,57.34
56.364,999.424,52.704
54.412,995.764,49.776
49.532,985.516,52.948
50.508,984.296,49.288
50.264,990.152,46.116
50.02,996.74,47.824
47.824,1003.328,43.188
45.628,1005.768,40.504
35.624,997.716,47.824
30.988,986.736,49.776
31.476,979.66,54.412
38.308,984.296,53.192
39.284,992.348,52.704
43.92,1000.644,54.168
41.48,1007.964,60.268
36.844,1019.676,62.952
26.84,1041.636,77.836
28.792,1071.648,88.084
14.396,1128.5,73.932
-19.032,1190.232,50.508
-44.896,1230.736,40.748
-60.512,1230.98,39.772
-87.352,1184.864,44.652
-112.728,1103.856,71.98
-105.652,1025.044,80.764
-106.384,963.312,96.38
-92.232,924.272,97.356
-85.888,877.668,103.456
-71.248,836.676,99.308
-65.148,791.292,104.676
-67.588,754.448,112.972
-78.324,739.32,118.828
-76.128,750.788,127.368
-57.828,754.936,120.536
-63.44,762.256,126.148
-77.348,761.768,128.588
-83.204,783.24,131.272
-75.396,775.676,108.092
-102.48,778.36,121.512
-120.536,737.368,142.74
-127.612,665.388,150.548
-151.524,562.664,138.836
-321.836,317.932,100.772
-661.484,231.556,251.808
-329.644,192.76,356.24
316.224,14.396,50.508
1040.66,-392.352,-458.476
1594.052,-539.972,-702.232
1913.204,-720.532,-575.596
940.132,-786.9,-1169.248
1716.784,294.996,-1036.512
2165.5,25.864,-713.212
1478.396,-315.004,-469.212
1396.168,-654.896,-710.284
1595.516,-949.648,-772.504
1775.588,-428.952,-469.944
1251.72,-170.312,-328.424
624.64,-160.308,-320.372
606.828,-195.444,-333.792
943.548,-190.808,-367.464
1108.492,-218.136,-393.572
1054.08,-260.592,-404.796
996.984,-266.692,-395.768
970.632,-277.428,-382.104
1098.244,-256.444,-409.676
1265.872,-253.028,-456.768
1302.96,-257.176,-505.812
1277.584,-259.616,-546.316
1283.684,-195.932,-598.776
1413.98,-132.492,-666.608
1533.54,-136.884,-735.416
1595.516,-169.58,-784.216
1565.504,-202.032,-784.46
1523.048,-221.552,-744.932
1483.764,-241.316,-728.34
1478.64,-238.144,-721.508
1397.388,-280.844,-663.192
1258.064,-324.764,-553.392
1067.012,-378.932,-411.628
911.096,-403.088,-291.336
802.272,-399.916,-264.984
654.652,-371.612,-258.64
525.82,-292.312,-306.708
418.216,-209.108,-400.648
395.768,-106.628,-548.024
370.392,-18.3,-674.66
328.18,65.392,-747.372
289.872,112.728,-787.876
272.548,152.012,-815.204
252.296,173.972,-779.58
237.168,206.424,-723.216
208.864,200.08,-639.768
219.6,216.672,-579.012
206.18,249.124,-536.312
196.664,283.04,-479.216
190.564,283.284,-410.164
208.62,291.58,-357.216
246.196,311.832,-290.36
278.892,302.804,-205.448
329.156,264.496,-118.828
435.784,250.588,-48.8
495.076,238.876,25.376
579.256,224.724,70.028
747.128,222.04,109.068
902.068,240.34,167.14
956.48,239.12,218.868
1006.988,196.664,238.388
1061.644,176.168,247.904
1153.388,207.4,192.028
1283.684,234.972,97.6
1382.26,299.876,30.012
1413.004,339.648,-25.132
1388.848,332.816,-37.82
1419.836,315.248,-70.516
1467.904,287.188,-102.724
1531.588,268.156,-176.168
1555.5,255.468,-246.44
1501.576,254.736,-217.16
1383.724,219.356,-176.168
1324.188,158.356,-233.508
1359.568,118.096,-284.504
1383.968,90.524,-318.176
1284.172,21.472,-406.748
1160.708,-32.94,-538.508
1010.648,-46.36,-666.608
826.428,-68.564,-740.052
726.144,-24.4,-935.252
645.868,91.256,-1091.656
534.116,174.704,-1100.44
453.352,231.8,-1045.296
413.58,259.128,-974.292
474.336,264.252,-910.852
574.376,270.84,-806.664
695.156,278.648,-701.012
806.42,293.532,-587.796
877.424,297.68,-526.796
892.064,310.124,-486.78
922.808,322.324,-438.956
960.384,320.86,-399.916
993.08,315.248,-365.756
1024.068,296.216,-349.164
1041.88,291.58,-337.208
903.044,269.376,-281.576
826.916,306.708,-266.692
810.08,346.724,-267.668
820.572,387.472,-280.112
800.564,459.696,-279.868
764.208,498.004,-217.892
635.62,597.312,-138.348
480.192,735.904,-105.896
285.236,796.416,-63.684
192.272,869.86,-45.628
140.544,902.556,20.252
-10.736,945.744,175.436
-77.836,996.252,284.26
-8.296,1018.7,257.664
-131.516,958.188,326.472
-203.74,935.74,374.784
-145.424,959.896,313.54
-195.444,1006.744,294.02
-210.572,1044.32,233.996
-187.148,1113.128,215.696
-169.58,1161.928,213.744
-174.216,1201.212,187.392
-147.864,1242.936,110.288
-145.668,1228.54,88.816
-94.428,1213.168,55.632
-53.68,1184.132,24.888
-54.656,1144.848,21.228
-48.068,1097.512,31.72
-25.376,1059.204,44.408
-1.464,1032.608,42.456
14.64,1007.72,46.116
28.06,984.54,41.48
25.62,960.628,52.46
12.2,935.252,66.368
25.376,928.908,64.66
31.964,929.64,66.368
33.672,933.788,67.1
36.356,940.62,56.608
27.084,942.572,59.78
10.004,941.352,61.244
3.904,943.792,57.34
-0.976,955.504,64.172
-4.392,964.776,78.812
13.176,974.292,71.98
6.832,983.32,76.616
14.64,991.128,75.64
15.616,994.056,82.716
18.3,992.836,83.448
6.344,985.76,89.792
-2.928,975.024,102.724
8.784,976.488,88.816
4.392,991.616,72.712
-0.732,1000.4,69.052
4.148,1007.476,61.732
-4.392,1007.72,55.144
-7.808,1014.064,42.944
-9.028,1017.724,36.356
-8.052,1018.456,36.112
-12.932,1013.088,37.332
-23.668,993.568,50.508
-14.396,980.88,35.868
-22.204,979.66,26.352
-15.372,983.564,24.888
-9.76,993.08,28.792
-9.272,988.932,34.16
-10.248,979.416,39.772
-8.296,974.78,36.844
-18.788,974.78,41.968
-7.564,987.956,35.136
-15.128,999.424,38.064
-27.084,998.936,44.408
-25.62,1000.888,41.724
-29.768,1004.548,40.992
-35.38,1002.84,46.848
-35.136,994.3,53.68
-18.056,991.372,49.532
-22.448,980.636,64.416
-14.884,985.028,61.976
-28.06,991.616,72.224
-20.252,987.468,67.344
-1.952,981.612,46.116
-9.76,978.684,46.36
-3.172,993.08,43.676
-11.468,985.516,39.04
-8.54,958.432,24.156
19.52,943.792,-32.208
-6.832,933.544,-51.728
-35.868,933.056,-67.344
-40.748,920.856,-59.78
-23.668,919.636,-62.464
-36.112,910.12,-42.212
-62.952,876.936,-11.712
-93.208,785.192,-0.488
-138.836,613.416,-44.652
-268.4,537.532,10.492
-421.388,579.744,187.148
-3.66,499.956,-29.524
520.696,316.224,-363.804
980.148,59.292,-591.212
1315.16,193.492,-752.74
1063.596,4.148,-509.716
758.84,-498.492,-252.296
1203.164,-3.66,-1024.8
1899.052,340.38,-915.976
1458.632,87.352,-236.192
1014.064,-194.712,-491.172
687.592,-522.892,-544.852
1116.056,-363.804,-507.52
1455.46,-87.84,-478.24
1231.468,-69.54,-468.724
970.876,-155.428,-508.496
934.52,-208.132,-465.796
1046.516,-174.46,-482.876
1152.168,-161.528,-546.316
1233.42,-171.044,-640.744
1268.068,-222.528,-702.964
1257.82,-277.428,-773.48
1284.172,-259.86,-807.884
1355.908,-267.668,-811.056
1351.272,-274.5,-890.844
1359.324,-299.632,-909.876
1368.596,-290.604,-899.14
1384.7,-278.404,-839.848
1443.26,-275.232,-814.716
1517.192,-260.592,-788.12
1519.632,-302.316,-723.216
1414.468,-368.928,-619.272
1236.104,-394.06,-466.528
1029.68,-382.104,-307.44
864.492,-370.88,-253.516
680.516,-366.732,-261.568
538.996,-314.516,-326.96
432.856,-262.056,-389.18
362.828,-148.108,-535.58
252.784,-63.684,-634.888
145.912,10.736,-705.404
77.104,33.916,-766.892
24.4,78.08,-773.236
20.008,125.416,-781.776
38.064,138.836,-773.236
29.524,141.032,-704.428
-3.416,146.644,-585.112
-64.904,127.124,-413.336
-56.12,115.168,-304.024
-1.952,88.328,-208.864
37.332,89.548,-114.192
111.264,121.512,-27.816
176.168,159.82,89.06
209.352,128.1,218.38
286.944,98.088,289.384
533.384,122.244,321.836
824.72,128.832,357.216
1058.228,86.62,374.296
1286.856,45.384,359.9
1590.636,115.9,278.892
1872.212,172.752,151.28
2038.132,219.6,91.744
2079.612,205.448,-31.232
2068.144,184.952,-178.852
2016.416,142.496,-308.904
1954.196,94.184,-383.812
1839.028,30.988,-446.032
1692.384,-55.388,-538.508
1530.856,-124.684,-671.488
1354.2,-168.848,-774.212
1114.348,-163.48,-991.616
870.836,-89.304,-1203.408
653.92,7.32,-1285.88
484.828,104.188,-1270.996
351.36,162.748,-1203.896
270.108,198.128,-1152.412
326.228,245.952,-1050.908
448.716,267.424,-916.464
562.664,267.912,-786.656
677.344,254.98,-656.604
780.556,241.072,-539.972
876.204,238.144,-451.156
925.492,251.564,-392.596
971.364,284.748,-341.356
1020.408,296.216,-305.732
1057.252,311.1,-302.804
1054.812,312.808,-309.392
1040.904,325.008,-318.42
1017.48,336.72,-339.404
987.224,359.168,-359.9
954.04,355.264,-368.928
955.748,366.0,-375.516
964.044,392.596,-366.488
1040.416,470.92,-386.984
960.628,490.44,-353.068
899.14,457.256,-276.696
947.208,498.98,-260.348
889.624,559.492,-260.348
652.7,502.884,-191.052
507.032,555.344,-122.0
640.256,643.916,-134.444
518.012,681.98,-94.184
227.896,700.036,31.232
180.56,706.136,21.472
5.124,666.608,91.012
-269.376,688.324,224.724
-328.18,753.96,250.1
-356.972,811.788,361.364
-269.864,815.692,358.436
-422.364,795.928,312.564
-462.624,811.788,270.596
-338.184,922.808,220.088
-300.852,999.668,190.32
-327.692,1026.02,171.288
-248.636,1091.412,120.78
-221.308,1186.328,122.0
-193.248,1272.704,118.096
-205.936,1257.332,128.1
-232.532,1199.748,112.728
-224.48,1153.388,81.252
-234.24,1114.104,76.86
-213.256,1077.992,59.78
-204.472,1040.66,50.996
-209.108,1005.524,78.568
-187.636,983.564,79.056
-151.768,991.86,60.024
-142.984,996.496,81.008
-111.508,1000.156,61.488
-118.828,974.048,83.692
-124.684,947.696,102.236
-124.684,932.812,106.14
-116.876,946.964,85.644
-111.996,972.34,67.1
-119.56,979.66,83.448
-118.34,973.316,85.888
-136.884,950.38,102.48
-132.736,948.428,102.236
-152.988,943.304,111.02
-107.848,970.632,68.808
-119.804,1002.108,60.268
-145.912,993.568,88.572
-157.136,979.904,99.552
-184.708,956.236,109.312
-176.9,935.008,106.628
-152.012,935.74,89.304
-136.884,956.724,63.196
-139.812,971.12,70.272
-147.864,964.532,94.672
-155.184,958.92,97.844
-162.016,955.504,93.208
-149.572,963.312,85.156
-146.156,970.876,83.936
-129.808,994.056,57.34
-162.992,982.832,89.792
-150.792,974.536,89.792
-166.896,965.02,93.208
-174.704,947.94,106.384
-145.424,960.872,75.884
-162.016,969.168,80.032
-148.84,973.804,80.276
-150.792,980.636,66.612
-164.7,974.048,82.716
-148.84,978.928,71.248
-155.916,976.0,67.1
-151.768,974.536,61.488
-156.892,966.728,64.66
-152.256,968.68,66.124
-151.524,969.168,71.736
-151.524,970.876,71.248
-145.18,968.924,71.004
-148.108,964.776,71.248
-149.816,959.652,76.128
-155.184,961.36,78.568
-157.868,968.436,77.104
-154.208,978.684,72.468
-152.256,986.98,68.564
-159.82,989.664,77.348
-166.164,993.568,81.252
-176.168,991.616,88.084
-179.096,990.152,87.352
-172.996,995.52,80.764
-170.8,996.496,79.3
-176.9,994.3,82.228
-178.852,999.912,83.448
-177.388,998.204,87.84
-168.848,992.592,88.328
-166.652,982.1,83.448
-172.264,969.656,78.568
-172.996,962.58,64.416
-184.708,952.576,71.98
-191.296,935.74,82.96
-203.984,906.216,98.088
-223.504,860.1,118.828
-237.656,789.828,140.788
-213.744,728.828,125.416
-155.916,702.72,72.956
-131.76,666.364,44.896
-110.776,640.744,22.448
-103.7,592.92,-16.104
-149.816,536.556,-25.132
-376.248,402.356,-69.784
-490.684,337.696,-298.168
-89.792,620.248,-116.388
295.728,562.664,-116.144
973.316,396.5,-511.668
1750.944,242.048,-886.208
1517.924,118.34,-600.728
862.296,-900.116,-215.94
849.852,-807.64,-651.48
2085.712,213.744,-894.016
1769.244,151.036,46.36
1329.312,-8.296,-416.996
935.252,-433.1,-455.548
1016.504,-626.836,-636.108
1266.116,-385.276,-457.744
1224.148,-225.944,-323.788
920.368,-183.0,-314.028
639.524,-203.74,-316.468
706.136,-214.476,-336.476
884.5,-210.328,-342.576
975.756,-240.34,-374.54
955.748,-272.06,-392.352
920.612,-270.108,-400.648
903.044,-262.544,-371.612
939.156,-276.452,-378.932
1020.164,-289.14,-430.172
1125.084,-294.752,-470.676
1227.564,-315.004,-490.196
1320.772,-350.14,-570.716
1392.752,-331.596,-700.768
1498.16,-286.7,-828.38
1595.76,-271.328,-955.504
1686.772,-275.476,-1052.372
1738.988,-292.312,-1070.184
1731.18,-336.232,-1018.944
1693.848,-412.36,-942.328
1616.256,-498.248,-842.776
1459.364,-566.08,-698.328
1261.724,-580.72,-562.664
1022.848,-580.964,-409.188
782.264,-556.32,-261.324
615.612,-504.348,-176.656
480.68,-446.276,-160.064
378.688,-365.512,-185.196
335.988,-296.216,-308.172
347.212,-172.752,-539.728
321.836,-59.536,-726.632
305.0,40.504,-880.108
266.936,73.932,-966.24
212.768,95.648,-974.292
222.284,99.552,-903.776
231.068,73.688,-873.52
232.288,84.668,-769.576
173.484,102.48,-627.812
88.328,135.908,-457.5
6.588,152.744,-286.212
-64.416,179.096,-121.268
-110.288,206.912,28.792
-88.084,206.424,107.116
-32.94,126.636,149.816
47.092,153.232,236.436
136.396,216.672,279.624
233.264,229.604,313.784
402.356,192.516,350.628
756.888,167.14,383.568
1139.48,162.26,379.176
1395.192,154.94,437.736
1701.656,91.744,468.724
2034.228,-19.032,497.76
2307.996,-119.072,504.836
2399.496,-179.828,491.172
2285.304,-154.696,428.22
2083.516,-82.228,294.752
1878.556,13.42,179.828
1674.328,64.66,56.364
1466.196,8.296,-76.616
1344.684,-93.208,-343.308
1263.432,-128.344,-607.072
1118.74,-102.724,-658.8
941.84,-103.212,-506.788
727.608,-237.9,-701.5
637.328,-118.096,-1182.18
534.848,120.292,-1260.26
413.336,247.904,-1103.612
455.06,343.552,-1128.744
518.5,371.612,-1176.812
533.384,358.436,-1059.448
565.104,351.36,-874.496
656.36,323.056,-717.36
767.38,278.404,-572.18
838.628,225.212,-461.16
886.696,199.592,-386.008
956.236,187.88,-327.692
1061.4,198.372,-301.584
1116.788,189.1,-268.888
1189.012,173.728,-269.132
1163.392,173.728,-262.056
1060.912,190.564,-261.812
900.116,207.4,-223.748
825.208,292.312,-206.668
875.228,404.308,-231.8
908.412,467.016,-254.004
864.248,505.324,-195.932
803.98,600.484,-141.764
765.184,666.364,-110.288
674.66,680.272,-52.948
569.74,677.1,-3.416
472.14,705.648,63.44
436.028,766.648,107.848
362.828,815.204,204.96
331.352,873.032,266.936
208.376,837.652,344.528
129.808,737.368,384.3
0.976,683.2,540.704
-107.604,633.424,629.276
-182.512,640.012,649.772
-245.464,725.412,596.58
-228.384,839.116,467.016
-230.824,1002.596,370.148
-161.04,1181.204,265.228
-137.616,1307.596,179.828
-175.924,1357.372,115.168
-178.12,1338.828,88.572
-144.692,1306.864,93.696
-110.288,1262.212,106.384
-130.54,1187.548,132.736
-133.712,1112.884,142.984
-121.756,1057.984,137.86
-92.72,1019.676,127.856
-75.396,987.956,128.344
-40.504,981.612,110.288
-20.984,970.876,104.676
-7.564,960.872,104.676
-9.516,955.26,104.676
-20.252,949.648,104.432
-14.64,958.432,106.872
-11.224,966.24,120.048
6.344,971.608,112.484
8.54,976.244,120.048
-4.392,959.896,140.3
29.768,971.12,104.92
20.496,980.88,99.064
0.244,963.068,149.572
20.008,962.336,143.472
3.416,958.92,150.304
-15.616,939.4,187.148
-3.172,935.252,184.952
17.568,955.016,155.184
13.42,965.996,166.896
7.564,975.756,177.632
10.736,989.176,159.332
-0.488,990.884,167.872
8.296,993.812,166.408
19.276,1007.476,142.496
16.104,1011.624,145.912
30.5,1021.628,133.224
16.836,1011.624,137.616
16.592,1007.476,129.564
2.684,994.056,124.928
12.444,993.324,106.872
10.492,994.056,101.016
-8.296,980.392,113.46
-19.276,963.068,109.312
-34.892,945.012,107.116
-41.236,938.18,107.848
-34.404,950.38,91.5
-41.724,959.408,98.088
-36.112,966.972,97.356
-35.38,973.072,97.844
-37.088,983.564,102.236
-35.136,976.0,110.288
-32.696,972.096,105.652
-38.796,968.924,109.8
-21.228,986.248,95.892
-32.452,987.468,108.092
-31.476,988.444,105.652
-39.528,988.2,100.284
-54.168,976.0,123.952
-34.892,984.296,106.628
-43.92,983.32,112.728
-55.388,971.608,129.564
-27.572,989.176,102.968
-46.116,996.252,117.12
-48.068,998.204,135.664
-34.16,1006.5,117.364
-46.116,1004.06,123.464
-45.628,997.228,139.324
-22.936,1006.256,110.532
-34.648,1002.352,118.096
-32.208,996.496,129.808
-30.5,990.884,118.096
-35.868,983.076,121.756
-36.356,972.828,133.468
-30.5,973.56,117.608
-32.696,970.144,113.948
-30.5,970.876,119.804
-28.792,971.12,110.776
-33.428,968.436,110.532
-35.624,968.436,116.388
-30.256,975.512,112.484
-35.624,980.392,119.316
-35.38,979.66,126.148
-41.236,969.9,136.884
-39.772,962.824,134.932
-40.992,965.02,138.104
-31.232,978.44,135.908
-24.156,993.08,132.492
-31.964,993.324,134.688
-33.916,993.324,132.492
-32.452,995.032,129.808
-32.452,995.276,127.368
-32.208,997.228,126.148
-31.964,993.568,120.048
-38.308,986.98,119.804
-43.188,979.66,124.44
-46.116,973.316,122.732
-55.144,970.388,124.684
-63.44,977.708,120.536
-71.492,991.616,116.388
-75.396,1011.624,121.512
-106.872,1038.952,131.028
-151.524,1087.508,152.256
-154.208,1122.644,164.944
-184.464,1132.16,172.508
-230.58,1117.276,165.92
-254.98,1087.752,168.116
-271.328,1057.984,175.192
-270.596,1032.852,184.22
-244.488,1006.988,194.468
-253.76,977.952,213.988
-287.92,938.668,232.044
-339.16,864.492,233.508
-500.2,669.536,270.352
-608.048,314.028,210.572
-847.168,221.064,512.888
-603.9,104.188,510.448
44.896,-22.204,-48.312
802.272,-192.272,-502.884
1246.108,-378.688,-643.672
1541.836,-134.688,-811.3
784.948,-428.708,-794.464
1029.68,146.4,-857.172
1880.264,734.684,-1008.452
1521.096,438.712,-378.688
1369.572,101.26,-558.272
1156.804,-267.912,-567.3
1096.536,-251.808,-653.432
1047.736,-40.504,-488.0
901.824,170.068,-403.576
716.384,236.68,-449.936
648.064,212.524,-492.88
719.068,138.104,-555.588
866.932,103.212,-568.52
942.084,100.284,-553.636
933.056,103.456,-553.392
950.868,102.968,-591.212
1036.756,76.372,-638.548
1189.988,58.316,-724.924
1356.64,139.08,-809.592
1502.796,201.3,-859.612
1578.924,131.516,-895.48
1620.892,-4.148,-933.056
1625.528,-71.492,-1048.468
1661.884,-97.112,-1115.812
1664.812,-72.956,-1008.452
1600.884,-40.26,-869.372
1497.916,-110.532,-736.392
1337.852,-187.392,-589.992
1135.088,-237.9,-454.816
910.364,-264.984,-345.504
598.532,-250.588,-279.136
270.84,-177.144,-243.756
-32.696,-105.164,-251.808
-208.864,-6.1,-342.576
-249.612,127.124,-520.208
-311.1,278.404,-701.5
-249.124,406.26,-814.96
-146.4,459.696,-870.348
-85.156,479.948,-876.692
-92.476,451.156,-804.712
-90.768,396.988,-669.78
-68.808,356.484,-502.152
-38.796,317.444,-307.928
7.808,270.352,-109.068
86.376,219.6,75.64
164.212,180.316,256.444
216.428,126.392,427.0
315.004,19.764,520.452
523.38,-1.22,614.392
745.176,7.076,745.908
827.16,-23.912,863.272
987.712,-23.18,854.488
1308.572,-27.816,792.024
1584.536,-66.612,723.46
1739.476,-170.8,588.528
1963.712,-231.556,335.012
2175.016,-123.708,14.64
2189.412,47.824,-125.416
2120.604,102.48,-295.24
1842.444,105.652,-535.824
1501.332,73.932,-871.812
1086.044,108.58,-1131.916
703.94,270.352,-1281.488
508.496,500.2,-1188.524
381.372,655.628,-1014.064
337.208,718.092,-962.336
338.672,699.548,-867.664
378.688,601.704,-782.996
470.432,496.296,-738.344
572.18,467.26,-694.18
674.172,483.12,-623.664
779.824,510.936,-495.564
886.452,557.052,-390.4
1002.108,619.516,-334.036
1084.824,630.74,-276.94
1175.348,627.324,-231.068
1234.152,655.872,-201.056
1223.416,661.972,-171.532
1120.448,641.964,-109.556
972.584,605.12,-37.088
743.224,610.0,69.296
589.504,618.784,95.648
536.8,605.852,79.056
425.78,582.916,109.556
241.804,519.476,166.652
132.004,518.988,204.472
94.184,531.432,210.084
61.0,572.912,230.58
-20.008,607.072,283.284
-155.672,588.772,376.98
-153.232,621.468,410.652
-172.752,623.664,405.04
-232.532,650.26,386.496
-233.996,780.312,366.976
-174.704,1017.968,322.324
-129.564,1223.416,299.144
-76.86,1359.568,250.344
-54.9,1365.18,208.62
-52.46,1332.484,156.892
-115.412,1257.332,143.716
-142.74,1188.28,123.952
-159.82,1132.16,127.124
-138.348,1119.716,99.796
-159.576,1099.952,122.244
-150.548,1074.332,138.348
-136.884,1037.488,146.888
-127.612,1017.48,157.868
-110.044,1012.112,150.792
-93.208,1000.644,146.888
-89.548,984.052,143.96
-85.156,977.464,143.228
-61.488,982.588,136.152
-57.34,983.076,141.52
-51.728,976.488,141.032
-43.188,976.488,137.86
-60.024,964.776,148.108
-65.392,953.796,150.792
-68.564,945.988,156.892
-85.156,934.276,177.632
-61.488,938.912,163.968
-61.244,946.232,180.56
-42.7,948.916,191.052
-27.328,952.332,188.612
-39.284,952.576,191.296
-38.308,955.26,185.928
-36.6,957.944,188.124
-35.136,964.532,182.756
-42.7,971.364,184.22
-40.016,984.784,180.56
-45.628,991.616,175.68
-58.072,987.468,178.12
-54.9,985.516,160.552
-71.98,971.12,169.58
-59.048,981.124,151.28
-71.736,988.932,149.816
-79.3,991.128,153.964
-77.836,992.836,140.544
-96.624,982.1,143.96
-90.036,977.952,130.784
-103.212,977.708,127.124
-98.332,977.952,124.44
-94.672,982.832,120.048
-91.988,983.808,125.172
-84.912,984.296,128.344
-88.328,977.22,136.884
-85.156,972.584,139.324
-87.108,965.508,143.228
-83.692,965.996,143.228
-84.18,964.776,148.84
-74.664,971.852,140.056
-82.96,985.516,147.132
-81.008,996.252,147.864
-79.056,1007.476,140.3
-72.224,1014.308,119.56
-68.564,1013.82,92.72
-83.692,991.86,98.088
-82.96,963.556,109.556
-87.596,945.256,116.144
-111.264,923.296,148.596
-96.624,925.004,152.744
-90.28,935.008,147.864
-83.204,953.796,149.328
-71.492,975.024,143.716
-67.1,1002.84,136.884
-67.1,1022.848,143.96
-56.12,1037.732,131.028
-60.268,1033.096,130.784
-59.536,1013.088,132.248
-59.78,988.932,123.22
-77.348,959.652,139.568
-81.74,940.62,147.376
-87.108,938.18,142.984
-92.964,945.5,142.74
-77.836,961.116,127.368
-77.104,970.144,117.852
-78.324,973.316,113.46
-79.3,972.584,114.68
-76.86,973.316,120.536
-73.444,974.292,120.048
-70.028,976.244,121.024
-62.464,980.636,121.024
-63.684,987.712,124.196
-65.148,989.908,130.296
-73.688,992.104,127.612
-84.668,989.908,126.392
-87.352,991.128,119.804
-89.548,995.032,108.092
-94.428,998.936,103.212
-96.624,997.96,103.7
-97.6,991.86,110.776
-100.284,980.392,120.78
-98.82,971.364,127.124
-90.524,962.824,133.224
-79.788,961.848,132.248
-73.932,964.044,130.54
-68.808,971.608,131.028
-71.98,980.636,129.564
-80.52,982.1,135.42
-83.204,981.368,135.176
-86.376,981.124,130.784
-89.792,985.272,127.124
-92.964,987.712,133.712
-97.356,984.296,134.444
-103.212,976.244,129.564
-102.48,968.68,122.976
-106.14,963.312,131.272
-109.312,956.236,137.128
-125.66,951.844,142.008
-134.932,953.064,146.644
-140.056,957.7,142.74
-144.936,969.168,127.124
-143.716,987.468,105.652
-157.624,1000.888,100.284
-166.164,1010.648,95.16
-180.56,1018.212,99.308
-192.516,1026.508,98.82
-205.448,1026.508,92.964
-204.96,1032.852,77.348
-201.3,1039.928,84.424
-192.516,1036.512,85.888
-198.86,1017.48,98.088
-193.492,998.448,93.452
-197.152,975.756,101.504
-188.124,959.896,96.868
-201.788,937.448,110.532
-218.624,913.536,120.292
-234.972,893.772,126.636
-236.924,877.424,128.344
-239.608,855.708,126.636
-247.904,816.18,129.076
-254.492,746.396,133.712
-287.188,654.896,157.868
-405.772,517.28,233.752
-475.312,450.912,252.784
-499.224,379.176,224.724
-492.88,260.836,71.736
-342.576,172.02,52.948
-213.744,203.984,95.892
361.608,122.976,-261.324
1549.4,-115.412,-779.336
2616.9,487.512,-1231.956
1772.172,325.496,-468.236
589.504,-567.544,-219.6
793.976,-115.412,-783.484
1818.044,330.62,-352.58
2053.26,294.508,-211.304
1719.712,31.232,-363.316
1087.264,-346.968,-477.264
828.38,-269.62,-498.004
779.824,-84.912,-323.788
835.212,53.68,-228.872
896.456,86.864,-272.06
885.232,51.484,-324.032
897.92,9.028,-334.28
999.424,-20.74,-309.636
1034.316,-28.792,-294.508
1008.452,-24.644,-321.104
1066.036,-39.528,-395.768
1317.356,-66.612,-468.48
1657.736,-47.58,-589.992
1828.292,-107.36,-663.924
1831.708,-204.228,-670.512
1872.7,-289.628,-702.232
2016.172,-336.72,-724.924
2159.4,-338.672,-818.132
2035.936,-350.872,-763.964
1788.764,-391.864,-667.34
1611.864,-434.076,-595.116
1365.912,-468.724,-477.264
1069.696,-446.032,-367.708
808.616,-450.424,-261.08
565.836,-450.668,-187.392
318.908,-465.796,-157.38
162.26,-430.66,-241.56
87.84,-317.2,-411.384
64.172,-117.852,-623.664
-2.928,48.8,-749.08
-4.636,166.896,-810.08
-32.696,246.684,-804.712
-85.644,271.328,-725.656
-146.888,258.152,-567.056
-217.648,229.116,-356.728
-168.116,200.08,-175.924
-52.46,149.328,-29.28
17.324,122.0,143.228
56.852,127.856,380.396
179.584,58.072,588.284
284.504,-28.548,767.136
567.788,-37.82,857.416
992.592,-55.876,941.84
1273.68,-90.036,970.632
1423.252,-145.424,923.296
1735.084,-227.408,811.788
2187.704,-213.744,542.9
2412.184,-137.86,348.188
2262.368,-152.744,288.896
1994.212,-168.116,122.244
1721.42,-187.392,-200.812
1449.116,-166.164,-472.872
1234.884,-121.024,-697.596
1060.18,-94.184,-1126.792
910.12,220.576,-1712.88
759.084,574.132,-1837.808
602.68,715.652,-1575.264
543.632,679.052,-1240.008
562.664,590.724,-1086.288
551.44,384.3,-780.068
612.196,228.14,-513.132
742.736,132.248,-444.568
935.74,131.028,-450.912
1152.9,231.312,-368.196
1200.236,355.02,-298.412
1184.376,417.484,-202.032
1295.396,500.2,-217.404
1151.924,487.024,-158.844
1031.632,523.136,-135.176
887.428,538.508,-35.38
753.472,536.312,14.396
582.916,563.884,74.664
462.38,538.996,84.18
475.068,561.932,173.24
89.548,605.608,521.672
-252.052,559.248,697.108
-333.548,467.748,720.776
-337.452,456.768,754.448
-314.516,538.264,571.448
-329.644,680.516,375.516
-421.876,805.932,286.212
-379.908,938.668,218.38
-334.524,1082.384,194.224
-333.304,1251.72,168.604
-291.092,1350.54,147.864
-244.244,1358.348,134.688
-217.892,1312.72,137.616
-194.712,1243.18,145.18
-197.64,1154.852,165.188
-189.1,1085.8,150.304
-176.656,1029.924,147.864
-151.28,1005.524,127.856
-133.712,969.168,130.052
-124.44,933.788,136.64
-112.972,920.368,136.152
-117.12,891.088,153.232
-100.772,882.792,142.008
-112.484,885.72,129.564
-138.348,886.696,134.2
-131.272,914.268,118.096
-160.552,935.74,119.316
-169.824,946.964,116.144
-173.972,970.388,102.968
-183.488,975.756,115.168
-164.944,986.492,102.724
-178.852,988.688,102.236
-167.628,974.048,105.408
-160.308,960.14,112.728
-176.656,943.792,133.712
-175.192,940.864,141.52
-177.144,940.864,144.936
-174.216,949.16,135.908
-167.628,955.748,126.148
-168.36,959.408,125.66
-167.14,952.82,138.104
-169.824,951.112,149.328
-175.436,945.256,157.624
-177.632,950.624,142.496
-182.512,955.992,129.564
-157.624,974.78,112.24
-154.94,985.272,117.12
-154.208,992.348,121.268
-149.328,987.956,122.0
-153.964,978.928,129.076
-160.064,964.532,117.12
-175.192,951.112,104.188
-178.364,944.768,94.428
-183.244,945.744,97.112
-186.172,963.312,97.112
-184.952,979.416,98.088
-173.24,1000.156,88.328
-181.536,1006.5,92.476
-180.316,1011.624,87.84
-185.684,1007.72,91.256
-180.316,1000.888,97.844
-174.46,988.688,105.164
-161.284,973.56,107.116
-163.236,958.432,116.144
-173.24,941.596,124.44
-178.608,935.252,120.048
-179.828,944.28,113.216
-176.412,957.7,115.656
-178.852,966.728,114.924
-196.664,967.948,121.268
-217.892,969.656,129.808
-235.948,982.1,138.348
-241.804,1000.156,136.884
-242.048,1020.896,131.516
-244.244,1026.02,137.128
-248.88,1014.796,150.06
-257.42,997.228,160.308
-278.404,971.852,163.724
-300.12,950.136,171.532
-301.584,944.524,161.284
-309.148,946.476,158.112
-315.736,949.648,143.472
-325.74,957.212,131.76
-333.548,962.824,125.66
-344.528,959.408,119.072
-363.804,955.504,107.604
-357.216,962.092,95.892
-342.088,976.976,76.128
-345.26,977.708,58.072
-326.472,962.336,59.292
-329.888,927.688,86.864
-330.864,888.16,116.144
-325.496,842.532,147.376
-319.152,783.728,174.948
-308.904,764.94,187.88
-331.596,752.008,207.644
-314.272,738.344,209.108
-304.512,700.28,200.08
-319.884,612.684,242.536
-530.456,520.452,470.92
-704.916,307.928,484.584
-769.82,180.316,460.916
-489.708,-10.736,149.084
126.148,-188.612,-147.864
796.416,-290.848,-451.4
1234.64,-215.208,-516.548
937.204,-713.944,0.488
455.304,-1140.212,-762.5
2311.412,450.912,-1051.884
2658.38,511.424,-730.048
1729.96,-9.028,-446.276
986.98,-396.744,-355.264
879.132,-694.424,-558.028
1526.952,-529.968,-339.404
1799.5,-194.224,-284.992
1256.112,-77.592,-307.196
875.96,-67.1,-306.22
910.608,-54.412,-266.936
1112.64,-48.8,-332.572
1340.048,-40.26,-465.552
1542.324,-10.492,-548.512
1695.8,-9.76,-565.836
1748.016,-38.308,-533.14
1843.664,-127.856,-508.252
1999.336,-264.252,-455.304
2045.94,-345.748,-431.636
1958.344,-353.556,-405.284
1789.74,-334.524,-325.984
1617.232,-296.704,-260.592
1400.56,-282.308,-241.072
1159.976,-299.144,-212.28
935.74,-327.204,-191.784
684.176,-347.944,-240.34
484.584,-306.952,-322.568
311.1,-227.652,-423.584
208.376,-74.908,-586.332
139.08,94.184,-732.488
136.64,201.056,-815.448
163.48,269.132,-859.856
108.336,285.48,-845.704
9.028,278.16,-764.696
-65.636,250.588,-595.116
-101.992,202.764,-423.584
-137.86,112.24,-233.264
-104.432,102.968,-22.692
-6.344,123.952,182.756
21.716,114.192,456.036
0.488,29.28,736.392
210.328,-22.448,894.992
610.732,-88.816,978.44
870.592,-62.22,1124.596
1038.952,-62.22,1185.108
1230.492,-125.416,1187.06
1465.952,-198.128,1111.176
1727.52,-212.768,1018.944
1823.412,-235.704,925.736
1781.932,-222.772,793.732
1658.224,-214.72,597.556
1594.54,-194.712,263.276
1567.944,-95.16,-114.436
1396.412,-40.26,-279.624
1130.94,-81.252,-517.524
1072.38,15.372,-955.016
1043.1,186.904,-1185.596
947.696,354.044,-1185.352
883.036,436.272,-1172.664
834.48,444.08,-1133.38
808.86,409.92,-948.428
861.076,345.504,-714.676
870.592,268.644,-539.484
879.132,228.14,-394.792
923.54,236.924,-324.764
966.24,276.452,-269.864
1016.26,301.584,-213.744
1127.768,378.688,-185.928
1213.168,434.32,-180.316
1290.516,488.976,-215.208
1218.536,507.52,-154.696
1061.4,588.772,-26.108
869.128,663.68,5.612
701.988,650.504,43.92
586.82,622.932,78.324
435.052,617.564,120.536
207.888,623.664,193.98
79.788,649.772,200.324
9.028,660.508,218.868
-146.888,687.836,374.052
-176.656,655.628,438.712
-39.04,621.712,365.756
-74.176,532.896,398.94
-186.66,459.94,473.116
-103.212,418.948,479.46
-158.356,439.688,517.28
-244.732,564.128,493.368
-273.036,705.892,397.72
-238.144,954.772,327.204
-142.74,1263.188,225.944
-105.896,1482.056,147.376
-133.956,1529.148,113.216
-104.188,1493.768,103.7
-107.604,1468.148,104.432
-150.548,1352.736,104.188
-186.904,1210.24,121.512
-152.012,1128.744,112.24
-117.852,1096.292,69.54
-118.584,1070.916,73.688
-84.668,1044.564,73.932
-65.148,1012.6,85.156
-57.096,973.56,99.064
-33.916,963.8,112.484
-5.124,977.22,111.508
-5.368,982.832,116.388
4.392,986.736,102.236
0.732,982.588,108.824
1.708,980.148,117.608
-6.832,965.508,130.54
10.004,982.344,102.48
-23.424,974.292,126.636
4.88,990.396,111.752
8.052,1005.768,91.988
-33.184,968.68,146.4
2.928,971.12,128.588
-6.588,981.612,109.8
-33.672,968.924,149.572
14.152,1016.26,94.184
-8.784,1015.528,121.268
-16.348,983.076,160.552
-0.244,972.096,142.008
-34.648,936.96,176.656
-1.708,927.444,169.336
28.792,968.924,119.804
6.588,975.268,146.156
12.444,987.224,155.672
18.544,995.764,137.372
9.76,990.64,141.764
-3.172,979.66,155.672
4.88,982.344,115.9
-8.784,986.98,95.648
-25.376,986.98,113.704
-42.7,980.148,116.144
-59.048,973.316,105.896
-69.296,965.508,111.508
-59.292,976.0,96.136
-60.756,986.248,80.52
-65.148,985.272,75.884
-72.468,981.856,85.888
-81.496,984.296,89.304
-81.984,995.764,89.792
-83.692,1003.572,95.404
-87.352,1001.864,98.82
-101.748,999.668,102.724
-117.364,1003.328,118.096
-126.88,1018.7,121.756
-136.396,1033.34,114.192
-141.764,1038.952,111.264
-142.252,1031.876,102.968
-139.08,1014.552,92.476
-137.86,993.324,87.352
-130.54,978.44,92.72
-119.072,979.416,90.768
-105.408,974.292,79.788
-101.748,965.752,84.668
-96.868,956.968,87.84
-101.504,943.304,86.132
-107.848,929.396,93.696
-112.24,932.08,91.744
-118.096,937.692,87.84
-132.004,939.888,91.744
-138.592,949.892,95.404
-140.788,971.364,90.036
-151.768,985.76,90.524
-175.924,981.856,109.8
-197.884,968.924,122.976
-222.528,948.428,132.98
-238.632,937.936,128.1
-248.148,943.548,116.144
-259.372,930.86,113.46
-246.684,929.64,82.96
-235.948,943.304,62.464
-220.82,963.312,60.756
-208.376,980.88,34.16
-216.916,990.152,32.452
-202.764,1013.576,44.652
-193.248,1028.948,41.236
-197.152,1032.608,51.728
-203.984,998.692,72.712
-238.144,945.012,106.14
-307.928,829.112,136.396
-342.088,651.48,163.724
-546.804,529.236,315.004
-922.564,350.872,490.44
-627.568,327.204,245.952
-138.592,226.92,-94.916
569.008,104.432,-359.412
1073.356,-61.0,-528.504
1262.944,-152.012,-427.0
1325.896,-744.444,-170.068
825.208,-962.824,-906.704
1490.596,560.712,-764.696
2018.612,614.88,-498.98
1440.332,173.972,-172.02
1075.552,-242.536,-113.948
868.64,-611.952,-400.404
1178.032,-691.496,-516.548
1557.452,-342.576,-289.384
1390.556,-119.316,-157.624
941.596,-109.312,-198.128
663.924,-148.84,-231.8
749.568,-139.568,-203.984
924.028,-124.684,-219.356
954.528,-145.912,-257.42
911.096,-146.644,-267.912
929.64,-127.124,-258.152
994.788,-126.636,-224.48
1096.78,-141.764,-234.24
1297.836,-162.26,-283.284
1510.36,-176.9,-310.368
1700.924,-213.012,-349.164
1809.504,-259.616,-419.436
1817.312,-282.796,-446.032
1828.292,-259.616,-460.428
1923.452,-240.34,-508.496
1960.54,-264.984,-566.568
1819.264,-269.864,-545.584
1549.888,-269.62,-460.428
1347.612,-235.46,-450.668
1260.504,-195.932,-466.04
1172.664,-196.908,-446.032
945.744,-189.1,-392.596
835.456,-163.968,-428.708
789.584,-203.984,-488.244
664.9,-213.744,-513.62
569.74,-178.608,-527.284
482.388,-143.716,-571.204
330.132,-105.652,-640.5
185.44,-61.732,-685.396
83.448,-16.836,-684.908
-6.1,-2.684,-667.828
-105.164,27.084,-651.48
-182.756,71.492,-582.672
-251.32,100.528,-468.968
-300.852,113.46,-373.808
-367.22,95.892,-254.98
-380.396,118.828,-91.012
-245.22,128.344,90.524
-4.88,21.228,208.864
186.416,-56.852,359.9
542.168,-65.148,479.704
1017.724,-109.068,530.456
1328.092,-186.66,509.716
1641.632,-212.28,382.348
2062.532,-253.028,205.448
2424.628,-195.932,25.864
2602.26,-112.972,-158.844
2450.004,-50.02,-288.164
2115.724,-21.472,-358.436
1887.584,-32.208,-459.696
1811.456,-106.872,-587.552
1662.86,-176.9,-732.732
1470.1,-275.964,-812.764
1339.072,-289.872,-935.984
953.308,-337.452,-1237.568
507.032,-174.216,-1495.72
189.1,142.496,-1529.636
172.508,382.592,-1357.372
308.904,501.42,-1122.156
409.92,403.332,-893.284
463.356,256.444,-681.492
561.2,168.36,-508.496
680.76,167.384,-376.004
841.312,224.968,-303.048
961.848,281.82,-287.188
1012.356,320.372,-246.44
1032.12,336.476,-193.004
1074.576,319.396,-160.308
1129.232,282.308,-146.888
1152.412,262.788,-162.016
1110.688,254.98,-156.648
1070.184,262.056,-151.28
1026.508,269.132,-150.792
1005.768,268.888,-156.404
1024.312,279.868,-186.172
1019.188,306.952,-224.968
1014.064,328.668,-229.36
1006.256,351.848,-256.932
974.292,357.46,-268.644
993.812,402.844,-271.328
1092.144,500.688,-285.724
1081.652,522.404,-266.692
1013.576,506.3,-225.7
974.78,501.176,-189.588
1070.916,570.472,-216.184
963.312,586.82,-180.56
700.768,513.62,-96.868
465.064,536.068,-9.76
295.728,574.132,33.672
168.36,617.076,89.304
112.728,702.964,137.86
8.052,736.148,207.888
-146.644,714.92,279.136
-133.712,717.848,268.888
-156.16,676.368,239.852
-260.592,703.696,215.208
-243.512,768.844,136.884
-274.5,840.092,127.124
-318.42,966.484,117.852
-298.412,1126.06,112.728
-211.304,1235.616,90.768
-128.588,1289.54,116.876
-85.4,1286.124,101.504
-50.508,1260.504,66.368
-36.112,1221.708,96.136
11.712,1190.72,106.872
42.212,1177.544,98.332
2.44,1128.744,135.908
44.652,1099.952,109.068
58.072,1094.584,86.376
6.344,1052.86,109.556
17.08,1020.652,86.376
56.12,1027.24,40.26
11.956,1006.988,71.248
-3.66,988.444,79.056
40.26,991.128,51.484
9.76,980.88,89.06
20.008,959.408,95.404
110.044,997.472,27.328
42.456,1001.864,78.324
27.328,993.08,97.112
42.212,978.44,95.16
57.584,974.78,87.108
13.664,954.284,127.612
24.644,950.868,105.164
54.656,962.336,71.004
21.716,961.36,101.504
25.62,965.996,112.24
16.592,963.068,112.728
-0.976,947.94,127.368
-2.196,944.768,126.636
-12.2,945.5,116.632
10.004,951.6,95.648
13.176,957.944,95.892
8.784,955.748,104.92
2.928,946.964,121.268
8.052,942.084,137.128
34.648,940.62,130.052
21.228,946.964,123.464
25.132,960.384,107.116
58.804,990.152,79.544
46.36,1011.38,88.328
48.556,1021.628,93.452
63.44,1037.0,75.396
21.228,1023.58,102.236
19.276,1007.476,98.332
39.04,1015.284,76.616
33.672,1026.264,88.084
47.336,1042.612,81.496
46.848,1042.856,73.688
28.06,1018.456,99.552
27.816,1000.4,104.92
39.772,999.668,94.428
31.232,999.18,110.532
53.192,1005.524,94.672
42.212,997.96,107.604
29.28,982.344,123.952
25.62,967.948,121.512
23.912,955.748,110.776
34.892,956.724,94.428
39.04,971.12,79.3
29.036,987.224,91.012
14.64,992.836,100.772
15.128,1000.888,94.428
19.276,1022.848,87.108
15.86,1053.592,82.472
-8.052,1072.868,87.352
-23.668,1080.432,94.428
-46.116,1074.332,107.36
-59.048,1067.5,106.384
-76.372,1051.884,103.7
-82.716,1029.924,94.672
-91.744,1004.304,86.864
-92.232,975.756,77.104
-101.992,944.768,81.74
-103.944,903.776,90.28
-102.724,873.276,89.792
-107.36,854.488,81.252
-106.628,853.268,70.028
-120.536,883.036,59.536
-132.736,920.368,67.344
-159.576,943.792,77.348
-200.568,950.868,73.2
-223.016,964.288,62.22
-205.936,1009.184,47.58
-193.98,1040.66,20.496
-185.196,1083.848,4.88
-184.22,1103.368,10.736
-178.608,1089.216,3.66
-212.28,1030.168,25.132
-220.576,955.992,40.26
-210.572,893.772,27.816
-238.876,820.328,29.524
-262.3,731.024,47.58
-326.716,597.068,78.08
-477.264,388.692,109.068
-593.652,344.772,232.044
-534.116,342.088,183.244
111.508,377.468,-23.668
493.124,216.428,-237.168
843.264,-133.468,-488.244
1302.716,-307.684,-568.52
1817.556,-342.576,-338.184
1178.276,-618.54,-649.284
1350.296,103.944,-530.944
1862.208,253.516,-716.14
1334.924,222.284,182.268
1253.672,-81.74,-234.728
1151.436,-430.172,-235.46
1267.336,-567.3,-454.084
1380.796,-336.476,-353.312
1234.884,-111.508,-187.148
1016.26,-5.856,-140.056
808.86,-18.544,-198.128
747.372,-84.18,-230.092
865.468,-127.124,-271.084
978.684,-126.88,-279.868
1032.852,-138.348,-288.408
1032.608,-161.04,-298.168
1032.852,-191.296,-305.976
1029.192,-205.936,-294.264
1013.82,-209.108,-274.5
999.18,-207.156,-265.716
986.492,-208.864,-274.988
977.22,-199.104,-294.508
979.904,-190.564,-309.148
989.176,-183.976,-328.912
989.908,-172.752,-345.504
1000.888,-163.968,-347.944
1033.828,-149.572,-347.456
1060.912,-153.476,-338.916
1074.088,-159.82,-334.524
1102.148,-155.428,-341.6
1156.56,-135.908,-348.432
1202.188,-105.896,-346.724
1237.08,-81.74,-365.268
1277.584,-76.128,-401.38
1345.904,-76.372,-465.552
1479.128,-56.608,-531.676
1587.708,-58.072,-546.072
1630.164,-84.424,-538.752
1668.228,-82.472,-538.264
1665.3,-130.784,-519.964
1651.636,-166.652,-521.428
1541.348,-173.24,-510.936
1392.752,-155.428,-461.404
1203.164,-141.032,-395.524
946.476,-168.604,-326.96
633.424,-188.612,-264.252
386.008,-155.916,-207.644
226.188,-111.996,-217.648
167.384,-61.488,-297.924
179.584,39.772,-463.844
226.92,168.36,-663.436
284.504,256.932,-780.8
332.084,340.624,-834.236
334.036,370.88,-822.524
329.4,352.58,-753.472
327.204,328.668,-691.252
328.18,351.848,-607.56
342.82,388.204,-475.8
351.848,417.972,-334.036
256.444,378.688,-207.4
166.896,341.356,-13.176
124.684,317.444,206.912
149.816,218.136,318.664
158.356,54.412,437.004
221.552,-14.884,620.492
360.388,-73.688,800.564
557.784,-133.712,1005.28
972.096,-216.672,1096.292
1381.772,-269.864,1096.536
1654.076,-355.996,1136.308
1901.736,-488.976,1042.856
2147.2,-540.704,779.58
2288.232,-402.112,486.048
2122.556,-251.808,322.08
1684.82,-230.58,83.692
1336.632,-91.012,-460.916
1184.132,168.848,-900.36
1044.32,375.272,-1145.824
984.54,533.14,-1190.476
894.748,610.488,-1063.108
805.2,551.928,-906.704
788.364,425.048,-769.088
818.864,272.792,-611.708
917.44,213.5,-630.74
1007.72,252.296,-621.224
998.204,325.74,-475.068
968.924,351.604,-342.088
999.18,334.768,-244.488
1079.456,308.66,-187.636
1244.4,291.336,-174.46
1402.512,304.024,-215.696
1367.62,300.608,-189.344
1158.756,312.808,-83.448
1110.688,406.016,-92.232
1303.448,569.008,-208.62
1124.352,548.024,-97.356
1035.048,566.568,26.84
1115.568,638.06,-83.448
938.912,577.792,-163.968
497.76,582.428,-20.984
-164.944,600.484,228.14
-420.168,622.688,326.228
-153.964,532.896,279.624
-61.488,313.784,383.324
-301.828,293.044,615.124
-450.18,349.652,570.228
-357.704,457.5,369.416
-389.668,631.472,334.524
-297.68,825.208,248.148
-294.02,954.772,222.528
-258.884,1063.84,156.648
-242.048,1167.052,127.856
-245.708,1215.364,167.14
-196.664,1222.928,129.564
-249.612,1180.96,179.34
-210.328,1171.688,145.18
-240.34,1140.456,140.788
-253.272,1075.796,164.212
-223.504,1016.992,133.468
-275.232,946.72,183.488
-235.704,908.168,171.532
-232.776,879.132,182.268
-235.948,874.496,203.984
-169.824,917.44,150.06
-210.328,959.408,165.92
-210.572,985.028,164.456
-196.42,988.688,148.84
-206.18,973.56,166.896
-199.104,960.384,186.66
-169.092,968.192,158.356
-184.464,946.964,191.54
-127.612,961.848,166.652
-148.84,961.848,170.068
-170.556,935.74,204.228
-139.324,946.476,180.56
-153.232,956.48,166.164
-186.904,938.18,200.08
-157.868,952.576,159.82
-196.42,948.672,181.536
-189.832,951.844,203.74
-160.552,977.464,179.096
-167.872,981.612,193.492
-126.148,994.544,184.22
-117.852,996.008,196.664
-117.364,975.024,208.132
-114.68,960.872,208.376
-129.564,948.916,216.184
-141.276,951.356,199.104
-156.16,961.604,200.568
-149.816,979.904,203.008
-147.132,996.984,198.372
-145.912,997.96,196.908
-143.716,977.708,193.004
-154.208,941.352,179.828
-177.144,904.996,188.612
-188.368,896.944,204.228
-193.004,896.212,194.956
-195.932,904.02,192.516
-185.928,917.196,197.884
-181.536,939.888,194.468
-171.532,962.336,186.416
-156.892,974.292,179.096
-151.036,979.904,179.828
-163.724,965.264,190.32
-176.412,952.088,188.856
-187.88,943.792,188.124
-196.908,946.232,183.488
-197.396,956.724,169.58
-188.124,965.02,165.432
-181.78,970.876,169.336
-184.708,972.096,169.092
-187.88,967.46,172.508
-195.688,964.288,176.168
-192.516,961.848,174.948
-189.344,961.116,176.412
-186.416,966.484,173.728
-189.344,969.168,167.628
-198.372,965.02,163.724
-196.42,964.288,157.38
-194.956,959.408,155.916
-187.148,958.92,151.28
-185.684,958.432,152.256
-188.856,950.136,159.82
-201.3,938.668,167.628
-207.4,935.252,168.848
-208.62,929.884,174.704
-207.4,926.468,173.972
-200.324,926.224,167.384
-203.984,926.956,176.656
-202.032,934.276,178.852
-201.3,941.108,177.876
-203.008,943.548,179.34
-202.276,951.112,173.24
-196.664,960.628,164.456
-196.42,970.632,163.968
-198.372,976.0,169.58
-209.108,966.24,180.072
-213.256,953.796,188.368
-208.864,943.792,191.784
-208.62,937.204,187.88
-206.668,935.984,187.636
-210.572,946.476,191.54
-216.672,960.14,191.54
-220.088,970.876,187.392
-225.456,972.096,183.0
-238.632,965.752,190.076
-264.252,954.284,201.544
-301.34,946.476,219.112
-336.964,948.672,241.072
-410.164,997.716,265.96
-437.248,1059.936,282.308
-424.072,1092.388,277.428
-464.576,1067.744,263.52
-483.608,984.784,248.148
-485.804,887.916,229.604
-509.228,779.336,236.68
-483.608,678.32,236.192
-482.388,569.496,243.756
-468.236,460.428,223.504
-548.512,232.044,187.392
-638.548,-66.124,167.628
-880.84,-137.616,408.456
-437.98,-93.452,382.592
348.92,-155.428,-80.032
1230.492,-420.9,-489.708
1431.304,-884.5,-513.376
1538.176,-1454.972,-260.348
1623.332,-1119.716,-1596.736
2339.716,646.844,-1135.82
2526.132,408.7,-816.424
1530.856,143.96,-387.228
1129.964,-194.224,-381.86
900.36,-399.428,-618.54
1138.26,-373.076,-529.724
1323.944,11.468,-366.0
1090.436,169.336,-286.456
735.66,143.96,-284.504
658.556,50.752,-339.16
858.148,-56.608,-367.464
1062.376,-96.624,-405.04
1091.656,-116.632,-418.948
995.276,-117.364,-404.308
916.708,-84.18,-385.276
937.204,-53.192,-365.756
984.784,-22.448,-348.676
1093.364,62.708,-398.94
1248.548,176.656,-497.516
1407.88,305.244,-654.896
1678.72,386.008,-850.096
2031.788,366.0,-1071.892
2268.224,264.008,-1236.348
2322.148,83.692,-1156.56
2323.856,-85.4,-1103.612
2197.952,-219.6,-984.296
1872.456,-410.408,-883.524
1471.32,-451.644,-680.76
1055.3,-533.628,-468.236
645.136,-585.356,-274.256
305.732,-531.432,-106.14
39.284,-464.332,33.184
-132.736,-410.652,42.944
-239.364,-341.6,-75.64
-208.132,-200.568,-343.308
-91.5,-13.176,-760.06
-13.176,195.688,-1051.884
12.932,351.848,-1018.212
37.82,397.476,-925.98
-46.36,404.552,-783.728
-116.144,352.336,-639.28
-45.872,294.264,-522.16
81.984,247.66,-379.42
207.156,208.864,-192.272
229.116,142.008,21.96
106.872,105.896,313.784
147.376,81.008,518.744
255.712,-27.816,689.788
393.084,-95.648,771.284
710.772,-37.088,761.036
1084.336,57.828,846.924
1359.568,163.236,944.28
1706.292,161.04,900.604
2037.4,44.896,787.144
2285.548,-69.54,605.608
2358.016,-131.028,450.668
2115.724,-166.896,358.924
1921.256,-168.604,168.848
1591.124,-165.432,-108.58
1191.696,-149.084,-390.4
930.86,-96.136,-687.836
714.92,-17.08,-966.972
699.304,152.012,-1322.236
805.932,394.304,-1409.344
729.56,504.836,-1145.336
606.828,432.124,-959.164
611.22,304.512,-915.976
749.324,240.096,-827.648
910.364,281.332,-749.812
944.28,311.832,-624.884
948.184,317.444,-527.528
946.72,289.384,-435.784
1017.968,275.964,-371.368
1108.248,290.848,-343.308
1240.252,312.564,-353.556
1222.196,284.504,-304.268
1228.54,253.028,-257.176
1282.952,316.224,-239.852
1139.48,324.52,-151.524
1051.884,366.976,-60.756
1041.392,449.204,-4.392
1092.388,418.948,15.372
1108.98,401.38,28.792
822.28,503.616,40.992
125.904,582.672,192.516
-761.768,734.684,394.548
-759.328,954.284,373.32
-0.488,871.324,150.06
-359.168,672.952,406.992
-696.62,553.148,406.26
-706.624,528.016,347.7
-629.52,625.86,366.0
-528.992,752.008,313.784
-525.332,827.648,287.676
-488.244,915.0,229.848
-420.656,992.348,234.484
-211.548,1147.776,153.476
-160.308,1224.88,193.248
-146.888,1187.304,244.488
-46.848,1148.02,203.984
-56.852,1074.82,224.968
-99.552,1009.184,276.452
-36.356,1001.864,245.22
-45.628,984.784,250.1
-52.704,968.436,276.696
-27.084,968.68,256.932
-50.752,960.14,243.756
-78.08,948.672,256.932
-38.308,992.836,226.92
-55.632,1049.932,231.068
-83.936,1055.544,243.024
-94.916,1033.584,211.304
-127.368,989.664,226.432
-127.612,938.668,251.808
-85.888,920.856,239.608
-131.516,870.104,280.844
-158.112,819.352,307.44
-83.692,837.164,285.236
-47.092,878.644,285.236
-84.18,923.296,315.98
-79.788,969.9,282.308
-84.18,991.86,280.112
-99.064,994.3,273.036
-96.624,992.836,250.1
-103.212,976.732,248.392
-116.388,945.988,255.712
-132.492,921.344,261.812
-151.036,902.068,272.548
-149.084,905.728,275.476
-145.424,908.412,271.328
-150.792,910.608,265.96
-156.16,911.096,264.252
-146.4,917.928,254.98
-155.184,925.004,257.176
-157.38,927.444,267.18
-142.984,936.472,253.516
-150.304,935.74,257.42
-142.984,930.86,253.76
-148.596,930.128,256.2
-156.648,934.032,258.64
-149.328,945.988,254.736
-150.06,952.332,248.148
-152.744,951.844,253.516
-145.668,955.504,250.344
-153.476,953.552,254.248
-154.452,946.476,262.056
-155.428,939.156,259.372
-159.82,934.276,263.276
-144.448,939.4,256.2
-149.572,943.548,259.372
-150.792,941.84,259.616
-153.72,943.548,270.352
-144.448,950.38,270.84
-143.228,953.064,269.864
-152.744,944.768,279.624
-132.248,951.112,259.616
-151.524,944.524,275.232
-143.716,943.06,273.768
-132.492,946.964,261.08
-144.936,944.036,280.356
-144.936,945.744,275.232
-144.692,941.84,261.08
-147.132,942.084,271.328
-144.204,944.524,269.132
-148.596,943.06,264.496
-149.328,938.912,265.96
-156.16,930.86,267.18
-155.916,924.516,265.472
-159.088,926.956,262.788
-157.868,935.008,256.688
-157.624,945.256,251.076
-155.428,951.844,249.124
-152.256,953.552,246.196
-166.164,945.5,254.248
-171.288,937.448,255.468
-180.804,933.056,253.76
-179.096,934.276,248.88
-178.12,941.108,243.268
-172.02,950.624,238.388
-171.288,953.064,241.56
-181.78,946.232,244.732
-190.076,941.352,244.732
-190.808,937.692,244.0
-193.492,936.96,242.536
-195.932,935.984,241.316
-192.76,936.716,239.608
-191.052,939.888,238.876
-209.108,936.96,251.32
-224.968,931.836,248.88
-238.632,932.812,244.244
-246.196,942.084,236.192
-253.516,948.672,223.992
-274.256,934.52,226.188
-279.38,919.88,225.944
-292.556,900.848,230.092
-326.716,887.428,222.528
-357.704,885.232,214.232
-329.888,926.956,221.064
-212.036,951.6,183.732
-129.076,941.596,162.748
-202.032,924.516,192.272
-283.528,904.508,183.976
-283.772,874.984,162.992
-309.148,834.48,198.616
-329.888,750.3,212.768
-410.408,606.584,266.204
-561.2,403.088,353.068
-898.164,83.204,363.316
-966.972,32.208,514.352
-488.0,-149.328,259.128
144.936,-247.172,-216.672
944.768,-407.48,-564.86
1347.124,-551.684,-645.38
1467.66,-767.38,-549.732
815.448,-779.092,-1196.576
2049.356,349.408,-1222.196
2813.32,441.884,-1464.0
1814.14,-24.644,-600.972
1328.336,-343.308,-718.092
935.252,-517.036,-920.612
946.232,-456.28,-776.164
1203.164,-174.46,-458.72
1092.632,18.3,-388.448
720.776,50.996,-414.312
538.508,52.216,-416.264
688.324,45.14,-415.288
839.604,-5.612,-451.644
923.052,-45.14,-500.444
981.124,-42.944,-508.008
999.424,-14.152,-481.412
1057.252,13.664,-493.368
1226.832,48.8,-603.412
1463.512,114.192,-734.44
1695.556,149.328,-841.312
1771.44,49.044,-873.52
1802.672,-51.972,-904.508
1945.168,-85.888,-951.844
2073.268,-123.464,-980.88
2017.636,-166.164,-931.348
1791.204,-233.508,-782.752
1473.516,-293.532,-604.144
1123.132,-355.02,-454.328
793.732,-383.812,-294.02
545.828,-406.26,-155.184
343.064,-403.332,-86.132
199.104,-352.824,-183.0
156.648,-216.672,-363.072
168.848,-66.856,-586.332
245.464,92.232,-833.016
310.124,192.272,-971.12
308.172,222.772,-977.22
187.88,196.664,-908.9
98.576,177.388,-855.708
160.064,167.628,-746.152
243.756,167.14,-621.712
350.628,192.76,-526.796
416.264,218.38,-405.284
371.856,263.032,-196.176
325.74,293.532,-34.16
293.044,259.128,108.336
268.888,194.712,263.764
316.468,182.512,369.904
333.06,171.044,454.328
352.092,184.464,570.96
463.844,190.808,630.74
612.928,185.928,690.52
773.968,188.368,727.12
1009.916,219.356,782.996
1239.276,177.876,818.132
1357.372,98.576,802.76
1545.984,13.664,702.964
1799.744,-61.488,553.88
2059.116,-89.548,328.668
2211.616,-79.544,97.356
2128.412,-32.696,-34.648
1944.924,-16.592,-119.316
1790.716,-95.892,-261.08
1658.956,-180.804,-450.668
1432.524,-234.484,-649.772
1155.584,-211.792,-833.26
850.34,-199.348,-1066.768
679.54,-43.92,-1338.34
559.736,156.16,-1370.06
460.916,308.66,-1170.712
421.632,352.092,-970.144
374.784,278.892,-815.936
396.5,200.324,-687.104
561.688,202.52,-628.544
713.212,221.796,-545.828
813.74,266.692,-435.54
865.712,277.428,-366.244
880.84,258.884,-308.904
929.152,248.636,-267.668
997.228,244.976,-248.392
1068.72,234.24,-242.536
1102.148,218.868,-254.004
1091.168,206.912,-270.352
1045.052,213.256,-278.404
1005.036,221.308,-280.844
1010.892,229.848,-279.868
1067.012,256.688,-291.58
1106.052,290.848,-305.732
1122.156,285.968,-297.192
1120.692,263.52,-291.58
1052.372,221.552,-251.564
1064.572,206.424,-264.496
1003.328,238.876,-255.956
837.408,251.808,-180.316
817.156,331.84,-162.992
796.66,365.756,-172.508
730.292,373.076,-122.244
638.548,435.296,-90.768
528.26,479.704,-83.692
293.288,480.924,-28.792
74.42,538.752,69.54
-173.728,546.56,228.384
-276.94,582.916,330.864
-456.036,655.872,571.692
-495.076,734.44,620.736
-598.776,779.336,517.036
-476.044,925.248,385.276
-313.296,1142.408,242.048
-253.516,1303.936,121.024
-178.364,1398.608,22.936
-107.848,1441.064,-7.808
-55.388,1438.624,5.612
-57.828,1359.812,46.116
-66.612,1271.484,59.048
-75.884,1175.836,46.848
-95.16,1094.096,44.408
-104.188,1036.512,28.792
-100.528,1000.156,14.152
-103.7,989.42,18.056
-90.036,995.032,27.328
-74.176,1000.4,28.304
-63.684,1001.376,24.644
-55.876,1003.816,30.012
-22.448,1016.992,16.348
-15.86,1019.92,30.988
-3.66,1005.768,48.068
11.224,988.688,56.608
-3.904,967.216,68.564
-11.712,939.156,84.18
-5.612,926.956,91.744
-6.1,919.148,90.768
-18.544,914.024,93.94
-11.468,923.052,84.668
-5.124,936.472,77.592
-7.076,943.304,75.396
-11.712,943.06,76.86
-22.692,951.112,74.908
-39.04,980.88,76.128
-37.576,1030.9,75.152
-40.748,1074.82,73.2
-53.436,1104.588,74.664
-63.928,1129.72,64.416
-73.444,1147.532,53.924
-78.568,1148.752,54.168
-84.424,1131.916,55.632
-83.204,1103.612,60.268
-68.564,1070.184,68.564
-48.8,1047.004,70.76
-42.456,1013.088,85.888
-28.06,984.54,96.868
-11.712,972.828,85.156
-25.62,976.976,81.252
-41.236,981.856,81.252
-37.088,996.74,58.56
-56.608,998.936,55.388
-88.572,1001.864,71.004
-98.576,1002.84,76.86
-110.044,991.616,74.908
-126.392,980.148,78.08
-131.272,973.316,78.324
-134.444,968.436,78.568
-134.444,955.992,78.324
-144.692,940.376,86.132
-154.452,921.832,88.572
-171.776,902.068,92.72
-182.756,899.14,91.744
-196.176,904.508,104.676
-193.004,904.752,113.46
-205.204,907.436,126.636
-207.644,914.756,124.196
-196.908,909.876,116.632
-236.924,899.628,124.196
-247.172,907.436,95.404
-202.52,909.632,54.168
-249.368,940.864,118.828
-227.408,957.7,112.728
-152.5,985.516,136.396
-42.944,996.984,197.396
-64.416,916.464,159.576
-419.68,947.94,100.772
-327.936,915.488,45.628
-128.344,935.008,115.168
-153.964,932.08,102.724
-157.624,891.088,88.572
-230.092,838.14,118.584
-297.68,813.74,99.796
-286.456,824.232,49.776
-219.844,820.084,53.192
-244.732,771.284,79.056
-303.78,686.616,84.668
-346.236,568.276,100.772
-332.816,428.708,103.212
-362.584,269.864,126.392
-515.328,78.324,50.996
-623.176,-65.636,13.664
-473.116,-13.664,176.656
-233.752,107.848,285.968
306.708,49.044,-313.784
1458.388,-180.56,-852.292
2192.828,-246.684,-952.088
1918.084,-678.808,-536.312
998.448,-1387.872,-628.788
2015.196,-332.328,-636.596
2113.528,75.396,-869.128
1383.724,-112.24,-120.78
1356.396,-295.24,-548.512
1290.028,-540.216,-523.136
1351.272,-726.388,-631.472
1458.876,-458.476,-400.892
1309.06,-230.824,-310.368
994.788,-198.128,-255.712
865.956,-239.364,-332.084
1089.948,-292.8,-396.012
1388.116,-316.224,-459.94
1515.484,-340.136,-521.428
1458.144,-352.092,-544.608
1424.716,-362.34,-538.508
1553.548,-420.168,-547.292
1684.332,-485.316,-581.94
1692.14,-530.7,-583.892
1592.832,-577.548,-545.828
1461.316,-627.324,-522.892
1386.164,-599.02,-612.44
1304.912,-538.752,-684.664
1281.976,-474.824,-700.036
1213.9,-415.532,-693.204
1067.5,-418.216,-691.496
827.892,-343.552,-670.756
598.044,-291.58,-623.176
457.5,-198.86,-627.812
406.504,-110.288,-695.156
331.596,-37.088,-714.92
188.124,10.98,-639.524
50.508,61.732,-582.428
-51.728,169.336,-499.956
-168.848,206.912,-432.124
-289.14,169.336,-388.692
-349.896,232.044,-312.564
-324.764,244.976,-156.648
-286.456,260.836,-48.068
-208.376,249.124,86.376
-104.188,163.968,325.252
67.832,30.988,533.384
391.376,-91.012,618.54
744.932,-139.324,668.804
982.588,-69.052,712.968
1077.992,0.976,753.96
1154.608,33.916,781.044
1206.336,-22.692,759.084
1327.604,-70.516,690.52
1577.46,-66.856,641.964
1638.216,-54.168,636.352
1622.112,-40.504,604.388
1658.712,-73.444,597.312
1762.412,-126.636,498.004
1937.848,-144.936,232.044
1907.348,-133.468,65.148
1681.404,-163.236,72.224
1474.492,-291.092,-95.648
1389.336,-308.904,-563.152
1219.268,-184.708,-790.804
902.8,-197.152,-973.56
793.244,-14.396,-1347.368
714.188,245.22,-1421.056
567.3,397.72,-1202.432
551.44,456.28,-979.416
574.864,393.084,-820.328
596.336,285.968,-629.276
721.02,218.38,-466.284
867.176,193.492,-313.296
995.52,186.904,-187.88
1050.664,215.696,-118.34
1023.336,234.728,-58.316
1034.804,250.832,-27.084
1067.988,260.104,-40.992
1142.408,300.852,-105.408
1140.212,333.06,-141.764
1054.08,353.312,-160.308
916.22,347.7,-160.308
821.304,375.516,-184.952
868.396,474.58,-251.564
865.468,521.672,-254.736
854.244,534.604,-203.74
871.568,592.92,-213.988
834.724,682.224,-204.472
820.328,793.732,-213.5
768.844,798.368,-176.168
710.04,737.124,-98.332
733.708,730.78,-68.808
714.92,714.92,-61.244
616.832,661.484,-5.856
569.008,546.316,39.284
588.772,519.72,1.22
391.62,538.752,76.128
43.432,624.64,186.172
-235.46,724.192,281.332
-256.932,809.348,285.968
-138.836,780.556,253.76
-174.46,725.9,409.432
-209.84,886.696,375.76
-221.552,949.648,299.144
-241.316,928.176,312.564
-149.328,960.384,348.188
-94.916,987.224,352.092
-146.888,966.24,341.6
-131.028,955.504,285.48
-144.204,962.824,283.528
-84.912,1033.096,247.66
-78.812,1078.968,242.048
-67.832,1110.2,215.94
-48.556,1122.156,162.992
-63.684,1167.052,110.288
-38.796,1198.04,71.736
-33.916,1185.352,52.948
-59.536,1156.804,20.74
-90.28,1140.456,-4.88
-91.988,1122.644,-11.712
-63.44,1111.664,-20.74
-26.352,1109.224,-24.888
-2.684,1091.168,-22.204
24.156,1078.968,-22.204
-11.712,1031.876,16.104
-18.788,983.808,33.184
30.744,968.192,30.256
-3.66,945.256,59.78
-7.808,935.984,60.512
-24.4,934.276,58.804
-41.236,936.96,62.22
-21.96,956.236,41.968
-25.376,975.756,31.964
-28.548,985.028,27.084
-46.604,985.272,29.28
-58.56,978.928,30.012
-55.876,973.56,24.644
-73.688,961.116,30.744
-77.348,951.356,28.792
-76.372,947.94,31.964
-64.416,948.184,25.132
-58.316,947.94,22.936
-62.952,959.408,24.644
-59.78,973.56,20.984
-75.884,986.248,26.108
-85.156,996.252,22.204
-81.008,1004.548,18.544
-74.664,1016.504,14.396
-75.64,1023.58,20.496
-68.32,1011.868,25.376
-61.0,992.836,21.716
-74.664,966.484,28.548
-69.54,949.892,27.328
-63.44,948.672,22.692
-80.032,946.964,27.816
-80.52,948.184,19.032
-68.564,953.064,7.564
-62.464,959.164,4.88
-50.996,981.124,1.952
-46.604,1007.72,-3.416
-49.776,1017.724,-13.176
-60.024,1023.092,-19.52
-57.584,1029.68,-26.352
-64.416,1027.24,-28.792
-63.928,1022.848,-35.136
-66.612,1020.652,-39.04
-86.132,999.668,-32.94
-93.696,981.368,-36.112
-107.116,969.656,-34.404
-122.0,956.724,-25.62
-119.072,954.284,-19.52
-119.072,947.94,-14.152
-111.264,951.112,-15.86
-113.948,950.624,-13.42
-103.944,948.916,-15.86
-107.848,940.376,-7.564
-96.136,927.444,-4.88
-70.76,931.104,-14.152
-61.732,952.82,-26.108
-71.98,962.092,-22.936
-68.564,962.824,-19.276
-61.976,959.652,-20.496
-65.88,952.332,-15.372
-74.176,943.06,-5.856
-70.516,927.444,-15.372
-83.204,893.284,-13.664
-98.332,843.752,-11.468
-118.34,766.892,0.976
-147.132,675.148,19.276
-157.38,617.076,32.94
-141.276,578.524,19.52
-213.744,487.512,-37.088
-174.46,426.512,-155.428
192.516,339.648,-297.924
680.516,164.212,-441.64
1040.904,-118.34,-511.912
1097.024,-207.156,-553.392
1223.416,-425.048,-559.736
942.816,-422.12,-435.54
1361.52,-227.164,-694.424
2263.588,111.264,-959.896
1716.296,-241.56,-585.6
876.448,-602.436,-367.952
725.9,-642.452,-560.956
907.924,-691.496,-529.48
1274.168,-537.288,-350.384
1404.952,-368.928,-396.744
1158.512,-362.828,-416.508
943.548,-402.6,-423.096
866.444,-417.484,-407.968
855.708,-417.24,-395.28
900.604,-395.768,-401.624
1005.768,-350.14,-419.192
1111.176,-301.828,-448.96
1129.72,-315.736,-459.696
1158.024,-325.252,-515.816
1301.984,-296.216,-630.496
1491.572,-252.784,-724.68
1667.252,-196.664,-822.28
1760.46,-183.488,-867.908
1796.084,-185.684,-907.192
1857.816,-195.932,-899.14
1882.704,-230.58,-852.536
1881.24,-276.452,-788.608
1785.592,-385.032,-653.92
1569.652,-502.884,-491.66
1305.4,-597.312,-334.28
1035.78,-647.576,-174.704
804.956,-631.472,-59.292
505.812,-593.896,2.44
333.304,-512.644,-114.436
272.548,-388.448,-316.468
280.844,-214.476,-593.652
260.836,-81.74,-824.72
193.736,10.004,-953.796
88.084,59.78,-967.948
19.52,59.536,-908.656
40.26,16.104,-837.652
49.776,-29.28,-703.208
85.888,-56.608,-570.472
109.068,-48.312,-423.584
128.588,-32.94,-290.604
82.228,-2.684,-143.472
5.856,59.78,12.2
48.556,134.2,143.716
153.964,153.476,256.688
294.264,146.888,363.56
459.208,127.368,467.504
703.208,98.576,536.068
930.616,38.552,582.184
1200.968,-17.08,591.456
1543.3,-56.608,534.848
1871.724,-126.636,437.98
2069.364,-156.16,325.008
2109.624,-119.316,186.416
2085.224,-36.844,36.356
2056.92,18.056,-135.42
1969.812,37.576,-317.2
1837.808,20.496,-463.112
1637.24,-69.296,-565.104
1412.516,-204.96,-770.796
1217.804,-241.804,-1054.08
980.392,-223.992,-1295.884
703.696,-131.028,-1460.828
362.828,-4.148,-1491.572
148.352,122.0,-1413.492
147.376,179.584,-1249.036
200.08,154.452,-1024.312
270.596,90.768,-800.32
392.596,40.748,-675.392
566.812,48.8,-590.968
733.22,123.952,-510.204
888.16,203.252,-461.648
964.776,229.36,-419.192
1001.864,225.456,-392.352
1033.096,217.892,-360.632
1055.3,212.036,-337.696
1024.068,208.376,-301.584
966.24,224.48,-276.208
899.628,243.512,-265.228
841.312,250.588,-280.6
768.844,286.456,-291.58
722.728,344.04,-248.88
769.576,427.976,-231.068
862.296,488.976,-271.084
923.784,531.92,-317.688
891.332,511.668,-279.624
855.464,466.528,-226.432
969.412,507.52,-263.764
1030.168,543.388,-338.428
894.016,526.308,-274.744
755.668,521.428,-182.024
642.208,536.556,-120.536
566.08,589.992,-102.48
461.16,591.7,-89.548
344.528,603.168,-35.38
253.028,633.668,-4.148
329.4,665.632,-57.584
489.952,731.756,-111.996
410.164,745.664,-54.412
326.716,794.708,7.808
464.82,893.528,-58.316
565.592,974.048,-112.24
578.28,1082.14,-123.952
401.38,1098.732,-69.052
176.168,1099.464,-7.808
171.532,1074.82,-42.7
311.344,1089.948,-141.764
245.464,1130.208,-74.664
92.72,1122.4,-15.616
52.704,1120.204,-36.112
65.392,1092.144,-66.612
47.092,1079.456,-24.888
59.78,1155.096,-3.172
13.42,1154.852,5.612
-13.176,1133.624,-5.612
-13.176,1098.0,-18.056
-19.764,1075.796,-12.688
-24.4,1060.668,-20.74
-45.384,1048.956,-7.564
-73.444,1019.188,2.684
-37.088,998.936,-22.204
30.988,1021.384,-78.08
12.932,1049.688,-55.388
65.148,1072.136,-56.12
65.148,1056.764,-28.792
98.576,1050.42,-46.116
85.156,1036.268,-30.5
66.124,1008.94,-0.488
131.76,1023.824,-50.264
86.376,1003.572,-5.124
74.42,970.632,20.496
135.664,979.66,-16.836
103.456,979.904,2.196
82.472,959.896,28.304
140.788,980.148,-14.152
93.696,977.464,16.104
79.544,945.744,31.964
100.284,929.396,15.128
102.968,945.012,0.488
73.444,935.984,36.356
110.044,955.504,4.88
98.332,959.164,10.736
100.284,971.12,4.636
96.38,988.444,-16.348
90.768,997.716,-26.108
113.704,1033.34,-72.712
60.756,1024.556,-54.412
37.82,1001.376,-56.12
59.048,998.448,-82.96
52.46,1010.892,-88.084
28.548,1005.524,-63.684
42.456,1010.16,-85.888
35.868,993.08,-80.276
36.356,969.656,-63.928
54.412,967.948,-71.492
57.584,974.78,-73.688
66.368,983.564,-76.128
65.636,995.032,-74.42
64.172,998.936,-78.568
84.18,1019.432,-104.432
46.116,1011.868,-78.568
45.14,992.104,-79.056
70.516,998.692,-100.772
47.824,991.128,-81.008
55.388,986.736,-81.008
70.272,995.276,-102.236
52.704,988.444,-87.596
64.904,985.272,-90.28
70.272,990.64,-97.6
67.1,990.884,-84.912
87.108,995.032,-98.82
78.08,988.444,-92.232
79.788,982.1,-86.62
83.448,993.324,-82.716
89.792,1010.16,-86.132
91.988,1024.068,-90.28
81.496,1021.872,-90.036
77.348,1008.452,-89.548
80.276,1004.06,-95.404
64.416,992.592,-83.448
61.244,981.612,-82.716
59.536,968.436,-83.936
80.032,965.752,-93.696
73.444,963.312,-86.62
86.376,961.604,-91.988
86.62,960.872,-91.5
83.448,959.896,-87.108
95.892,967.948,-96.38
81.74,967.704,-78.568
90.524,967.46,-84.912
99.552,978.684,-99.064
76.372,977.22,-79.056
88.328,983.564,-88.328
81.252,989.176,-86.62
74.176,992.592,-77.592
73.444,995.52,-76.86
69.54,993.812,-81.74
62.952,998.448,-87.84
59.536,1004.548,-89.06
54.9,1011.136,-79.3
44.896,1015.284,-79.056
25.376,1012.844,-73.444
29.28,1018.944,-79.3
25.376,1025.532,-74.908
10.736,1024.8,-71.98
13.176,1033.34,-75.884
7.32,1031.876,-78.08
-8.54,1035.536,-67.832
6.588,1026.752,-73.688
7.32,996.252,-64.904
-9.028,946.476,-44.652
-26.596,878.4,-26.108
-55.876,801.296,-9.028
-78.812,723.704,-4.148
-4.88,656.848,-33.428
72.468,582.184,-85.156
112.728,539.484,-150.06
196.908,497.76,-262.788
333.548,436.272,-310.368
624.64,351.848,-282.308
1030.656,216.184,-510.204
1121.424,302.316,-551.928
1070.672,114.192,-439.932
1132.16,-86.132,-417.728
760.792,-381.616,-176.412
750.788,-346.236,-148.84
1099.708,-155.916,-309.88
1291.492,-99.552,-168.604
1290.516,-245.22,-206.912
1244.156,-424.804,-338.428
1240.496,-506.544,-357.704
1354.2,-446.276,-360.632
1379.576,-403.332,-352.336
1310.768,-397.964,-361.364
1264.652,-394.06,-405.284
1308.816,-377.468,-432.124
1399.34,-356.728,-453.596
1472.784,-339.404,-515.328
1601.128,-298.168,-658.556
1713.856,-277.916,-715.652
1775.1,-316.224,-667.828
1772.416,-368.684,-650.992
1768.756,-388.692,-692.472
1693.116,-393.328,-681.248
1559.404,-403.332,-622.688
1411.296,-401.38,-556.076
1250.988,-378.2,-484.828
1088.728,-364.048,-421.388
915.732,-332.572,-331.84
747.372,-324.276,-226.188
581.696,-321.836,-135.176
412.36,-319.64,-99.308
254.492,-318.176,-98.332
224.968,-306.22,-222.284
272.548,-205.448,-405.528
231.312,-129.564,-550.464
203.252,-42.456,-719.556
234.24,62.952,-893.528
231.312,162.016,-928.176
157.136,189.832,-860.1
123.952,201.544,-814.96
116.144,194.468,-744.444
111.752,197.396,-600.484
114.192,212.524,-434.32
105.652,231.8,-204.96
161.528,232.044,-20.74
191.296,190.564,197.152
241.316,156.892,376.492
352.092,111.264,465.796
505.324,104.188,527.284
729.316,152.5,549.0
893.772,167.628,546.804
1120.692,180.804,505.08
1435.208,197.152,459.452
1703.608,156.648,401.624
1912.472,125.172,302.072
1971.764,120.78,251.076
1808.284,143.228,316.712
1592.344,162.992,324.52
1411.296,190.808,266.204
1326.628,247.66,227.896
1345.172,266.448,183.0
1394.216,216.672,111.264
1359.08,127.368,17.568
1315.16,45.14,-95.892
1224.392,-21.716,-244.976
1146.068,-40.992,-351.116
1098.488,-44.896,-422.364
1040.416,-65.88,-559.98
927.444,-36.6,-722.484
822.036,48.556,-821.304
767.38,163.236,-857.904
778.116,252.54,-853.512
804.712,283.284,-804.468
823.5,279.38,-707.844
832.772,249.612,-582.184
836.432,204.228,-435.052
906.46,179.828,-295.972
1035.536,167.14,-183.976
1116.788,175.924,-63.196
1170.956,192.76,11.712
1171.932,204.472,50.752
1202.188,237.656,22.692
1206.092,290.604,3.416
1155.828,358.68,5.856
1112.396,382.836,31.964
1043.344,427.0,55.632
888.404,446.52,92.964
771.772,476.044,118.828
830.82,502.152,80.032
821.548,486.78,43.92
682.956,493.124,69.784
516.548,540.704,104.676
318.176,546.316,140.056
273.036,577.548,100.528
267.424,628.056,113.216
228.384,669.536,158.6
136.396,688.812,192.272
105.408,688.812,180.804
73.688,701.5,200.812
-39.528,727.608,297.68
-40.992,770.308,346.724
78.568,849.852,339.648
160.552,922.32,319.64
134.2,1034.56,301.584
65.636,1160.708,220.332
99.308,1275.388,129.32
177.144,1407.636,19.276
143.96,1467.904,-10.248
104.676,1457.412,-39.772
81.008,1378.112,-11.224
155.428,1327.604,-55.632
109.556,1252.94,-15.616
89.06,1159.244,21.96
161.772,1110.688,-11.224
169.092,1075.308,-31.476
132.492,1018.7,13.176
225.7,1029.436,-59.292
184.22,1030.656,-61.976
136.64,1007.232,-19.52
188.124,1006.256,-47.824
169.336,1003.328,-38.308
141.764,972.584,-20.984
196.42,982.588,-73.2
160.552,990.64,-62.464
132.248,968.436,-31.232
142.008,947.94,-25.376
174.216,955.26,-58.804
125.904,945.988,-11.712
132.492,938.424,13.176
176.656,948.428,-14.884
154.452,947.452,9.028
153.232,946.476,31.476
186.172,959.164,6.832
155.672,953.552,29.768
149.328,939.644,41.968
142.984,925.98,43.188
129.32,918.416,41.236
123.464,926.956,32.94
146.644,954.04,1.464
176.9,985.272,-16.592
213.744,1010.16,-35.136
232.288,1031.876,-30.988
216.916,1022.116,-3.172
216.184,998.936,2.684
203.008,974.78,19.764
201.544,965.264,33.672
208.864,973.804,29.036
200.08,975.512,37.088
219.6,991.128,13.42
183.732,986.004,41.48
176.656,985.76,44.652
163.236,986.248,40.504
133.956,978.44,51.972
155.428,979.172,24.4
172.508,988.2,1.22
160.796,984.784,21.472
194.956,987.224,10.004
238.388,1018.944,-25.62
192.028,1017.968,16.592
214.232,1021.14,7.076
225.212,1025.044,4.148
203.008,1010.892,32.208
207.644,998.448,26.108
200.568,985.76,13.664
184.952,974.292,20.496
175.68,962.092,28.548
164.212,952.576,25.864
149.572,947.452,22.936
152.744,950.868,18.056
146.888,958.676,22.204
147.62,974.048,12.932
149.572,986.98,8.54
152.744,993.568,13.42
157.868,1006.988,24.888
147.864,1016.992,51.484
142.008,1035.292,67.1
114.924,1057.008,87.596
97.6,1070.672,94.428
85.4,1088.728,90.28
65.88,1090.192,89.06
28.06,1065.792,99.064
6.1,1045.052,93.94
-14.884,1034.316,89.06
-26.596,1033.34,84.424
-40.992,1044.564,98.82
-80.52,1009.916,128.588
-110.776,953.064,146.156
-105.896,897.188,136.396
-107.604,843.264,106.384
-254.98,742.248,83.448
-303.536,603.168,-40.504
32.94,470.188,-237.656
482.876,322.08,-262.788
612.44,144.692,-266.692
847.412,-10.98,-355.508
1083.848,-175.68,-335.988
883.28,-553.392,-379.908
612.196,-250.588,-483.608
1735.572,545.584,-610.976
1905.152,410.896,-569.496
1209.996,138.592,-181.292
726.876,-263.52,-290.604
601.216,-537.776,-359.412
946.232,-541.192,-285.48
1359.324,-342.82,-214.476
1389.092,-194.224,-241.072
1146.068,-123.22,-258.884
1001.376,-81.252,-261.324
974.292,-61.244,-247.416
1001.376,-68.076,-268.644
1129.476,-72.956,-329.644
1311.012,-77.836,-404.064
1476.688,-50.508,-522.892
1591.612,-39.528,-610.976
1721.42,-62.22,-620.248
1836.344,-112.972,-579.988
1855.132,-209.84,-584.624
1827.072,-263.276,-628.056
1771.928,-269.864,-648.308
1645.048,-240.096,-641.964
1482.056,-209.108,-602.436
1348.588,-222.772,-532.164
1201.456,-258.396,-452.62
993.568,-298.412,-342.088
833.992,-284.26,-265.96
698.816,-262.544,-195.444
562.42,-249.856,-124.684
421.388,-258.884,-120.536
273.768,-250.588,-207.644
228.384,-204.716,-376.492
308.172,-105.652,-607.072
402.6,-18.3,-866.688
474.092,91.012,-1012.6
468.968,207.4,-1021.384
405.04,241.56,-945.744
283.04,200.812,-819.84
171.532,160.796,-670.024
128.344,136.64,-521.184
97.844,162.016,-371.856
62.22,155.916,-196.42
63.44,175.924,-74.176
56.12,197.396,64.416
135.42,207.156,163.236
216.428,234.728,232.532
296.704,294.02,310.612
409.432,290.848,402.356
530.944,253.272,463.844
733.952,220.088,509.716
1058.228,165.188,551.684
1358.836,102.236,558.516
1706.048,41.724,466.284
2083.272,56.364,338.184
2278.96,37.576,283.528
2302.872,10.98,205.448
2223.084,-1.22,113.46
2062.532,4.636,28.548
1815.604,20.984,-18.056
1598.932,-20.252,-73.2
1382.504,-146.4,-224.236
1176.324,-189.588,-463.844
929.396,-195.688,-579.744
713.944,-196.42,-868.396
666.608,-76.86,-1174.372
661.24,97.6,-1272.704
610.0,226.676,-1233.664
529.724,266.936,-1151.924
459.452,227.652,-989.908
497.76,158.6,-799.1
609.756,119.804,-645.868
732.732,108.824,-511.912
833.504,121.024,-401.136
928.42,141.276,-298.9
960.628,159.576,-205.936
934.032,148.84,-115.168
892.796,140.056,-52.216
851.072,128.344,-1.22
829.356,111.264,35.136
792.756,100.528,55.388
770.796,108.092,30.256
780.312,154.208,-55.876
729.56,200.324,-77.592
652.7,250.1,-80.276
521.916,244.488,31.72
434.32,244.732,117.364
439.2,373.564,135.176
402.6,404.308,120.048
409.676,288.408,93.94
612.196,420.168,45.872
969.656,585.112,-68.564
1080.188,812.764,-230.092
833.016,807.152,-174.216
906.704,791.78,-125.66
1297.592,1066.28,-129.808
1499.38,1393.972,-223.26
1468.392,1432.28,-295.972
1361.276,1249.28,-278.404
1022.604,929.396,-300.852
787.388,838.384,-159.088
764.452,945.744,25.864
271.328,1170.956,551.684
194.468,1228.784,490.44
362.096,1069.452,187.392
225.7,957.944,122.0
260.104,973.316,101.016
296.704,1008.94,72.956
271.084,1019.676,13.908
254.248,1001.376,-17.324
305.0,977.22,-62.464
286.212,967.948,-58.072
234.484,965.264,-16.104
248.148,971.364,-6.1
309.636,985.028,-37.332
315.248,992.104,-61.244
308.172,983.32,-33.428
319.152,988.2,-2.44
315.004,990.152,31.232
324.52,972.096,47.092
238.388,932.568,60.756
219.356,914.512,61.0
205.936,913.78,75.884
219.6,934.764,73.932
224.724,934.764,51.972
220.332,940.62,51.972
199.592,911.584,43.432
199.104,918.904,39.284
229.848,929.884,30.256
213.012,936.472,45.872
221.308,941.84,47.58
217.16,943.792,49.776
214.964,949.648,49.532
224.968,960.872,42.212
246.928,980.392,30.5
236.192,995.764,31.72
234.24,983.076,33.428
228.628,983.564,34.16
215.94,979.416,35.868
227.896,992.836,26.596
234.972,1006.012,12.932
223.504,1003.572,18.788
206.424,987.956,30.988
183.0,979.904,43.432
199.592,968.924,36.6
212.768,977.22,20.252
195.444,976.0,18.544
180.56,969.412,25.864
154.208,964.044,38.308
152.256,958.676,35.868
152.744,975.268,24.888
138.592,984.784,24.644
155.428,997.716,7.564
141.032,1002.84,6.1
143.228,998.448,6.344
135.908,983.808,9.76
142.74,976.732,10.736
143.716,973.56,16.104
146.888,980.88,15.616
145.424,990.152,11.956
125.904,989.664,18.3
124.684,987.224,23.668
118.34,992.348,32.208
119.072,1008.452,43.188
104.676,1016.748,59.78
105.164,1026.996,63.196
114.68,1056.032,56.852
124.684,1080.432,44.652
108.336,1085.312,32.94
81.74,1062.132,31.72
78.08,1050.176,27.572
75.884,1034.56,27.816
73.444,1020.896,20.984
72.712,1013.332,16.348
58.804,1005.036,15.86
60.512,1014.064,5.368
51.972,1021.384,-4.392
54.412,1028.216,-8.052
60.512,1030.168,-14.64
59.78,1041.392,-23.424
45.384,1045.052,-18.3
74.908,1036.268,-24.644
53.924,1014.064,-18.544
14.396,977.952,-40.748
28.06,979.904,-55.144
39.284,977.952,-28.548
-7.564,957.7,-16.348
-50.752,927.932,-12.444
-141.032,844.728,39.284
-295.484,728.584,55.388
-337.208,582.184,-33.916
-155.184,426.024,-120.292
46.604,305.0,-145.912
397.964,136.884,-285.236
925.004,23.18,-298.168
1082.872,-146.644,-282.552
1041.636,-241.316,-106.14
685.396,-363.316,-222.772
1220.244,-269.376,-840.092
1634.8,254.004,-424.56
1739.72,204.716,-421.144
1417.64,83.448,-415.776
1092.632,-263.032,-416.02
1052.86,-452.62,-396.256
1241.472,-401.624,-388.204
1336.632,-299.876,-354.044
1316.624,-149.328,-363.804
1183.156,-57.34,-431.148
1197.552,-8.052,-481.412
1307.108,-10.98,-538.996
1366.4,-46.848,-598.044
1373.964,-108.336,-651.236
1388.36,-208.62,-712.48
1478.884,-266.692,-821.304
1564.772,-287.432,-893.528
1576.728,-282.552,-940.376
1479.128,-260.836,-951.356
1282.464,-247.904,-889.38
1080.92,-252.296,-800.564
949.648,-287.92,-715.164
846.68,-297.436,-650.748
773.968,-277.184,-597.068
696.376,-255.468,-552.172
611.708,-226.188,-558.76
515.084,-199.836,-586.088
421.388,-152.744,-681.736
300.852,-127.124,-757.864
221.064,-70.516,-816.912
151.28,-3.66,-804.956
108.092,51.728,-788.12
102.724,67.588,-752.984
80.276,71.492,-668.072
2.928,71.98,-550.464
-37.576,98.088,-443.348
-54.412,111.752,-306.464
-42.7,144.448,-165.432
9.028,142.984,-69.052
47.092,154.696,57.096
139.568,162.26,193.248
329.888,158.6,294.752
505.08,89.304,364.536
726.144,16.592,378.688
993.568,-0.488,329.888
1256.356,36.844,247.172
1629.188,133.712,94.428
1914.912,188.612,-7.076
2008.364,190.32,-127.856
2034.472,187.88,-279.624
2003.484,228.384,-398.696
1864.16,217.404,-430.416
1686.04,152.988,-469.212
1530.856,44.896,-541.924
1413.004,-40.504,-662.216
1310.28,-104.432,-706.624
1186.572,-152.256,-811.3
1058.96,-192.272,-993.568
976.976,-151.768,-1092.632
801.54,-99.308,-1057.252
685.884,-56.364,-1113.616
540.948,5.856,-1183.4
368.684,159.82,-1117.764
365.756,309.148,-924.272
507.276,359.9,-727.12
701.5,337.94,-567.056
871.812,320.86,-439.2
995.276,310.612,-346.236
1051.152,319.884,-295.728
1050.176,371.124,-265.228
978.196,418.948,-188.612
1020.408,464.088,-140.056
1015.284,468.236,-95.892
968.436,447.252,-32.696
884.5,466.04,-17.568
774.944,520.208,-0.976
667.096,514.108,-26.352
627.08,568.032,-52.704
557.052,622.932,-51.972
530.456,712.48,-48.312
466.04,795.684,-31.476
390.644,812.276,15.86
344.528,825.696,42.212
233.02,824.72,79.788
136.396,816.18,67.588
52.216,799.344,61.244
49.532,815.448,30.988
123.22,883.28,-13.42
68.076,978.196,24.888
34.16,1059.448,37.088
66.124,1085.068,-26.84
59.78,1109.956,-120.536
15.128,1169.98,-161.284
18.056,1246.352,-167.384
38.796,1302.96,-165.188
58.316,1331.264,-158.844
45.384,1331.752,-167.14
57.584,1302.228,-158.356
39.772,1246.596,-118.828
25.62,1156.56,-80.52
25.864,1077.748,-68.32
9.516,1021.628,-38.308
38.064,984.784,-16.104
78.568,963.068,-11.712
103.7,957.7,-25.864
106.872,960.628,-23.912
141.764,981.368,-36.356
165.188,999.912,-48.312
159.332,1006.012,-42.212
195.444,1022.116,-75.884
155.184,1006.988,-59.048
172.508,997.228,-71.98
154.94,983.564,-67.1
140.788,958.188,-55.632
147.376,950.38,-63.196
145.18,949.648,-60.756
138.836,946.72,-47.824
158.844,954.772,-56.608
140.788,952.82,-41.724
137.86,952.576,-43.432
143.228,960.384,-54.656
125.416,972.096,-50.996
119.072,976.732,-52.46
112.728,976.732,-49.044
111.508,974.292,-53.924
112.484,985.516,-62.952
97.112,984.052,-63.44
105.896,985.516,-71.492
92.232,988.2,-66.124
87.352,981.856,-64.904
89.06,972.096,-64.66
99.064,968.436,-75.884
90.036,969.656,-73.2
83.448,964.532,-70.516
72.956,965.508,-74.176
77.836,976.732,-76.128
97.844,1000.644,-81.008
101.748,1013.82,-79.788
117.12,1031.632,-83.936
105.408,1042.124,-72.956
90.768,1054.324,-67.588
83.448,1074.332,-85.4
81.008,1101.66,-88.572
81.008,1125.328,-84.18
98.088,1132.892,-82.96
78.568,1124.352,-78.324
71.492,1103.856,-73.932
68.564,1089.704,-68.564
80.52,1064.572,-68.32
64.904,1045.784,-55.876
45.14,1023.092,-57.828
72.224,1010.404,-54.9
132.736,936.228,-50.264
-28.304,1038.708,-33.672
-10.492,943.304,-51.24
42.7,961.36,-51.728
24.4,972.584,-56.364
-0.732,978.684,-40.26
-45.14,974.048,-28.792
-75.396,956.968,-25.864
-112.484,938.18,-11.224
-130.54,928.42,-17.812
-137.128,918.904,-29.768
-172.508,882.792,-25.864
-204.716,823.988,-17.08
-203.74,756.888,-22.692
-253.272,662.704,-54.412
-277.672,591.7,-99.796
-225.7,488.732,-156.648
-242.78,385.52,-177.144
-148.108,239.852,-203.496
78.324,79.544,-205.448
323.3,-87.596,-261.568
647.332,-240.584,-289.14
887.428,-517.524,-324.52
1202.188,-693.448,-190.808
1245.864,-733.952,-717.116
1811.944,-372.832,-454.572
2710.352,84.18,-580.476
1917.352,-175.436,-280.356
1254.16,-457.012,-370.392
1120.448,-672.464,-366.0
1297.348,-689.788,-268.644
1416.176,-539.728,-191.784
1299.3,-379.42,-213.5
1129.232,-240.584,-254.004
1047.248,-134.444,-304.512
1082.872,-98.088,-344.772
1196.576,-124.196,-373.808
1343.708,-184.464,-408.944
1482.544,-198.372,-452.376
1577.948,-213.256,-455.304
1691.652,-229.848,-488.976
1722.884,-227.408,-518.744
1706.048,-233.996,-547.048
1658.956,-234.24,-589.504
1571.36,-213.988,-608.048
1454.728,-187.636,-607.56
1320.04,-152.744,-593.408
1206.092,-122.732,-559.004
1131.184,-147.864,-488.244
1030.9,-215.208,-413.824
917.684,-241.316,-357.948
782.752,-226.432,-278.892
618.296,-205.692,-212.524
474.336,-157.868,-173.972
402.356,-141.764,-198.128
323.544,-137.616,-263.764
233.508,-122.244,-378.2
158.844,-83.692,-564.128
99.552,-17.08,-777.872
36.356,63.928,-923.296
-13.176,149.328,-981.124
25.62,180.804,-1002.596
96.136,185.196,-961.116
108.824,198.372,-840.092
101.748,205.692,-679.54
124.928,219.112,-508.496
129.808,237.656,-299.144
128.588,256.2,-80.276
133.224,255.712,157.868
220.088,245.952,342.82
440.908,207.644,463.112
615.368,124.196,538.264
795.196,50.508,456.28
1086.044,11.712,320.86
1388.36,6.588,200.324
1606.252,-22.448,49.776
1805.844,-41.48,-181.78
1909.056,-28.548,-387.716
1922.72,37.82,-529.968
1879.532,86.62,-673.928
1859.036,68.808,-750.544
1845.372,-42.7,-712.968
1803.892,-196.176,-779.092
1522.316,-412.604,-817.888
1199.26,-500.688,-1014.064
836.676,-414.556,-1091.168
457.256,-164.456,-1059.692
342.576,149.572,-934.52
417.972,332.572,-794.708
482.876,280.6,-783.728
506.788,165.432,-825.94
606.584,124.44,-818.864
725.656,125.416,-753.228
794.708,105.652,-688.812
830.82,85.4,-638.548
865.468,75.396,-571.448
893.528,98.576,-509.96
917.928,127.368,-448.96
955.504,142.496,-396.012
995.032,146.644,-358.924
994.056,131.516,-303.78
991.372,133.224,-259.86
980.636,174.704,-231.556
988.2,216.184,-193.248
1034.56,255.224,-150.06
1075.552,321.836,-136.884
1046.76,406.016,-106.872
1026.996,385.764,-31.476
1145.824,324.276,-65.636
979.66,268.644,-24.644
787.632,298.9,7.564
722.484,408.212,-15.86
577.792,480.192,5.856
216.916,506.3,108.092
-74.908,654.164,177.144
-111.752,818.864,143.96
-115.9,737.124,37.82
-215.452,742.248,40.748
-156.16,823.012,13.42
-80.52,891.82,-65.636
-103.944,889.136,-81.008
-78.08,893.772,-53.436
-50.508,978.684,-19.032
0.244,1040.904,-49.776
-61.488,1101.416,-54.9
-119.804,1244.644,-47.092
-63.44,1418.86,-35.136
-60.268,1471.564,-1.952
-12.444,1473.76,-4.148
94.428,1508.408,-26.84
130.784,1491.328,-35.38
139.812,1436.428,-53.68
114.436,1341.756,-42.944
72.468,1226.1,-8.052
63.44,1126.06,17.812
74.908,1049.932,25.864
87.84,1009.916,38.796
128.1,995.764,41.968
134.688,978.684,51.484
126.148,954.528,68.076
140.056,939.4,81.252
142.74,931.836,83.692
145.912,923.54,86.864
186.416,948.672,66.612
155.672,953.552,74.176
156.16,959.896,89.304
158.356,976.244,86.62
82.716,963.8,93.94
76.372,952.088,95.404
114.924,973.56,76.128
62.464,964.532,90.28
76.616,956.48,95.404
87.352,967.46,85.4
60.756,960.14,84.18
76.372,961.116,71.736
69.54,954.772,71.004
59.292,952.332,77.104
72.224,966.24,74.908
46.116,971.608,87.352
38.796,967.704,97.356
44.896,960.628,104.92
56.364,960.628,103.944
61.244,967.216,99.552
82.472,976.488,86.376
97.112,994.3,74.176
90.524,1004.06,80.276
93.94,1014.064,76.128
71.736,1017.236,75.884
67.344,1031.388,71.492
50.508,1055.788,69.052
16.348,1086.044,65.148
-18.3,1110.932,69.296
-46.116,1128.012,66.368
-46.116,1134.844,52.216
-41.968,1136.064,32.452
-45.872,1131.672,15.616
-56.12,1110.688,-4.148
-53.924,1098.488,-19.276
-57.584,1089.216,-22.204
-55.876,1072.136,-18.056
-38.796,1070.672,-24.156
-56.364,1064.084,-17.08
-66.856,1047.492,-13.176
-88.328,1017.236,-0.976
-89.06,982.344,18.3
-72.468,950.136,30.5
-77.592,895.236,47.336
-51.728,851.072,51.728
-64.172,799.588,68.32
-115.168,735.172,82.716
-160.552,674.172,79.056
-194.956,610.732,69.296
-185.928,568.032,53.436
-191.052,511.668,9.272
-137.128,439.932,-22.204
-52.216,362.34,-72.712
-57.34,284.504,-162.748
175.68,155.428,-291.58
431.392,-71.004,-380.396
844.484,-274.744,-429.196
1642.12,-189.1,-345.504
1432.036,-136.884,-698.816
1230.98,-136.64,-682.956
1876.604,402.112,-740.296
1503.772,260.104,-276.452
1391.044,3.904,-436.76
1274.656,-383.324,-414.556
1435.208,-413.58,-417.728
1535.004,-194.712,-377.956
1478.152,-56.852,-381.616
1338.828,-20.74,-456.036
1232.444,-24.4,-528.26
1262.456,14.884,-592.432
1381.528,62.952,-636.108
1497.184,30.988,-732.732
1543.056,-143.96,-740.296
1616.744,-203.496,-723.704
1600.884,-219.6,-700.768
1556.232,-220.332,-615.124
1550.864,-202.52,-497.76
1536.956,-228.384,-370.392
1443.26,-226.188,-285.968
1290.028,-179.584,-213.988
1185.352,-117.364,-130.052
1055.544,-119.072,-64.904
934.764,-87.108,-102.236
785.436,-58.56,-124.684
598.044,-27.572,-133.468
445.3,-16.348,-177.144
341.112,-7.076,-261.08
312.32,65.392,-376.492
316.712,141.032,-486.78
329.888,237.168,-602.436
308.172,285.48,-695.4
315.98,305.0,-780.312
281.332,316.956,-781.288
222.04,323.788,-720.044
149.816,331.596,-658.556
121.756,348.92,-585.844
117.852,353.556,-494.832
69.052,363.316,-360.632
3.904,378.688,-195.932
-13.664,366.0,-46.604
-13.664,320.372,89.548
14.152,251.564,213.988
119.804,214.232,313.052
265.472,177.632,417.728
486.048,140.056,503.128
745.42,142.496,559.98
868.64,190.32,570.716
961.848,245.952,558.272
1246.352,271.328,544.608
1586.244,250.1,516.06
1809.016,225.212,442.372
2004.216,239.364,293.776
2069.364,289.628,185.196
2043.744,364.048,100.284
1923.94,418.948,15.86
1733.376,407.724,-55.632
1559.648,313.784,-151.036
1449.116,235.216,-241.804
1365.424,184.952,-276.208
1242.204,109.312,-324.276
1108.736,27.328,-401.38
1028.948,0.0,-557.052
938.668,-24.644,-665.876
826.428,-14.884,-880.108
781.532,114.924,-1039.44
651.724,252.54,-945.256
530.456,371.856,-800.076
499.956,433.588,-745.42
513.864,422.364,-615.124
604.632,373.564,-473.36
745.908,367.22,-397.72
853.024,356.972,-330.864
910.608,376.736,-267.424
944.28,430.904,-219.356
951.6,484.096,-183.244
945.256,511.18,-149.572
944.524,503.616,-122.488
957.212,478.24,-107.36
956.236,455.548,-98.332
943.304,422.364,-81.252
922.808,403.82,-67.344
893.772,416.508,-60.024
850.584,411.872,-54.168
820.572,387.228,-54.168
822.28,376.492,-95.648
726.632,436.272,1.708
781.776,480.436,-25.376
853.512,515.328,-120.048
604.388,487.268,-6.344
487.756,549.732,61.976
493.368,641.72,77.836
378.932,637.328,109.312
236.68,701.012,100.04
126.88,796.904,153.232
159.088,853.268,171.044
171.044,878.4,196.908
158.844,862.54,155.672
132.248,870.348,117.608
117.12,889.136,109.068
155.428,923.54,55.876
165.92,904.264,17.812
129.32,956.968,30.012
325.008,1178.032,7.564
236.436,1232.444,53.68
136.884,1169.492,83.936
148.108,1066.768,81.74
-4.148,1019.188,85.888
-92.964,1028.216,75.884
-1.464,1108.248,70.272
42.944,1227.808,96.868
86.376,1256.112,76.616
30.744,1275.876,61.488
17.568,1293.2,42.212
36.844,1317.112,30.012
33.184,1296.616,38.308
0.244,1223.416,45.872
0.732,1167.296,47.58
11.956,1126.792,57.584
16.592,1077.748,50.996
53.68,1053.348,45.384
106.384,1047.736,43.676
135.908,1034.072,64.66
148.352,1015.04,77.104
139.568,992.592,88.816
160.064,981.612,78.324
152.012,957.456,85.888
171.776,952.332,67.588
148.108,934.52,70.028
158.6,937.204,68.564
150.304,932.568,61.0
133.712,920.368,70.272
142.74,926.956,63.196
113.704,934.032,72.712
110.288,950.38,83.204
116.144,972.584,82.472
116.388,982.344,82.472
123.464,980.636,85.888
128.832,977.464,88.572
129.32,983.076,88.572
118.096,986.736,76.616
106.384,982.1,70.272
102.968,985.76,57.096
100.528,983.564,48.312
91.5,984.052,41.236
80.276,968.924,33.672
86.62,969.9,24.888
79.3,969.9,20.74
83.692,971.852,14.64
87.596,977.708,17.324
93.452,987.468,19.52
104.676,1010.404,15.372
99.796,1020.408,13.664
102.236,1026.02,13.908
102.724,1026.508,15.128
96.136,1018.7,11.224
87.596,1001.376,11.712
79.544,985.76,15.128
81.252,980.392,11.956
72.712,974.78,15.128
83.204,984.296,8.296
87.84,997.228,-0.488
82.716,995.276,3.416
92.72,1008.452,-5.612
75.396,1012.112,0.244
74.42,1019.432,4.148
85.644,1032.852,-1.952
72.468,1031.388,-0.244
83.448,1038.22,-4.148
74.176,1039.928,-6.344
39.04,1040.416,-5.612
22.448,1050.664,7.564
32.696,1043.344,9.76
25.62,1047.004,7.076
21.472,1048.468,21.716
27.816,1031.144,45.628
-11.712,945.988,54.412
-177.876,816.668,68.808
-280.6,701.5,39.528
-301.584,637.572,10.248
-20.496,599.996,-15.128
279.136,470.432,-116.144
595.848,275.72,-221.064
815.692,85.888,-234.972
945.012,-46.36,-93.208
918.172,-501.908,-94.184
876.692,-712.968,-295.24
1287.1,-188.124,-458.72
1833.66,346.724,-248.636
1815.848,159.576,-148.108
1346.636,-36.356,-110.776
1033.584,-383.08,-194.468
1023.824,-457.012,-288.652
1169.736,-326.472,-250.1
1277.584,-222.528,-149.328
1215.12,-91.256,-149.084
1072.868,3.172,-230.092
1008.208,31.964,-281.088
1119.228,60.512,-297.192
1306.864,51.728,-337.452
1406.416,14.396,-347.456
1444.236,-48.068,-316.712
1575.02,-81.984,-290.116
1703.608,-155.184,-251.32
1730.936,-224.724,-244.732
1743.624,-220.82,-328.18
1646.268,-147.132,-364.292
1581.852,-40.992,-420.168
1496.208,-12.2,-417.972
1461.56,-19.032,-457.5
1433.988,-34.404,-467.992
1359.812,-86.376,-416.508
1240.008,-103.944,-350.628
1145.336,-155.428,-294.508
995.52,-215.452,-213.988
773.236,-238.144,-135.664
526.064,-256.444,-100.772
374.54,-224.236,-187.88
310.368,-147.376,-300.608
346.968,-64.66,-375.516
394.06,38.796,-547.78
413.092,225.7,-725.412
374.052,406.504,-791.536
317.688,501.664,-784.46
191.784,460.916,-733.952
178.12,393.328,-661.24
191.784,339.648,-554.124
232.776,323.056,-401.868
231.8,290.848,-254.248
125.416,254.98,-120.048
-68.564,216.184,21.472
-70.76,219.112,114.68
19.52,128.344,193.004
197.64,84.668,277.428
380.64,53.924,365.024
505.08,20.008,376.248
602.436,-67.1,305.976
875.716,-122.0,142.984
1297.104,-121.024,-33.428
1714.344,-164.212,-183.732
1946.388,-236.924,-350.14
2221.864,-201.544,-565.104
2578.348,-23.18,-753.472
2511.492,75.884,-804.712
2084.492,21.716,-742.736
1690.676,-153.232,-628.544
1450.824,-317.932,-599.752
1271.484,-399.672,-644.648
1096.536,-390.644,-763.964
938.18,-315.98,-934.276
707.6,-161.284,-1015.04
452.132,8.54,-1001.376
362.096,156.892,-993.568
388.692,255.468,-886.452
472.384,222.528,-790.072
579.988,161.772,-704.916
653.432,111.508,-654.164
721.264,86.864,-623.908
822.28,113.704,-614.392
917.928,154.208,-579.744
984.296,177.144,-529.724
995.52,165.92,-462.624
960.872,131.76,-404.796
922.32,118.34,-357.216
891.088,157.38,-331.352
916.22,198.86,-294.996
976.488,224.48,-279.38
971.608,193.004,-262.3
929.396,190.564,-261.812
843.508,213.012,-240.096
780.312,193.98,-159.332
754.448,167.14,-90.768
763.476,131.516,-58.56
766.648,150.304,-40.992
746.884,205.204,-31.72
856.196,299.876,-39.284
880.84,348.92,-32.452
730.78,358.68,-6.344
568.764,499.712,-10.492
332.816,589.504,-26.108
206.912,760.792,-117.852
219.6,900.116,-200.812
336.964,1046.76,-244.976
242.78,1134.112,-120.048
197.64,1214.388,-58.072
122.488,1129.964,-135.176
79.3,1152.9,-306.464
32.94,1191.94,-337.696
11.712,1208.044,-260.836
28.06,1212.192,-205.204
141.032,1213.412,-192.76
55.144,1163.392,-180.316
-16.104,1105.564,-146.4
114.192,1099.708,-145.424
177.388,1146.556,-114.924
226.432,1221.708,-135.176
252.784,1215.608,-160.796
254.98,1194.868,-144.692
264.74,1152.656,-122.488
289.384,1167.052,-116.632
284.992,1176.324,-114.192
303.292,1156.072,-124.196
284.504,1098.488,-85.888
269.864,1021.384,-60.512
256.688,963.312,-36.844
256.2,944.768,-41.724
260.836,941.108,-45.628
309.148,968.436,-57.34
303.048,973.56,-43.92
321.348,973.316,-52.948
292.068,959.164,-54.168
298.168,951.112,-66.612
287.188,957.212,-79.3
248.392,937.692,-67.832
301.584,955.748,-89.06
294.264,969.656,-78.08
267.18,950.624,-36.844
282.064,942.816,-47.824
267.18,930.372,-51.484
259.372,921.588,-30.988
257.908,916.708,-28.304
251.564,909.632,-46.604
255.956,925.004,-50.752
244.732,939.4,-44.896
249.856,948.428,-49.288
244.488,946.72,-43.432
248.88,949.892,-45.628
247.172,955.748,-48.068
249.124,964.532,-49.288
258.152,974.536,-55.632
247.172,978.928,-51.728
246.684,989.908,-60.268
238.144,1002.84,-61.488
230.336,1014.552,-54.656
225.456,1033.096,-47.092
221.552,1049.932,-43.432
220.82,1067.988,-43.188
212.036,1069.208,-47.58
207.156,1056.764,-61.244
198.128,1050.176,-73.688
193.98,1046.272,-87.84
187.148,1038.464,-86.132
194.224,1030.412,-90.768
186.172,1018.456,-94.184
175.924,1004.304,-94.184
182.512,1004.792,-104.676
161.528,1009.184,-96.136
151.036,1019.92,-89.06
136.396,1006.5,-76.86
117.608,976.0,-73.688
93.452,947.208,-66.856
84.424,919.636,-71.004
39.284,886.452,-79.3
-124.928,798.856,-114.68
-219.112,729.804,-148.84
-67.832,627.568,-199.836
36.112,562.908,-197.884
163.968,542.9,-180.56
162.992,478.484,-140.544
421.632,169.824,-276.452
880.84,-76.372,-350.14
1346.636,-109.556,-291.824
1438.38,-22.692,-362.584
1007.476,-356.728,-481.9
988.688,-178.12,-626.836
1508.652,137.128,-610.488
1501.82,192.028,-84.912
1319.064,-50.996,-208.132
1083.604,-282.796,-351.36
1085.8,-424.56,-427.0
1179.008,-267.18,-331.596
1188.036,-109.8,-243.756
1114.836,-30.012,-279.868
1099.952,-41.724,-416.996
1227.564,-14.884,-480.192
1487.18,-47.58,-501.908
1755.092,-89.548,-550.22
1874.896,-188.124,-603.168
1892.22,-295.728,-611.22
1852.448,-339.404,-618.784
1742.892,-307.684,-543.144
1642.12,-312.076,-476.776
1524.024,-297.68,-426.512
1325.164,-266.936,-389.668
1118.496,-201.3,-371.612
1023.824,-126.392,-310.124
996.984,-129.32,-229.116
890.6,-156.892,-202.276
699.304,-192.516,-178.364
517.036,-200.324,-145.912
369.66,-171.044,-95.16
266.692,-136.64,-88.084
240.584,-93.208,-193.492
209.352,-30.256,-339.16
224.48,55.632,-553.88
293.776,183.732,-789.584
321.592,306.952,-908.9
302.56,358.68,-892.552
311.1,329.4,-916.952
310.856,291.092,-893.284
323.544,243.756,-770.308
329.156,240.096,-592.92
301.828,266.204,-387.228
256.2,275.476,-188.368
238.632,262.788,-23.668
284.016,253.028,98.82
362.584,215.208,235.948
446.276,222.284,315.004
548.512,239.364,342.576
648.796,242.536,353.068
767.624,231.312,343.552
955.992,241.316,325.984
1151.68,212.036,296.948
1305.644,167.628,232.044
1431.792,131.76,111.752
1581.364,125.416,-36.6
1725.568,191.296,-174.216
1770.464,262.788,-243.268
1760.46,300.364,-318.42
1678.964,298.168,-443.104
1577.216,281.82,-518.5
1476.688,217.16,-517.036
1418.372,113.704,-483.852
1334.68,-22.692,-524.6
1188.28,-91.256,-618.296
1040.172,-41.48,-682.468
876.448,3.172,-718.092
693.692,-14.396,-779.336
581.94,-17.324,-942.084
528.992,87.108,-1074.088
498.736,219.6,-1062.62
479.948,312.808,-955.504
524.6,363.316,-822.036
596.58,359.656,-710.284
656.116,318.908,-583.404
692.716,256.2,-485.56
767.136,235.704,-437.736
866.688,235.948,-396.744
929.396,256.2,-347.944
974.292,281.576,-314.028
1001.132,304.756,-311.1
995.764,298.168,-298.656
983.076,291.336,-264.74
951.356,293.532,-241.316
915.488,298.9,-222.284
857.172,324.032,-200.08
747.128,323.056,-148.596
681.98,294.508,-111.996
748.592,355.508,-176.9
778.36,426.512,-238.876
770.796,445.3,-243.268
753.228,489.952,-216.428
686.128,537.532,-166.408
667.096,678.32,-191.296
630.008,740.296,-140.788
559.736,751.764,-51.24
517.036,806.176,-20.496
592.92,866.688,-75.64
347.212,826.672,-49.288
76.372,810.568,46.36
189.1,888.892,49.532
314.76,942.816,70.516
314.028,1021.14,122.488
273.768,1026.02,142.008
239.608,980.636,121.024
240.828,951.6,70.76
235.46,951.112,60.512
275.964,1011.868,52.948
273.524,1022.848,58.804
209.352,1050.42,67.588
131.76,982.1,58.56
63.196,992.592,61.0
-57.096,1030.656,71.248
-89.304,1094.096,20.74
-104.676,1185.596,53.924
-46.116,1246.84,31.476
-42.7,1270.508,-13.42
-51.972,1260.504,-56.852
-43.92,1230.736,-54.656
-19.764,1208.044,-36.112
-29.28,1167.296,-26.108
-21.96,1124.596,-29.28
-3.416,1081.408,-25.62
16.592,1058.716,-18.3
46.848,1035.048,-23.18
56.608,1007.476,-20.984
63.196,992.836,-15.86
77.836,986.98,-10.004
102.236,996.252,-13.908
96.136,993.08,-4.636
99.064,977.952,-4.148
101.016,968.436,-10.248
91.012,960.872,-11.224
94.916,967.948,-7.808
106.872,980.636,-14.884
107.116,989.176,-12.932
95.892,984.784,8.296
111.02,990.152,-0.244
90.036,972.584,18.544
99.064,967.948,29.28
93.208,961.116,33.428
78.812,941.84,50.264
99.552,943.06,39.04
88.816,941.84,43.188
80.52,940.864,60.512
101.016,958.188,43.92
89.304,963.312,50.264
85.156,968.68,64.416
93.452,975.756,39.04
71.736,975.512,33.672
67.344,989.42,28.548
65.392,1020.896,17.08
57.096,1051.396,17.812
61.0,1076.284,16.592
62.464,1084.336,4.392
58.072,1079.212,-0.976
44.896,1059.204,4.148
38.064,1037.244,5.856
32.696,1021.628,10.004
28.06,1006.744,7.808
27.084,1003.328,-2.196
15.128,1002.84,-3.172
1.952,1016.016,1.708
-24.644,1033.828,-4.148
-86.864,1048.712,-13.42
-123.464,1067.256,-15.86
-139.08,1090.68,-28.548
-193.492,1117.276,-62.952
-251.808,1130.208,-51.24
-205.692,1032.852,-51.728
-269.132,1049.932,-45.872
-141.52,935.252,-95.16
-75.396,856.44,-142.496
24.888,709.064,-154.696
168.116,568.764,-177.876
405.772,408.212,-174.704
588.772,179.828,-168.604
706.136,-130.296,-222.04
714.92,-243.024,-129.32
672.952,-460.428,-39.04
761.28,-693.936,-85.4
854.0,-500.2,-81.008
1351.272,-215.94,-192.272
1910.764,41.236,-281.576
1661.884,-27.328,-152.988
1212.436,-192.516,-196.176
1122.888,-280.112,-312.808
1199.26,-325.008,-285.236
1180.228,-365.024,-195.2
1099.952,-363.804,-189.832
1042.612,-322.08,-204.472
1041.392,-264.252,-178.12
1108.248,-207.156,-157.868
1191.208,-172.264,-177.632
1268.312,-135.908,-223.748
1343.708,-97.844,-252.052
1428.62,-74.42,-260.104
1494.012,-71.004,-260.104
1572.092,-76.616,-252.296
1597.956,-135.908,-239.364
1530.368,-177.632,-238.632
1472.052,-164.212,-241.072
1490.596,-126.392,-244.0
1554.036,-80.764,-248.148
1548.912,-46.116,-227.164
1449.36,-62.952,-201.544
1320.04,-88.084,-189.344
1225.124,-104.188,-160.796
1182.18,-118.584,-127.856
1092.632,-120.536,-118.096
960.384,-105.652,-78.812
772.992,-107.116,-52.46
581.208,-104.676,-62.22
436.028,-82.228,-105.164
378.932,-44.408,-153.232
379.908,-7.564,-212.036
468.724,65.636,-316.712
570.96,178.12,-442.616
670.024,322.08,-589.016
646.6,378.688,-659.044
594.628,372.344,-644.404
579.744,376.736,-617.076
499.468,349.408,-579.5
440.664,385.276,-535.824
420.9,426.756,-431.636
369.66,448.96,-308.904
308.172,434.076,-203.496
284.992,432.856,-113.216
240.828,413.824,-5.124
230.58,369.66,100.528
237.412,334.768,184.708
272.304,297.68,298.412
382.836,262.3,430.904
521.672,197.884,545.096
630.984,128.588,616.344
725.9,87.108,683.2
863.028,78.08,754.936
1045.784,89.304,811.544
1181.692,107.116,835.944
1260.748,92.964,842.044
1349.808,68.808,820.816
1435.452,60.512,759.084
1507.188,73.444,700.28
1536.956,73.2,650.504
1522.804,66.856,555.832
1530.368,40.504,379.176
1552.572,-2.928,219.6
1582.096,-29.28,58.072
1558.916,-16.348,-139.324
1447.896,-32.94,-355.02
1314.428,0.976,-533.628
1150.704,67.588,-645.136
1004.792,108.824,-822.768
974.048,244.244,-954.772
924.76,355.996,-882.548
876.936,387.96,-701.988
827.648,356.484,-531.432
788.364,245.952,-382.104
815.936,134.932,-291.092
910.608,111.752,-258.64
970.632,128.344,-184.464
981.612,150.304,-76.616
983.808,176.412,-18.788
974.536,207.644,22.692
952.332,199.836,55.876
931.348,206.424,77.836
821.792,209.352,102.48
748.104,218.624,107.604
716.628,253.516,89.792
731.268,286.7,77.104
809.348,330.62,40.504
733.952,321.348,40.016
654.164,354.288,44.896
904.264,475.312,-0.732
1113.128,573.644,-55.876
890.356,556.32,26.352
625.616,602.192,106.384
567.788,767.624,129.808
559.736,917.196,93.452
538.996,952.82,37.82
442.372,941.596,48.556
202.276,992.592,80.276
173.24,1094.34,14.884
228.872,1211.46,-29.524
247.904,1245.62,-11.468
65.392,1245.62,38.552
20.74,1245.376,-25.62
-10.004,1245.62,-38.796
-12.688,1236.836,-30.744
13.42,1209.02,-28.548
62.952,1194.868,-53.68
-39.528,1171.2,-158.112
-116.388,1178.276,-270.352
-25.62,1167.052,-273.28
105.408,1148.996,-176.412
198.86,1131.916,-98.82
222.284,1139.236,-42.944
239.364,1142.652,-37.332
194.224,1050.908,-27.572
215.94,1010.892,-34.16
223.748,959.896,-6.588
264.984,945.5,17.324
257.908,934.764,50.752
233.996,909.388,65.148
214.476,889.624,66.368
210.328,891.332,59.292
193.736,902.556,61.976
194.224,915.0,53.924
173.972,921.588,64.66
168.848,926.712,58.072
145.668,911.828,60.268
149.816,914.268,57.584
138.836,910.852,64.172
178.852,931.104,52.704
154.208,947.452,71.492
131.272,938.424,89.792
180.072,969.412,59.78
112.728,951.356,85.644
115.656,937.936,86.376
179.828,978.44,38.308
125.172,972.34,61.976
131.516,976.488,72.468
148.108,1001.376,50.02
91.744,969.412,82.716
122.244,960.384,70.272
141.764,974.536,42.944
157.868,997.228,30.256
158.112,1017.236,30.744
133.224,1012.6,41.724
91.5,984.784,67.832
95.892,968.436,61.244
89.06,952.088,66.368
100.04,957.944,61.732
114.436,986.492,46.36
111.02,1008.208,52.948
104.92,1028.704,61.732
92.232,1054.568,66.612
66.856,1085.312,73.688
47.58,1122.156,69.296
38.064,1155.096,46.604
18.544,1174.616,31.964
-3.904,1196.576,30.988
-8.784,1220.0,35.624
-16.348,1224.636,39.772
-7.32,1193.892,36.6
-1.708,1147.532,29.524
10.248,1098.244,20.008
11.468,1055.056,15.86
-4.636,1019.676,28.06
-9.516,977.708,42.944
-4.392,938.912,67.344
-25.376,879.132,80.276
-37.088,828.136,85.156
-54.656,781.288,77.104
-86.864,738.1,59.536
-114.924,697.596,40.748
-144.936,661.24,22.204
-162.504,615.124,-28.792
-161.04,591.944,-103.944
-268.888,596.824,-78.812
-209.84,519.964,-50.02
23.18,393.084,-52.216
173.728,237.168,-123.464
555.344,55.632,-137.128
783.24,-186.66,-66.368
926.468,-474.824,132.248
1060.912,-945.988,160.552
1061.156,-876.936,129.32
1928.576,-130.052,-77.592
2156.96,57.34,125.904
1516.948,-106.628,273.768
1195.6,-271.572,49.044
1044.32,-513.864,-72.224
1159.488,-548.756,30.5
1350.296,-458.476,142.984
1334.68,-353.8,181.536
1165.832,-284.992,160.796
1101.416,-244.732,143.228
1121.912,-242.048,143.472
1176.568,-235.216,127.612
1253.916,-225.212,97.6
1304.424,-223.748,88.816
1365.424,-236.924,75.152
1445.7,-236.68,40.26
1528.66,-217.648,14.396
1560.136,-190.564,15.372
1520.608,-187.636,8.54
1477.176,-196.42,-20.252
1443.26,-201.544,-1.952
1417.152,-200.324,44.164
1333.46,-203.252,61.976
1247.328,-188.612,71.492
1223.172,-189.588,86.864
1243.424,-199.836,112.728
1239.276,-181.78,124.684
1211.216,-170.312,123.22
1191.696,-160.308,110.776
1140.212,-174.46,106.628
1073.6,-164.456,81.008
1007.232,-131.76,38.796
891.088,-67.588,-1.22
762.744,-16.836,-30.256
611.708,20.008,-78.08
462.38,50.508,-137.616
378.932,78.568,-190.32
369.66,101.016,-250.344
397.232,163.724,-315.98
498.248,243.024,-406.992
583.16,285.968,-498.004
670.268,335.988,-600.728
686.86,413.824,-665.632
628.544,454.328,-634.156
610.244,501.908,-589.748
541.924,519.476,-520.94
488.244,499.224,-398.208
426.756,466.528,-246.684
375.028,410.164,-97.112
240.34,343.796,55.632
153.72,276.452,171.044
99.552,181.78,307.928
79.544,164.944,458.72
306.952,131.028,569.496
562.664,84.424,731.024
741.272,36.844,859.856
950.38,-17.08,939.888
1145.824,-90.524,1031.144
1353.224,-166.896,1045.784
1534.76,-183.732,968.924
1750.944,-146.888,797.392
1812.676,-17.324,598.776
1727.764,115.9,398.208
1551.596,190.564,248.88
1391.776,134.444,123.22
1414.712,-21.96,-26.596
1430.084,-176.656,-180.56
1369.328,-192.028,-347.212
1302.472,-5.124,-548.024
1124.352,127.856,-658.312
984.296,235.948,-728.096
935.74,318.42,-718.092
871.812,319.64,-603.656
830.088,278.404,-552.172
823.256,214.964,-486.292
830.088,142.008,-402.844
871.324,124.928,-351.848
918.66,148.596,-312.808
970.876,192.028,-256.444
1007.72,231.556,-211.548
1032.852,238.388,-172.752
1031.388,244.976,-130.296
1003.572,242.536,-83.448
1007.232,247.172,-35.38
1019.676,253.76,3.904
995.276,262.3,38.796
924.76,249.612,110.288
865.956,309.88,150.06
877.18,383.568,190.808
843.996,345.748,212.524
878.888,334.524,183.732
885.72,426.024,197.152
793.976,483.12,166.896
709.064,509.96,109.312
607.804,542.412,70.516
558.76,606.828,44.164
450.18,690.52,64.416
273.036,750.056,36.6
114.924,785.924,10.736
125.66,852.78,-10.736
164.456,865.468,-5.368
175.68,881.084,19.276
211.792,921.344,19.52
183.0,926.468,39.772
169.092,957.7,49.044
157.136,1003.084,68.076
135.176,1073.356,98.088
202.032,1153.876,60.024
181.048,1201.7,2.928
118.096,1259.04,-12.2
124.928,1327.36,3.904
183.244,1384.456,9.516
194.224,1369.084,23.668
193.736,1335.656,4.636
105.408,1254.892,31.232
96.38,1174.128,52.46
146.644,1123.62,34.16
86.62,1048.468,70.028
162.26,1034.56,68.076
236.924,1050.664,44.652
154.94,1022.848,90.28
193.248,1011.624,86.376
178.608,990.396,99.064
138.104,949.16,116.876
232.776,969.9,56.364
208.132,981.124,56.364
174.216,980.392,84.18
159.332,967.46,88.816
185.44,961.848,64.904
143.228,943.548,95.404
159.576,952.576,87.352
192.272,965.752,66.612
169.092,960.628,85.888
140.544,948.672,102.48
152.5,946.964,92.964
142.984,947.696,92.232
123.952,947.208,102.968
145.668,950.38,84.912
129.808,943.304,86.62
114.68,936.716,100.772
145.424,960.384,85.156
112.484,961.116,93.696
110.044,961.604,100.284
145.18,989.176,66.612
113.216,987.712,71.736
127.368,996.496,72.712
131.516,1005.524,53.436
98.332,990.396,65.148
125.416,992.836,52.704
118.34,993.568,50.264
119.316,989.42,49.776
125.172,988.688,43.676
118.096,982.832,45.384
113.704,976.488,50.996
115.9,972.096,52.46
129.808,972.096,50.996
120.292,968.436,58.072
122.488,970.632,54.656
119.072,983.808,54.412
122.488,1008.452,55.876
127.124,1047.736,55.388
133.956,1083.604,54.412
136.396,1111.908,55.876
123.22,1125.816,61.0
96.136,1122.644,62.22
64.416,1107.272,59.536
40.748,1098.244,53.192
45.872,1100.928,34.404
37.088,1099.952,24.644
37.088,1089.948,20.74
48.312,1074.332,24.156
38.552,1042.612,26.596
27.572,995.032,28.792
20.496,940.62,37.82
23.424,894.992,71.98
26.84,854.732,81.496
39.772,842.532,64.66
48.8,824.72,34.16
38.064,807.152,2.44
8.784,800.32,-17.08
0.0,783.24,-48.068
-9.516,788.852,-69.784
-15.86,783.972,-92.232
-31.964,759.328,-123.952
-111.508,675.392,-205.692
-290.36,567.3,-312.808
-216.672,632.204,-231.8
193.98,711.748,-160.796
620.98,681.004,-141.276
988.2,417.24,-230.092
1275.632,288.408,-174.216
1184.376,-211.06,82.96
756.156,-1003.572,200.08
991.372,-1025.776,-160.064
1750.7,139.568,-225.944
1757.044,336.476,298.412
1174.128,65.88,151.768
927.932,-181.536,-158.112
997.472,-348.92,-410.408
1152.656,-345.748,-252.784
1242.936,-281.576,-79.788
1173.152,-198.372,-23.424
1008.696,-165.676,-78.568
1012.6,-153.232,-81.496
1197.064,-140.788,-62.708
1392.264,-124.196,-96.868
1459.852,-138.104,-130.784
1518.168,-120.78,-167.872
1589.416,-102.236,-184.22
1682.624,-77.592,-188.856
1754.36,-82.472,-194.468
1812.92,-90.524,-195.444
1829.268,-123.708,-167.14
1807.796,-163.48,-104.188
1760.948,-222.528,-48.312
1721.176,-290.36,-0.488
1652.612,-348.676,43.432
1450.58,-337.94,79.788
1192.184,-324.52,106.872
908.168,-286.944,88.328
614.636,-253.028,35.38
320.372,-197.396,-21.228
156.404,-94.184,-62.22
93.94,-6.344,-72.712
102.48,65.392,-100.772
153.232,140.056,-132.492
268.644,232.532,-185.928
394.06,313.052,-259.86
508.984,354.532,-364.292
728.584,428.708,-505.568
873.032,533.872,-591.944
928.664,587.796,-554.124
893.772,595.848,-497.516
852.048,612.196,-451.888
671.732,559.004,-348.432
481.656,462.624,-202.52
353.8,357.216,-50.508
231.556,259.372,86.376
108.824,238.632,213.5
82.228,194.224,336.476
84.912,146.156,465.796
131.028,110.044,539.24
287.432,39.284,610.976
474.092,15.372,648.308
675.392,31.72,672.464
851.072,23.18,691.252
920.124,24.888,671.488
1194.868,74.42,558.028
1546.716,60.512,467.016
1775.1,-29.28,377.956
1829.268,-143.472,208.132
1875.628,-179.096,40.504
1903.2,-184.22,-44.408
1828.048,-205.936,-101.016
1794.62,-280.112,-209.352
1747.528,-388.204,-422.364
1575.02,-359.9,-621.712
1218.048,-320.128,-692.716
916.464,-250.344,-832.772
701.256,-91.256,-951.844
629.764,148.84,-874.008
733.952,328.18,-735.172
821.304,396.988,-589.26
850.34,293.776,-493.612
883.524,104.188,-456.524
883.28,-21.96,-404.552
895.968,-46.36,-332.328
949.892,-11.712,-260.836
980.88,23.912,-186.66
987.712,36.6,-144.204
998.204,45.14,-133.224
1021.14,62.22,-118.34
1032.12,95.404,-103.944
1045.54,128.344,-96.624
1062.864,174.948,-98.088
1072.38,179.584,-90.524
1053.836,169.336,-65.88
1036.512,193.004,-53.924
1026.02,256.444,-44.408
969.168,265.96,36.6
951.112,210.328,101.26
1017.968,242.292,126.392
978.196,240.828,126.88
922.076,218.136,146.4
829.6,280.844,190.564
704.916,415.532,218.136
485.56,491.416,229.36
350.384,536.068,183.976
175.192,562.664,180.072
73.2,708.82,223.748
61.488,842.044,202.52
-47.58,860.588,204.472
13.664,887.184,129.564
76.86,909.144,63.684
59.536,976.0,24.888
28.06,1034.316,-16.104
45.628,1054.812,-22.448
134.688,1115.08,-33.916
115.412,1197.552,-11.712
105.164,1270.508,-22.936
143.228,1334.68,-22.204
132.736,1343.22,1.464
155.184,1349.076,20.496
183.244,1313.208,57.828
236.192,1282.464,51.484
158.844,1211.704,99.796
209.596,1155.34,94.916
241.56,1114.348,86.62
147.376,1051.884,126.392
171.776,1020.896,119.804
200.324,1015.772,112.972
139.08,985.028,154.208
181.292,976.244,131.028
207.156,984.784,110.532
182.268,977.464,121.756
184.708,958.188,120.536
241.316,969.9,99.308
204.472,957.212,126.392
193.248,944.524,142.496
247.416,949.648,125.172
220.332,949.648,139.324
213.256,940.132,148.352
246.196,949.892,129.32
237.656,953.308,122.488
189.1,937.692,141.032
200.08,931.836,133.956
197.152,932.568,134.2
193.004,936.472,138.104
217.16,955.992,130.54
206.424,968.436,129.808
179.828,961.604,135.42
169.58,947.94,130.784
172.508,949.16,123.708
180.804,961.116,115.9
199.348,980.392,109.8
197.396,987.468,108.092
194.712,985.76,99.308
173.484,975.024,97.112
177.632,966.484,89.548
174.216,965.752,87.108
174.948,967.704,90.524
202.276,975.512,83.936
184.952,974.536,97.6
188.368,970.144,92.964
178.364,967.216,84.18
164.944,962.58,84.668
194.956,979.172,71.736
193.736,997.716,71.004
177.388,995.764,84.424
192.028,995.52,70.272
162.016,982.344,83.448
165.432,975.756,83.936
178.364,976.0,71.492
176.656,972.584,73.2
191.052,979.66,69.54
182.512,983.32,75.396
172.752,982.344,84.912
184.22,990.396,79.788
161.284,980.88,90.524
181.292,977.708,78.812
171.532,975.756,74.42
180.804,976.732,66.368
183.488,984.296,64.416
165.92,989.664,70.76
170.8,988.2,65.636
167.384,986.736,64.66
164.944,980.392,65.148
161.772,974.292,63.684
155.916,963.556,72.468
175.436,965.996,72.224
168.604,962.824,79.056
165.92,955.992,76.128
168.848,958.432,72.956
157.624,959.652,75.64
153.72,968.192,75.152
164.944,977.708,75.396
173.728,995.764,74.42
180.072,1006.012,66.368
176.168,1005.036,66.124
156.16,999.668,74.664
144.936,1011.868,90.768
124.196,1019.92,110.532
133.224,1034.56,126.636
102.968,1050.42,128.832
94.672,1069.452,120.78
69.784,1069.452,103.212
47.58,1053.104,80.032
33.428,1027.972,59.78
41.968,997.472,36.6
54.656,981.368,0.976
33.428,951.356,-23.18
30.744,921.832,-35.868
-30.988,824.232,-41.236
-293.288,610.976,-72.224
-612.928,578.768,25.132
-559.492,469.944,77.348
107.604,343.064,-40.504
765.672,112.484,-256.2
1084.58,-50.752,-294.02
910.608,-267.912,-9.76
1249.524,-927.688,5.124
809.836,-977.952,-293.288
1817.068,30.012,-149.572
1907.836,288.652,160.064
1280.268,-110.776,250.344
1134.844,-312.808,78.568
1208.288,-535.336,-230.58
1260.748,-521.184,-133.956
1304.424,-384.056,36.6
1148.752,-227.896,138.592
929.396,-192.272,96.868
843.264,-193.004,28.548
931.592,-210.084,5.124
1093.852,-200.812,-8.296
1167.54,-193.736,-6.588
1190.232,-199.836,-1.952
1230.248,-198.128,23.912
1334.436,-187.148,52.46
1471.076,-160.308,34.404
1542.812,-172.508,27.572
1602.592,-210.328,22.936
1620.648,-228.872,7.808
1671.4,-208.864,-5.612
1731.424,-160.064,-15.128
1715.808,-170.8,-18.3
1672.62,-193.98,-42.7
1620.16,-216.672,-30.988
1518.9,-240.828,-10.98
1407.148,-221.552,5.612
1239.764,-226.432,34.16
1021.628,-231.556,56.364
859.368,-209.596,43.432
701.5,-195.444,12.444
529.48,-140.056,11.468
387.716,-87.596,-13.42
310.612,-40.26,-50.508
283.284,-12.444,-128.832
365.756,60.024,-267.668
532.164,176.412,-432.612
689.3,290.116,-563.396
785.68,375.272,-676.368
803.248,444.08,-731.512
764.208,424.804,-705.16
688.08,512.4,-647.576
587.064,500.444,-506.056
559.004,436.516,-377.224
447.008,307.196,-229.604
124.196,159.576,23.912
-139.08,83.204,294.02
16.104,36.6,345.748
181.78,-42.456,562.664
82.472,-30.256,664.168
101.992,2.196,607.804
454.328,-3.904,517.524
782.02,-160.308,473.848
953.308,-328.18,352.336
1105.076,-389.912,139.568
1643.34,-224.724,-169.58
2066.436,-168.848,-243.268
2371.192,-82.228,-453.108
2728.896,75.64,-617.564
2794.532,29.768,-645.136
2334.104,-283.528,-543.632
1737.524,-521.184,-543.144
1335.412,-572.18,-604.876
1158.024,-326.96,-755.668
774.456,21.228,-739.076
16.348,309.148,-576.084
-66.368,534.116,-581.696
344.528,598.288,-556.32
717.116,508.008,-492.392
902.556,366.732,-459.208
1004.792,197.396,-436.516
1055.3,98.576,-375.028
1055.3,50.996,-281.332
1057.252,46.604,-216.916
1032.852,60.024,-167.14
1020.652,79.056,-109.068
1040.172,105.652,-66.612
1061.156,132.248,-47.336
1073.6,142.008,-37.088
1077.992,139.324,-36.356
1090.924,134.444,-57.828
1087.02,138.104,-77.348
1037.0,147.62,-61.244
999.668,155.428,-54.168
993.812,167.872,-54.656
1001.62,170.312,-52.216
997.716,163.236,-41.48
975.512,139.812,-41.236
957.212,128.832,-39.528
960.628,136.396,-25.376
959.408,149.084,-2.44
972.096,183.976,5.124
964.288,210.816,4.636
960.384,229.848,2.684
897.188,245.464,-5.124
863.272,237.168,12.932
911.828,297.924,-2.684
974.292,349.164,-73.688
874.984,346.48,-50.02
795.44,368.196,21.228
806.664,454.816,70.516
818.62,538.508,58.804
773.724,530.944,47.824
726.632,547.048,87.352
596.58,579.988,95.892
441.884,603.656,47.092
320.86,664.656,-10.004
292.8,720.288,-54.412
383.812,852.048,-42.456
416.02,960.14,6.588
350.14,1017.968,57.584
289.14,1032.608,91.744
242.78,968.924,36.6
203.008,956.968,-28.304
185.44,1000.888,-32.696
213.256,1062.62,-18.544
198.128,1088.24,33.672
190.32,1079.944,26.596
147.376,1126.06,-6.588
134.444,1241.96,-51.484
173.972,1295.396,-101.504
120.292,1293.2,-106.628
72.956,1264.652,-108.336
46.604,1237.812,-102.968
34.648,1202.676,-75.396
66.612,1169.248,-82.716
61.244,1121.912,-114.192
71.004,1086.288,-140.788
106.872,1067.012,-142.74
124.928,1049.2,-124.684
111.996,1022.116,-96.624
127.856,993.08,-85.4
160.308,986.492,-91.5
158.844,981.368,-90.768
163.236,974.536,-94.428
174.948,970.876,-95.16
171.044,969.656,-81.74
165.188,965.264,-69.296
161.528,957.212,-64.416
169.336,956.236,-64.416
177.876,965.02,-65.88
187.148,974.048,-72.956
158.356,970.876,-64.416
151.524,959.652,-53.68
139.568,955.748,-39.528
133.956,947.208,-31.232
172.508,972.828,-60.512
115.656,971.608,-41.48
153.232,984.54,-51.728
136.396,989.908,-40.992
103.944,970.876,-19.52
159.088,989.664,-39.04
122.488,978.928,-25.376
136.152,963.8,-23.18
201.788,991.86,-54.168
129.076,978.684,-21.96
167.872,986.98,-26.352
142.008,990.64,-13.176
111.752,973.072,6.344
141.276,973.804,-3.172
124.44,964.288,-4.148
146.4,969.9,-14.64
143.228,980.88,-12.932
134.2,985.516,-8.784
119.072,977.708,2.928
119.072,975.268,4.148
115.412,970.876,5.368
145.18,983.32,-9.272
134.444,991.616,-8.784
134.2,993.324,-4.148
127.368,995.52,0.732
114.924,981.368,6.832
121.756,974.292,6.1
126.88,975.024,-3.416
128.344,979.904,-6.1
137.86,986.248,-3.904
134.2,990.396,-2.44
131.516,992.592,0.488
136.64,991.128,1.22
143.96,990.64,-0.732
135.664,988.444,4.636
132.736,982.1,7.32
137.372,981.124,4.392
130.784,977.22,6.832
135.42,980.88,1.952
137.616,989.908,-0.732
148.84,997.716,-7.076
151.524,1001.132,-8.54
148.84,996.008,-7.32
152.012,992.592,-10.004
146.644,985.76,-11.956
147.132,986.736,-13.908
145.18,987.468,-14.884
142.984,985.272,-14.152
145.424,983.32,-12.444
143.716,983.32,-10.492
141.032,981.124,-12.2
136.64,980.392,-11.224
119.804,980.392,-8.052
126.148,985.028,-10.492
124.44,993.324,-7.076
119.804,994.056,-6.1
110.288,987.712,-5.368
100.284,977.464,-4.88
78.324,958.92,9.516
54.412,914.024,44.652
-88.084,838.872,78.568
-278.648,750.056,31.232
-153.964,640.988,19.276
40.504,479.704,-9.028
327.448,333.06,-126.88
657.58,168.604,-203.496
1074.82,-37.82,-233.264
1505.968,67.344,-230.824
1534.028,32.208,-227.896
1296.372,-376.492,42.944
1170.224,-436.028,-75.396
1272.216,-214.72,-95.648
1333.46,-67.1,241.804
1389.58,-123.22,119.072
1305.156,-324.032,-41.724
1206.092,-404.308,-84.668
1116.3,-339.16,-8.784
1000.4,-247.904,31.72
920.612,-177.144,12.932
891.576,-152.256,-9.028
956.48,-162.992,-2.928
1020.896,-207.156,12.688
1060.424,-238.144,20.008
1114.836,-234.484,29.768
1206.824,-193.004,42.7
1322.48,-149.816,40.504
1417.64,-135.908,31.72
1504.016,-107.848,25.376
1560.38,-81.252,26.108
1595.272,-72.468,45.14
1689.7,-67.832,9.028
1793.644,-46.116,-37.576
1811.944,-20.252,-30.012
1759.24,-39.04,-14.396
1643.34,-78.812,-31.476
1593.808,-26.84,-62.464
1652.124,82.472,-53.924
1689.212,20.74,-7.32
1591.612,-102.724,45.628
1353.956,-218.136,51.972
1033.096,-305.488,18.3
699.792,-323.056,-17.324
472.872,-261.812,-90.036
329.156,-201.056,-98.332
233.02,-171.044,-89.06
154.208,-128.588,-159.088
142.984,-78.568,-289.384
328.912,91.5,-444.324
577.06,411.14,-625.128
580.72,575.84,-572.18
529.236,569.496,-541.68
441.396,636.108,-598.044
227.652,542.9,-664.656
128.832,510.692,-549.244
-57.096,331.108,-501.176
-188.124,273.768,-315.98
-134.2,343.796,-26.352
-22.448,123.464,-132.004
149.572,122.732,-64.904
179.584,79.788,-24.644
515.572,-14.152,-164.944
1111.664,-167.872,-351.36
1633.58,-233.996,-415.288
1575.02,-230.092,-524.844
1346.636,-209.108,-853.512
1543.056,142.984,-1198.04
1795.84,337.696,-1243.18
1746.064,264.984,-1141.92
1576.24,115.9,-1074.088
1667.008,-26.596,-1117.276
1616.256,-264.252,-938.668
1379.576,-461.16,-884.012
1163.392,-507.52,-1023.092
974.536,-431.88,-1135.576
739.564,-338.428,-1109.956
504.836,-203.496,-1058.228
386.252,39.772,-1082.628
296.704,258.396,-910.12
321.592,338.916,-756.156
402.6,320.372,-725.412
465.552,246.44,-660.02
582.428,187.392,-611.952
715.164,163.968,-589.504
754.448,169.092,-526.796
778.36,186.172,-493.368
831.552,203.74,-447.74
861.32,242.048,-420.412
863.516,271.084,-399.916
860.1,299.388,-350.628
892.308,322.324,-277.184
930.372,337.696,-238.388
925.736,325.496,-241.316
905.728,301.096,-192.272
893.04,301.096,-138.348
901.58,321.592,-74.908
845.216,422.608,-39.04
771.284,429.684,-49.776
852.536,419.924,-26.352
988.932,468.968,3.172
888.404,537.776,18.056
571.692,640.256,66.124
236.436,744.2,102.48
95.404,776.896,116.632
91.5,768.356,100.772
123.464,769.088,69.784
147.132,780.556,36.6
-63.196,711.26,53.192
-202.032,687.592,78.812
-58.316,702.476,-23.18
28.548,820.084,-90.768
-47.58,909.632,-33.916
-31.72,999.424,-21.472
97.356,1181.204,-97.356
272.06,1497.672,-117.12
422.364,1781.2,-75.884
462.624,1865.136,-66.124
425.292,1793.644,-44.652
379.664,1652.612,14.64
323.3,1450.58,66.612
209.108,1235.86,120.292
143.228,1058.96,162.992
140.788,950.868,168.116
103.944,881.572,155.672
93.94,859.124,126.636
54.168,844.484,142.984
173.972,894.992,95.892
166.164,959.652,108.58
143.228,984.052,132.492
201.3,993.08,111.752
184.708,985.516,120.292
168.116,954.04,124.196
241.56,960.628,103.944
294.508,994.544,91.988
213.744,978.684,116.388
201.056,944.28,116.388
211.548,932.568,120.292
253.516,960.872,102.968
200.568,965.264,105.408
220.088,964.288,81.74
215.94,966.24,86.132
180.072,948.184,98.332
203.984,949.892,76.86
185.928,964.532,83.204
178.12,966.484,92.964
182.756,957.7,93.208
190.076,947.94,85.4
207.4,948.672,73.2
216.428,964.044,61.244
214.72,980.148,71.736
219.844,995.764,78.08
218.136,1000.4,73.444
194.224,998.204,63.44
184.464,993.812,50.996
181.292,984.784,40.016
167.872,968.924,35.624
185.684,976.732,18.3
177.144,980.636,24.644
167.14,981.856,26.352
166.896,968.68,26.352
166.164,955.748,32.696
193.492,960.628,29.524
203.252,975.512,29.524
218.624,987.956,27.572
218.624,993.812,32.208
203.74,993.324,44.408
200.08,983.076,49.532
192.028,975.024,52.46
191.784,964.532,54.9
204.228,961.848,49.288
199.836,959.652,52.216
197.396,961.116,54.412
190.32,962.336,57.584
184.708,969.412,63.684
191.052,981.124,59.78
184.464,984.052,61.732
189.1,987.224,55.388
170.556,992.836,58.072
163.724,1004.792,55.144
160.308,1023.336,47.336
169.336,1032.364,40.016
185.928,1037.0,25.132
188.368,1032.12,17.568
174.948,1019.432,12.688
171.044,1013.088,7.564
152.012,991.616,7.808
142.74,970.388,-1.464
120.78,949.404,-3.66
110.776,924.028,-3.416
84.18,885.72,3.172
24.156,825.452,20.74
-47.336,716.872,48.8
-109.312,620.248,46.116
-227.896,656.848,7.32
-267.424,668.316,13.176
331.108,530.7,-74.176
839.848,381.86,-161.284
967.704,137.128,-233.02
1228.54,-55.632,-224.236
1566.48,84.668,-168.116
1277.828,-269.132,-57.584
1081.408,-679.052,333.06
1034.316,-424.072,135.664
1170.224,-197.152,-78.324
1425.448,28.792,153.72
1470.832,15.372,209.352
1380.308,-128.344,57.096
1194.868,-229.36,-12.444
1017.724,-271.572,-56.12
901.824,-243.268,-12.932
875.228,-153.476,67.588
1001.376,-73.688,79.544
1155.584,-36.6,37.576
1273.192,-30.744,8.296
1369.328,-30.5,-79.544
1379.82,-28.304,-156.648
1385.92,30.012,-193.004
1498.404,78.324,-192.76
1604.544,75.64,-229.604
1690.676,38.796,-304.512
1737.524,37.576,-385.276
1786.568,21.96,-450.424
1753.14,8.296,-446.032
1601.372,4.636,-416.02
1462.048,1.464,-374.784
1375.428,-32.696,-342.088
1284.416,-64.904,-305.732
1162.904,-100.04,-253.76
1036.512,-137.86,-217.16
889.136,-141.764,-173.24
722.728,-142.74,-134.688
570.228,-123.22,-120.536
465.552,-94.672,-149.816
397.964,-49.044,-203.496
416.752,47.336,-328.18
336.964,194.956,-471.896
160.308,403.088,-551.928
45.628,562.664,-558.516
132.248,639.036,-598.532
124.44,684.176,-556.32
28.06,531.432,-609.268
-14.396,476.044,-506.3
-2.928,491.904,-373.808
-164.456,422.608,-252.296
-500.932,322.08,-131.516
-583.892,233.02,-15.128
-207.4,200.812,91.256
55.632,184.464,193.248
209.108,144.204,181.048
351.848,11.224,150.548
544.364,-186.904,31.72
810.568,-445.544,-210.084
1124.352,-587.308,-421.632
1750.944,-498.98,-746.152
2157.692,-354.044,-899.14
2225.036,-282.308,-967.216
2311.9,-43.188,-1152.412
2180.628,58.804,-1153.876
1829.024,-70.516,-972.096
1612.108,-250.1,-920.368
1526.22,-354.044,-978.928
1331.264,-509.716,-965.508
1071.648,-530.456,-1061.644
769.576,-456.28,-1136.796
189.832,-222.772,-1079.456
-8.784,79.056,-974.048
205.448,247.904,-909.144
369.66,254.492,-778.116
487.756,174.948,-673.44
598.532,73.688,-603.168
734.196,-10.004,-571.204
839.36,-49.288,-550.464
901.824,-40.26,-519.476
933.3,-1.464,-480.924
936.228,44.164,-460.916
935.252,69.052,-419.192
936.716,95.892,-391.376
937.448,129.32,-370.392
942.572,144.692,-323.788
930.616,174.704,-295.972
919.392,208.864,-273.036
946.964,195.688,-255.712
945.988,157.38,-218.136
907.924,132.98,-169.336
891.088,189.832,-158.356
865.468,244.976,-163.236
948.428,315.98,-151.768
988.932,346.968,-66.368
886.452,311.832,8.54
722.728,294.996,95.16
549.732,399.184,165.432
882.792,558.516,154.208
1157.292,531.432,-60.512
599.264,251.808,-133.712
298.168,578.768,70.028
321.592,823.5,205.692
339.404,904.996,263.52
306.464,999.18,117.12
110.776,988.688,37.088
51.728,1201.212,19.52
3.904,1233.664,85.4
38.308,1266.604,58.804
142.252,1344.684,-39.772
207.888,1397.388,-30.744
249.856,1416.908,-24.888
199.348,1362.008,-10.004
164.212,1271.484,-7.076
130.052,1189.012,-18.056
99.064,1131.428,-30.256
121.756,1117.276,-35.868
161.528,1115.568,3.904
220.82,1137.284,39.284
231.556,1141.676,72.468
