acc_x[mg],acc_y[mg],acc_z[mg]
-107.848,976.488,37.088
-103.212,984.296,41.236
-103.212,991.372,40.748
-110.044,987.224,41.236
-110.288,977.22,42.212
-117.852,972.828,44.652
-113.704,984.54,34.892
-119.804,986.492,45.384
-125.66,978.196,41.236
-112.728,979.66,33.672
-110.532,975.268,26.352
-108.092,981.124,29.036
-111.752,972.096,32.696
-109.068,973.072,39.284
-111.264,973.316,40.016
-110.776,975.024,44.164
-113.46,976.244,48.556
-116.632,971.12,51.972
-88.572,969.168,19.276
-97.6,989.908,36.6
-95.16,991.86,37.088
-108.824,989.664,38.796
-116.388,981.368,58.316
-125.172,964.532,60.512
-103.456,968.436,31.476
-94.916,979.172,39.528
-100.284,976.244,24.644
-105.896,986.98,24.4
-66.124,1004.548,8.052
-79.544,1009.184,20.496
-69.052,999.668,18.788
-94.184,996.74,37.088
-100.772,983.564,44.164
-101.992,972.828,42.212
-93.208,970.144,26.108
-101.992,981.124,33.916
-89.792,985.516,23.668
-115.656,981.856,39.04
-85.888,971.364,20.496
-107.604,972.34,25.132
-116.876,970.388,42.212
-99.064,976.244,27.572
-82.96,980.88,21.228
-92.476,981.124,44.652
-93.94,978.684,30.744
-82.96,990.64,21.228
-90.524,999.668,29.28
-80.032,996.74,15.372
-79.056,1000.888,23.18
-88.084,989.908,30.012
-90.524,982.588,32.94
-88.816,979.66,38.064
-91.744,980.636,33.672
-94.428,993.08,31.232
-86.132,988.444,26.84
-101.992,982.344,29.036
-85.156,958.92,29.28
-101.992,965.508,42.944
-93.208,974.78,51.728
-97.356,982.832,49.288
-93.696,985.028,41.968
-77.104,986.492,28.06
-80.032,987.224,23.912
-76.128,993.568,34.892
-88.816,986.736,39.772
-81.496,982.1,30.256
-71.98,988.444,31.232
-84.912,990.396,25.864
-82.716,989.908,31.964
-93.696,984.296,31.476
-93.452,980.392,33.184
-79.056,987.956,14.396
-82.472,990.152,27.084
-74.908,985.76,23.668
-89.792,982.1,42.7
-69.296,979.904,23.424
-73.688,985.272,29.036
-87.84,984.54,35.624
-86.132,979.416,34.16
-81.496,975.268,25.132
-97.356,977.708,54.168
-84.668,975.268,36.356
-70.272,975.756,15.616
-90.524,981.612,33.428
-74.908,991.128,17.08
-57.828,1011.38,-2.44
-84.424,1015.284,34.648
-81.008,981.612,30.012
-63.928,972.096,17.568
-82.228,979.416,50.508
-95.648,979.66,47.824
-104.188,986.736,53.436
-49.044,980.88,15.616
-71.736,985.272,18.544
-43.676,999.424,-9.028
-70.272,1008.208,20.008
-91.012,994.056,33.184
-92.72,972.584,48.556
-80.52,961.36,41.236
-78.324,972.828,36.112
-67.832,990.152,39.04
-89.304,991.86,39.284
-89.792,983.808,37.82
-78.812,980.392,34.16
-75.884,984.052,28.304
-70.76,991.128,30.988
-78.568,990.884,38.064
-81.496,983.32,32.452
-85.156,980.88,38.552
-70.272,979.904,32.452
-77.348,985.516,35.38
-84.912,981.124,41.236
-75.884,980.148,31.476
-86.132,981.368,39.528
-65.636,988.444,27.816
-79.056,990.64,39.772
-71.004,979.172,35.136
-69.296,981.612,25.864
-73.688,988.444,36.6
-93.696,980.88,46.116
-80.764,977.22,38.552
-82.472,976.488,45.14
-72.468,971.852,40.992
-45.872,986.004,0.976
-56.12,1012.844,23.668
-52.46,1018.7,20.74
-68.808,1005.036,24.4
-67.344,982.1,26.596
-69.052,974.292,31.964
-71.736,981.124,34.892
-74.176,991.372,30.744
-72.712,988.688,20.984
-82.716,987.468,28.792
-73.688,980.88,27.328
-65.88,979.904,14.64
-75.152,981.612,43.188
-96.624,969.656,54.412
-73.932,962.092,40.992
-68.32,970.876,36.6
-72.468,976.976,47.092
-54.168,995.032,9.028
-60.268,1012.844,17.812
-61.488,1001.376,15.128
-70.272,988.444,27.572
-70.516,977.952,35.38
-59.292,981.612,30.012
-48.068,995.276,14.396
-59.292,1004.06,18.544
-86.132,997.228,30.5
-75.64,980.392,29.768
-72.224,969.9,30.012
-71.98,969.412,38.064
-73.932,978.684,37.088
-85.644,983.076,37.088
-77.104,982.588,36.112
-64.66,979.66,25.864
-65.392,986.248,19.52
-58.316,994.3,31.232
-66.368,990.884,31.72
-57.584,986.98,33.184
-64.904,986.492,41.236
-73.932,987.712,34.404
-53.68,983.564,17.812
-67.832,990.396,27.572
-70.272,992.836,30.744
-81.74,994.056,36.356
-78.812,986.492,37.82
-63.196,987.468,29.036
-54.412,983.32,20.496
-65.636,983.076,29.28
-57.828,986.98,16.104
-92.964,1000.644,44.164
-106.14,1022.116,57.34
-152.5,1071.404,77.836
-172.02,1094.828,70.028
-222.772,1109.956,69.296
-335.988,1116.544,92.964
-242.292,1093.608,23.18
-224.48,1061.156,-29.768
-315.492,1065.792,-42.212
-197.64,1034.316,-61.244
-323.3,971.608,-3.172
-581.696,899.872,78.812
-306.708,785.68,53.436
-519.964,663.924,126.392
-60.024,569.252,86.376
-115.168,432.124,41.724
27.084,366.976,127.368
329.644,348.432,209.84
169.336,177.876,221.308
76.86,75.64,225.456
94.672,40.26,29.524
311.1,77.592,-84.424
182.024,-46.36,125.66
612.196,-238.388,64.904
560.956,-529.236,102.724
443.836,-551.196,373.076
592.432,-606.828,324.276
679.052,-614.148,240.828
1470.1,-677.1,71.492
1719.712,-728.584,126.148
1717.76,-803.492,420.168
1533.54,-883.036,602.192
1776.32,-872.3,500.932
1940.776,-742.98,344.04
2004.704,-609.024,227.164
1731.424,-525.332,310.124
1595.028,-471.164,284.504
1523.536,-410.408,277.428
1419.592,-349.164,216.428
1352.98,-305.488,140.788
1264.408,-296.46,148.108
1263.188,-295.484,109.8
1279.78,-326.472,133.224
1270.264,-344.528,145.18
1352.004,-299.632,146.888
1434.964,-307.684,165.92
1441.796,-322.08,234.484
1565.748,-345.26,232.532
1554.28,-374.54,255.712
1547.936,-400.892,263.032
1637.484,-426.268,281.088
1629.676,-454.572,332.572
1732.888,-478.728,298.168
1710.196,-528.016,282.796
1635.532,-524.112,299.144
1620.648,-532.408,295.972
1511.824,-573.4,357.46
1519.144,-578.036,393.816
1493.036,-614.148,287.676
1364.448,-595.848,242.78
1259.528,-559.736,199.348
1214.144,-524.844,202.764
1066.036,-544.852,245.22
990.152,-554.612,248.636
884.988,-581.94,278.892
867.42,-578.768,202.276
691.984,-608.048,250.344
527.528,-607.56,276.452
372.1,-543.876,260.836
223.26,-407.968,223.748
-7.808,-295.728,244.732
53.924,-170.556,211.304
190.564,-104.432,98.088
289.628,-42.212,-19.764
462.136,72.224,-74.908
567.3,89.06,-191.296
688.324,80.276,-309.148
955.992,87.84,-448.228
1134.6,63.684,-592.432
1127.28,31.476,-713.212
1152.656,44.164,-821.792
1069.696,87.596,-853.268
933.056,149.816,-929.884
737.368,197.64,-904.264
612.928,227.408,-893.04
483.852,222.772,-804.712
289.872,210.816,-747.372
201.3,238.632,-666.12
133.224,228.14,-543.388
6.344,170.312,-377.224
12.932,149.328,-256.444
57.584,92.232,-126.88
27.572,55.388,84.18
-21.472,13.908,309.148
-42.212,-83.204,439.444
79.544,-96.624,465.796
169.58,-71.248,490.684
384.544,-101.016,459.696
534.116,-201.544,573.156
752.74,-221.552,715.408
865.468,-275.964,853.024
1052.128,-442.86,879.132
1239.52,-505.812,925.492
1367.376,-497.028,873.52
1354.444,-493.368,862.052
1362.496,-502.396,908.9
1377.136,-537.776,871.812
1455.46,-459.94,840.824
1590.392,-496.052,612.196
1644.56,-553.88,525.088
1769.488,-544.12,387.472
1661.396,-505.568,418.46
1461.072,-558.028,444.812
1592.588,-537.288,328.668
1627.48,-531.432,135.176
1564.284,-510.448,-47.092
1449.604,-434.564,-99.308
1426.18,-411.872,-202.276
1384.212,-383.324,-270.84
1298.568,-342.332,-345.992
1261.48,-338.184,-386.252
1278.072,-316.956,-403.088
1187.548,-316.712,-325.008
1181.936,-360.388,-206.668
1229.272,-451.888,-23.668
1276.12,-603.9,-3.66
1559.16,-582.428,31.72
1690.432,-569.984,96.136
1680.184,-646.112,134.2
1522.804,-602.924,108.58
1447.164,-504.836,91.744
1165.1,-422.12,207.4
961.116,-262.056,156.648
1043.832,-117.364,-23.18
1135.088,-65.148,-101.992
942.328,34.16,33.916
653.676,64.66,241.072
246.196,239.608,209.84
37.332,432.124,156.16
47.824,720.288,125.416
370.88,824.232,15.86
368.196,774.456,-113.704
229.848,797.392,-42.7
110.044,822.768,-76.616
-3.416,833.016,9.272
235.704,780.312,-157.624
86.132,865.224,-66.368
-39.284,895.48,98.088
29.036,842.532,-43.92
-102.48,864.492,-30.256
-183.0,920.612,74.664
-118.584,905.24,9.76
-180.804,859.612,127.856
-236.68,791.048,116.144
-249.856,781.776,83.448
-261.08,787.632,89.548
-326.716,814.96,92.72
-388.448,876.692,132.492
-282.796,915.244,134.688
-190.32,936.228,88.572
-82.716,1007.232,0.976
-115.412,1042.856,31.964
-245.708,1028.704,114.192
-316.712,1007.232,161.284
-355.264,996.252,205.936
-398.94,1000.888,254.98
-322.568,1005.524,225.944
-229.848,1002.84,164.212
-204.716,1003.816,132.248
-203.984,997.472,117.608
-237.656,1021.628,116.144
-209.596,1016.992,95.16
-216.184,1060.668,108.824
-195.444,1077.504,73.688
-223.504,1077.748,53.436
-142.984,1081.652,40.992
-117.364,1073.112,10.248
-111.752,1076.772,-31.476
-92.476,1087.02,-28.06
-90.768,1069.452,-22.936
-99.796,1054.568,-12.932
-90.036,1038.952,-6.588
-84.668,1029.68,-3.172
-75.64,1011.38,-10.004
-88.572,999.668,55.632
-72.224,968.924,99.064
-78.812,955.016,115.9
-58.316,965.02,94.184
-47.824,968.192,65.88
-44.652,970.876,25.376
-57.828,983.808,45.384
-40.504,987.468,29.036
-40.992,989.908,46.36
-39.284,989.42,44.408
-41.724,992.592,50.996
-31.476,1001.376,31.476
-29.036,1012.356,31.72
-30.988,1018.944,35.136
-36.6,1007.72,32.208
-27.816,991.372,44.652
-20.984,989.664,53.68
-54.656,986.004,48.312
-45.14,990.152,52.704
-37.576,976.976,44.408
-53.436,969.168,47.58
-47.58,973.072,62.464
-71.248,966.972,57.096
-84.424,972.096,75.64
-29.524,977.22,19.032
-34.16,978.196,33.916
-81.008,968.192,77.104
-85.4,972.584,78.812
-32.452,980.392,23.424
-40.992,993.08,36.356
-43.676,985.272,13.908
-24.888,988.2,28.304
-30.744,996.008,62.464
-25.376,999.18,66.368
-13.176,1003.816,57.34
-5.856,998.936,40.26
4.148,994.544,29.28
-31.476,1000.888,47.824
-45.872,1010.648,40.016
-80.032,1003.084,54.168
-54.9,983.564,16.836
-64.416,963.8,40.748
-51.484,956.724,46.604
-52.948,963.8,48.8
-40.26,977.464,61.244
-35.624,1005.524,39.04
-34.16,1011.38,42.212
-31.476,1009.428,37.82
-23.668,991.128,43.188
-46.848,981.856,50.02
-35.38,973.804,73.688
-46.848,966.484,62.22
-47.336,977.708,67.344
-58.804,981.856,88.816
-70.76,988.932,52.216
-47.58,1011.868,30.256
-26.84,1010.404,11.712
-18.056,996.252,-25.132
-28.06,1012.844,28.304
-45.872,996.496,59.536
-57.584,999.18,70.028
-45.872,1002.352,59.78
-63.684,1010.892,54.656
-102.236,1035.78,62.22
-142.252,1077.504,84.18
-157.38,1089.46,79.056
-230.336,1091.412,23.18
-304.512,1193.404,71.248
-353.068,1206.58,124.196
-420.656,1183.644,166.164
-409.432,1146.556,168.36
-375.516,1081.896,72.468
-283.04,1044.808,-6.588
-367.708,929.152,76.616
-27.328,787.144,119.072
163.236,710.284,155.672
168.36,646.844,254.98
157.624,644.404,334.768
-140.788,554.612,371.856
529.968,546.56,141.52
976.244,535.824,-260.592
535.58,556.076,-113.216
385.276,433.588,221.308
328.912,149.328,245.22
556.564,13.908,87.108
741.76,4.88,-168.36
439.688,33.428,31.476
300.12,-339.16,292.8
762.012,-512.644,172.996
931.348,-555.588,179.34
1051.152,-721.996,16.836
1140.7,-691.496,52.216
1228.54,-771.528,243.512
1315.16,-845.948,240.096
1443.016,-774.456,240.584
1406.66,-730.048,285.968
1440.088,-698.084,306.708
1423.74,-578.768,235.216
1273.436,-414.312,115.9
1234.396,-308.416,91.988
1252.452,-281.576,126.148
1285.148,-300.608,98.088
1254.404,-290.604,120.78
1185.352,-267.18,133.224
1100.196,-249.856,148.108
1080.432,-220.088,132.736
1095.316,-196.42,88.572
1153.632,-195.444,73.688
1148.508,-214.232,56.12
1169.98,-223.504,108.092
1136.552,-259.372,131.516
1083.604,-263.764,143.716
1122.156,-252.052,140.3
1138.748,-271.328,162.016
1293.2,-270.108,136.64
1344.928,-281.82,158.112
1443.748,-262.788,146.4
1550.864,-243.512,97.356
1597.712,-254.004,122.976
1679.208,-276.452,144.692
1697.752,-321.836,187.148
1763.388,-325.74,132.004
1780.956,-322.568,100.528
1677.012,-305.732,121.024
1652.368,-318.908,124.44
1628.7,-361.12,54.9
1462.78,-376.736,133.956
1372.256,-407.968,165.432
1234.152,-429.44,119.56
1133.38,-388.448,43.676
1074.82,-345.992,51.24
850.096,-394.548,76.128
682.712,-277.428,58.56
446.764,-203.496,64.416
390.888,-190.564,40.504
477.508,-181.78,6.588
504.348,-117.852,-64.904
406.992,-88.816,19.764
377.956,-42.212,15.128
416.996,-51.484,47.58
574.62,-57.096,-9.516
598.288,-26.596,-30.5
514.108,80.276,-132.492
649.528,140.056,-281.576
829.844,146.4,-481.168
1087.752,100.772,-583.16
1110.688,37.088,-604.632
1064.816,53.68,-660.508
1017.48,138.592,-765.428
1084.336,163.968,-868.396
1117.032,127.856,-940.62
906.46,73.688,-867.176
820.572,92.476,-778.604
694.18,65.148,-721.264
601.704,60.024,-633.912
369.66,43.676,-497.516
213.256,69.54,-395.768
137.372,101.992,-267.668
141.276,48.8,-135.908
105.652,-3.904,-1.464
-25.132,-21.96,135.664
-53.192,45.872,255.712
-7.32,22.204,329.156
157.868,-39.528,457.988
401.868,-72.468,612.928
562.176,-225.456,833.26
893.284,-286.7,931.348
873.032,-246.928,1028.948
880.596,-238.144,972.828
921.1,-286.456,834.236
946.232,-278.892,773.48
1109.712,-238.144,723.704
1194.136,-308.66,738.832
1282.952,-423.096,690.032
1414.956,-481.9,534.36
1532.808,-478.972,441.64
1401.536,-449.692,514.108
1446.188,-466.528,436.76
1553.304,-552.416,380.396
1621.38,-568.764,340.136
1719.956,-593.896,204.96
1625.04,-595.36,168.848
1603.324,-604.632,61.732
1533.052,-645.136,-45.384
1577.704,-590.724,-145.424
1460.828,-524.112,-156.404
1386.408,-509.96,-160.796
1307.596,-514.108,-251.564
1303.692,-431.88,-336.232
1261.968,-323.3,-436.272
1154.608,-271.084,-442.616
1164.612,-200.324,-468.236
1098.0,-178.852,-445.544
1038.952,-173.24,-389.668
1020.164,-180.316,-324.276
967.704,-174.216,-229.604
943.06,-179.096,-198.372
963.556,-199.104,-169.824
932.812,-208.62,-139.08
911.828,-207.888,-95.16
916.708,-214.232,-59.78
918.904,-220.088,-11.712
986.492,-244.488,15.128
967.704,-273.768,94.916
959.896,-303.292,129.564
1020.652,-310.612,132.736
1004.792,-280.6,117.12
1025.288,-236.68,108.336
1102.88,-250.344,148.84
1113.86,-328.424,202.032
1092.632,-373.076,207.644
1233.42,-364.048,148.84
1282.952,-378.688,184.952
1439.112,-401.624,150.06
1496.696,-449.936,169.824
1354.444,-491.172,258.396
1373.964,-515.328,170.068
1274.656,-452.864,183.0
1277.34,-310.124,201.788
1294.176,-260.348,106.384
1405.684,-217.648,-7.076
1208.044,-165.432,98.088
1060.424,-103.944,122.976
967.704,46.848,38.064
925.248,157.868,-52.46
818.132,307.684,-10.248
752.984,408.7,-17.08
514.596,494.344,131.516
274.744,535.092,120.536
250.832,585.6,28.548
93.696,681.248,46.36
-68.32,804.224,172.752
-89.548,826.672,173.728
-126.636,837.896,197.396
-96.136,858.392,186.904
-113.948,850.34,111.752
-111.264,848.632,31.232
-235.46,933.3,114.924
-294.02,945.256,105.164
-139.812,981.856,49.044
-115.168,1029.924,126.88
-213.012,1026.02,147.864
-332.328,1059.692,213.256
-297.436,1083.36,254.004
-233.264,1026.508,195.2
-193.248,1003.816,168.116
-244.488,986.004,226.188
-275.72,919.88,222.04
-256.688,874.74,162.504
-313.54,892.796,221.064
-247.904,922.564,68.564
-274.256,968.68,52.216
-161.284,1012.844,-50.752
-213.256,1055.544,16.836
-163.236,1039.44,43.92
-150.06,1007.72,63.44
-109.8,989.176,60.024
-97.356,1002.108,36.6
-78.08,1022.604,93.696
-41.236,995.276,140.788
-10.248,946.964,190.32
6.1,916.464,236.192
7.564,910.12,227.164
0.488,928.664,217.16
23.912,962.58,142.252
-47.336,994.3,147.132
-61.0,986.248,122.732
-72.956,969.168,97.112
-105.408,965.264,125.904
-49.532,959.896,54.9
-90.768,963.556,66.612
-89.792,972.828,76.128
-69.784,988.444,40.016
-55.388,1007.476,60.756
-56.364,1000.888,96.868
-26.84,976.976,83.692
-64.172,974.048,148.352
-30.256,981.612,135.908
-8.54,979.172,85.644
-50.752,988.688,119.804
-31.964,1002.596,101.748
-18.3,999.18,60.024
-74.42,990.884,102.968
-53.192,998.448,77.348
-21.228,1005.28,21.228
-65.392,1008.696,77.592
-97.356,997.96,77.592
-17.812,995.276,48.8
-10.98,988.932,60.756
-4.148,994.056,61.0
10.736,1011.624,55.876
4.392,1006.012,101.992
-46.116,984.54,164.7
-30.256,965.752,166.408
-3.172,952.088,129.076
-14.64,958.432,120.048
-21.228,967.948,96.624
-44.896,967.948,112.972
-35.868,970.144,82.716
-67.1,975.756,115.656
-86.62,973.804,119.56
-8.54,977.22,72.712
-8.052,993.08,63.684
-19.52,1002.84,62.464
-58.316,992.592,72.224
-18.788,984.052,40.992
-22.204,1017.968,56.12
-2.928,1029.924,56.608
12.932,1031.144,34.648
-2.196,1022.604,73.688
-31.476,995.764,118.34
-8.052,982.344,114.68
0.488,990.884,120.292
-7.564,1004.304,103.212
-23.424,1005.28,95.648
-45.872,995.764,100.04
-47.336,988.2,98.576
-77.348,974.292,119.56
-20.008,957.944,81.984
-40.26,954.284,86.864
-69.296,950.624,123.952
-101.26,951.356,139.568
-22.936,961.604,98.82
-28.548,983.32,109.068
-41.48,991.128,104.432
-78.812,983.564,117.364
-43.432,972.584,91.256
-34.892,971.608,65.148
-25.864,980.636,53.436
-38.552,995.032,39.04
-58.316,997.472,73.444
-73.932,993.08,102.48
-74.42,979.416,110.532
-45.14,969.168,82.228
-42.944,972.584,77.836
-42.456,983.808,73.932
-66.124,981.124,87.84
-99.064,963.8,122.976
-69.54,958.188,93.696
-77.104,958.676,108.092
-84.424,960.384,117.608
-71.492,971.852,107.848
-77.104,972.584,125.416
-41.968,981.612,106.872
-10.004,997.96,71.736
-39.772,1006.012,90.524
-58.804,1002.84,88.572
-40.504,996.496,64.904
-74.176,994.056,96.38
-100.04,977.22,98.576
-91.988,971.608,93.452
-55.632,967.704,76.86
-32.452,974.292,67.588
-12.932,998.692,59.048
-16.104,1012.356,85.644
-33.428,1007.72,110.776
-51.484,997.228,124.196
-38.308,981.368,105.408
-27.816,971.608,66.124
-37.332,990.396,69.296
-64.172,996.74,81.496
-71.736,993.568,87.84
-91.744,1010.16,108.824
-113.46,1060.912,119.804
-104.676,1129.232,138.592
-89.548,1202.92,173.728
-64.172,1246.84,176.9
-149.084,1308.328,202.52
-216.184,1356.396,268.4
-286.212,1350.296,303.536
-281.088,1298.812,287.432
-217.648,1241.472,228.872
-143.228,1160.464,129.808
-222.528,1174.372,116.632
-372.588,1177.056,157.38
-395.524,1145.336,151.036
-290.116,1071.16,111.752
-223.016,1035.048,103.7
-133.956,1037.976,192.028
-165.432,942.572,176.412
-104.676,971.12,156.16
-167.14,922.808,202.52
-208.376,928.42,282.796
73.932,897.676,195.2
262.3,794.708,2.928
208.376,799.1,-71.004
21.716,680.272,11.224
225.212,588.528,40.504
307.44,427.244,118.34
157.624,183.976,278.16
241.316,97.356,319.152
337.452,-18.056,246.928
501.176,-171.776,-17.568
529.724,-252.54,33.916
405.772,-405.772,129.32
483.12,-503.128,157.38
688.324,-565.348,52.948
741.272,-584.624,20.008
879.132,-666.852,117.364
1045.784,-705.16,177.876
1085.068,-673.684,230.58
1154.608,-589.504,202.276
1072.136,-505.812,185.44
1032.852,-385.764,145.424
1177.3,-449.204,102.48
1253.184,-463.356,104.92
1301.496,-483.364,162.992
1380.552,-471.408,104.432
1401.78,-399.428,86.864
1409.1,-352.824,19.52
1347.856,-309.148,30.256
1254.16,-280.6,51.484
1273.68,-301.828,68.564
1255.136,-311.832,75.152
1246.84,-336.232,81.496
1309.792,-341.356,43.92
1371.036,-330.376,29.28
1369.084,-314.272,80.764
1400.316,-340.38,128.344
1499.38,-324.764,133.712
1534.76,-308.904,163.724
1582.584,-314.516,221.064
1682.136,-371.368,200.324
1776.808,-397.964,197.64
1714.344,-383.568,253.516
1724.836,-429.684,316.224
1784.372,-498.492,276.452
1653.588,-455.792,199.836
1499.38,-422.12,176.656
1337.852,-413.336,178.364
1186.572,-398.696,156.16
972.34,-389.424,124.44
770.064,-353.556,91.256
731.756,-305.244,13.664
521.672,-281.332,24.156
327.936,-226.92,-9.028
239.364,-109.068,-48.068
212.28,2.684,-108.58
160.064,68.564,-137.372
206.424,102.968,-133.712
403.576,154.452,-172.752
446.52,182.024,-137.86
525.332,165.92,-93.696
855.952,164.212,-277.428
999.912,130.052,-365.268
1168.272,132.736,-534.116
1231.956,152.988,-653.432
1206.336,110.044,-778.604
1253.428,97.356,-833.016
1212.924,86.864,-909.876
1144.848,130.052,-1037.244
997.472,183.488,-1121.912
815.204,226.92,-1101.172
652.212,255.712,-1090.68
506.056,206.912,-998.936
417.728,111.508,-863.516
384.788,84.18,-625.616
236.924,47.336,-404.796
64.172,37.088,-229.604
-1.464,51.728,-144.692
-41.236,6.832,87.596
-31.476,-56.12,342.82
-114.192,-107.116,549.0
2.44,-138.592,836.432
284.26,-255.956,1022.116
665.388,-273.036,1081.896
659.044,-268.4,1197.308
687.348,-236.436,1235.372
915.488,-236.924,1161.684
1076.04,-258.396,1110.932
1360.056,-270.84,1034.56
1396.168,-258.64,1088.972
1252.208,-327.692,1138.992
1293.932,-367.22,1158.268
1521.34,-464.576,1031.876
1720.688,-502.152,953.064
1718.98,-599.752,804.956
1832.684,-662.704,698.816
1839.516,-780.556,533.628
1614.548,-731.268,442.372
1505.236,-636.596,201.3
1504.748,-574.376,-126.636
1492.792,-481.168,-390.156
1426.668,-318.664,-550.708
1277.584,-269.62,-649.284
1244.156,-165.432,-683.444
1134.112,-172.996,-640.012
1022.36,-237.656,-522.892
1044.32,-319.152,-441.396
1039.684,-347.456,-328.18
1029.436,-314.76,-329.888
1053.104,-284.504,-284.26
1066.036,-270.352,-274.012
1036.268,-275.232,-233.752
1058.716,-264.008,-215.208
1011.38,-226.92,-158.844
1004.06,-197.396,-168.604
977.464,-160.064,-132.492
988.2,-99.796,-145.424
1024.8,-92.72,-87.596
1026.508,-97.844,-53.192
1005.768,-76.86,2.684
1012.356,-87.84,58.804
1033.828,-110.776,97.112
1013.088,-142.008,96.38
1056.764,-159.82,134.444
1123.132,-199.592,166.896
1115.812,-298.168,197.884
1318.82,-348.92,184.708
1369.572,-355.752,304.268
1579.412,-381.372,331.596
1349.808,-588.528,244.976
1006.5,-446.764,141.032
1443.748,-367.952,123.708
1652.124,-350.872,76.372
1561.356,-495.808,9.76
1228.54,-461.16,116.144
1057.496,-320.372,14.152
894.26,-134.2,-41.968
764.208,41.724,-7.808
827.892,116.144,-138.836
748.592,220.82,-182.268
325.252,304.512,-34.648
52.216,439.2,48.068
-9.028,577.792,6.588
170.8,622.932,-37.576
94.184,639.036,-99.796
-212.524,708.088,-47.092
-375.272,798.124,65.636
-508.74,798.856,134.2
-544.364,905.972,132.004
-575.108,952.82,161.772
-600.972,903.776,197.64
-644.648,837.408,211.06
-768.112,865.224,315.492
-821.304,848.388,340.136
-771.284,816.912,315.736
-752.984,858.148,296.704
-829.356,892.552,331.352
-805.932,873.032,252.54
-729.316,851.804,175.924
-630.74,904.508,138.592
-539.24,948.184,168.36
-477.996,971.608,177.632
-465.308,965.264,172.264
-452.132,925.736,169.336
-455.792,928.42,145.912
-425.78,916.22,150.06
-382.348,912.56,98.088
-423.584,933.3,160.064
-404.796,937.936,200.568
-362.34,926.712,211.792
-282.308,911.34,193.98
-255.956,918.416,173.972
-268.4,913.536,153.476
-261.812,916.22,115.168
-318.176,933.3,136.64
-301.828,948.916,164.7
-279.868,953.064,140.056
-349.896,945.256,182.268
-322.324,940.62,165.676
-203.496,944.524,81.496
-222.772,967.216,105.896
-266.692,954.04,118.828
-284.748,950.136,138.836
-249.124,955.26,97.6
-232.044,972.584,73.932
-180.316,998.936,32.94
-162.016,1007.72,57.584
-171.288,994.3,90.524
-211.548,974.536,127.368
-208.132,951.844,126.636
-175.68,955.016,92.476
-193.248,966.484,105.652
-242.78,948.916,120.048
-255.224,925.492,115.412
-256.444,931.104,96.38
-264.984,940.864,87.108
-198.372,960.384,32.452
-202.52,978.928,26.84
-188.368,977.952,31.232
-195.932,982.588,51.728
-214.232,974.78,83.448
-190.808,973.316,93.208
-160.796,973.072,91.5
-193.492,964.288,114.436
-231.312,951.112,124.684
-183.0,948.916,102.236
-156.892,974.292,74.664
-189.344,976.732,86.62
-198.616,971.12,78.08
-161.528,966.972,57.096
-194.224,971.12,81.252
-206.18,962.824,89.792
-225.944,958.92,105.652
-214.232,944.768,116.144
-171.776,945.5,76.616
-211.06,954.284,102.236
-269.864,945.5,122.0
-265.716,951.356,120.536
-214.72,952.576,104.432
-219.356,949.892,111.02
-230.336,936.472,119.072
-210.328,931.348,106.14
-163.48,945.744,66.856
-164.212,970.632,56.364
-192.76,988.444,70.76
-220.576,993.324,80.276
-237.656,986.004,116.144
-203.984,979.172,94.672
-177.876,970.632,85.156
-185.928,955.016,100.772
-171.776,946.232,63.684
-207.4,953.552,102.236
-254.98,941.84,123.708
-240.828,930.128,128.344
-195.2,947.696,102.236
-215.94,964.776,128.832
-234.972,950.136,126.88
-241.316,922.32,132.98
-182.756,930.128,85.4
-165.188,957.456,75.64
-108.092,985.76,20.984
-168.604,1014.552,56.608
-226.432,1010.648,89.792
-255.712,999.668,114.924
-222.04,967.46,98.088
-168.848,947.208,51.972
-157.868,966.728,49.776
-163.724,973.804,64.904
-202.032,972.584,101.992
-225.456,960.384,147.132
-191.296,940.62,115.412
-205.692,936.472,115.168
-251.076,933.544,136.884
-267.912,932.568,138.592
-253.272,937.936,128.344
-270.596,938.668,141.52
-227.164,932.324,108.58
-179.096,954.04,66.368
-170.556,976.244,66.368
-163.968,986.736,49.288
-171.288,996.008,61.488
-186.904,996.008,79.3
-183.0,984.54,78.812
-204.472,979.416,93.94
-201.3,964.776,87.84
-181.536,954.04,63.196
-202.276,959.164,87.352
-237.9,962.824,100.04
-253.76,968.68,125.66
-261.08,957.7,140.788
-246.44,939.644,127.124
-226.92,930.86,115.9
-379.664,965.996,136.152
-325.252,1026.996,128.832
-377.956,1097.024,184.952
-484.34,1137.528,238.632
-587.064,1135.088,290.116
-655.628,1157.292,342.576
-574.62,1095.072,334.036
-490.44,1002.596,281.088
-496.052,1000.888,234.972
-617.564,1023.58,247.66
-467.748,1007.72,282.552
-304.756,842.532,268.4
-70.76,709.796,317.444
146.156,563.884,299.632
-2.196,508.496,425.78
-200.812,333.06,473.604
48.8,265.96,318.176
281.088,148.108,75.152
267.668,130.784,-19.764
173.728,-20.008,89.792
-169.824,-255.468,143.472
238.876,-329.156,159.332
564.128,-553.148,-48.312
664.656,-487.512,-111.264
774.944,-472.14,-13.176
1187.548,-581.208,100.284
890.6,-671.976,236.68
777.872,-418.216,205.448
963.556,-269.376,106.384
1194.136,-269.132,-17.812
1323.456,-374.296,-67.588
1015.528,-471.408,62.708
1509.384,-414.556,-94.672
1685.552,-485.804,-97.844
1927.112,-591.7,63.684
1852.936,-694.668,341.6
1944.436,-587.064,255.224
1768.756,-434.32,138.836
1772.172,-270.596,-112.972
1656.028,-150.548,-161.284
1499.868,-82.228,-215.696
1463.268,-116.876,-150.792
1383.724,-181.048,-56.364
1340.78,-234.728,68.076
1274.168,-274.988,82.716
1161.44,-236.192,82.228
1166.808,-227.896,58.804
1172.42,-228.384,7.076
1185.108,-235.704,11.712
1125.328,-267.424,30.988
1086.776,-289.628,59.536
1038.708,-313.54,79.544
1102.88,-335.5,87.596
1167.54,-335.256,114.192
1258.552,-368.196,201.788
1292.956,-352.58,163.724
1475.468,-223.26,73.688
1704.34,-174.704,104.188
1910.032,-229.36,213.988
2235.528,-306.464,282.552
2139.392,-357.46,336.72
2194.292,-292.556,345.992
2193.072,-249.368,206.912
2170.868,-198.372,59.78
2166.72,-246.196,53.68
1952.732,-410.652,152.5
1677.988,-553.636,244.488
1294.176,-568.032,236.924
1018.456,-474.092,105.896
815.692,-397.72,127.856
627.08,-494.832,66.124
550.952,-460.672,-36.6
354.532,-364.048,-46.116
121.268,-296.948,29.036
168.848,-297.436,-55.144
205.936,-260.592,-29.28
137.372,-272.06,80.276
159.088,-203.496,69.052
153.232,-133.956,171.776
369.904,-90.28,-3.172
573.156,-23.18,-335.5
713.7,60.756,-620.248
829.844,156.404,-967.216
853.512,217.404,-1147.776
802.272,254.98,-1200.724
657.58,220.82,-1175.104
480.192,172.996,-1112.152
456.768,145.18,-1006.256
355.02,117.852,-873.032
79.788,110.288,-762.744
-1.952,156.16,-610.0
-98.332,125.66,-473.116
-102.236,14.64,-321.348
-140.544,-101.748,-105.164
-253.028,-109.8,108.58
-209.84,-146.156,274.012
-119.316,-217.648,485.56
45.384,-251.564,648.796
376.492,-394.304,775.92
902.312,-428.464,804.224
1194.38,-414.068,791.292
1252.208,-398.452,781.288
1252.94,-278.404,769.088
1296.86,-218.868,857.172
1454.484,-349.652,736.88
1394.46,-398.452,648.308
1141.432,-285.968,694.424
1013.576,-136.884,833.26
1156.804,-156.648,831.064
1465.464,-250.588,651.236
1535.492,-249.368,643.916
1545.984,-334.524,693.936
1680.184,-476.776,853.268
1841.712,-653.676,866.2
1834.88,-819.108,762.256
1885.876,-857.416,523.624
1913.692,-772.26,249.612
1716.052,-681.736,-35.868
1541.592,-589.016,-224.48
1412.516,-462.38,-344.528
1291.98,-348.92,-483.12
1153.388,-312.076,-579.256
1065.792,-302.804,-574.864
1037.0,-241.316,-593.164
1007.964,-196.176,-588.528
1012.112,-189.1,-589.504
1013.088,-207.4,-553.392
1027.24,-214.72,-443.348
1041.148,-259.128,-348.676
1007.72,-225.212,-257.176
981.612,-207.888,-195.2
954.04,-197.396,-115.656
996.984,-161.528,-117.12
988.2,-158.844,-68.808
1001.376,-176.412,4.392
1032.608,-221.552,96.868
1078.724,-276.696,174.948
1060.912,-300.364,224.48
1083.848,-268.644,213.988
1163.392,-267.424,183.0
1265.384,-315.492,267.18
1482.788,-358.924,315.492
1679.94,-413.092,300.12
1430.816,-484.828,434.564
1316.624,-346.236,336.232
1461.316,-262.544,238.876
1471.076,-250.1,266.692
1304.668,-216.428,284.016
1167.052,-136.64,222.04
949.16,-4.148,283.284
1086.532,118.828,178.608
1001.132,174.216,237.9
446.764,341.6,333.548
-2.928,587.064,315.736
235.948,630.496,-9.272
381.372,608.536,-117.608
58.56,616.588,0.976
-343.552,699.304,164.456
-427.976,742.248,149.816
-427.244,807.396,80.276
-394.548,910.12,16.104
-277.672,921.588,-33.184
-255.712,895.236,5.124
-208.376,932.812,76.86
-55.632,964.288,54.656
142.008,1012.6,-40.748
175.436,1093.364,-107.604
167.14,1150.46,-109.312
221.308,1144.116,-112.24
269.62,1124.352,-161.772
207.4,1106.54,-116.876
172.996,1084.824,-94.184
178.852,1043.344,-37.088
145.668,968.436,-15.372
165.92,937.204,-27.572
87.596,963.556,-28.304
19.52,964.288,7.32
47.336,930.128,-9.272
-7.564,885.964,61.0
-34.892,889.868,32.94
-72.468,887.184,47.824
-97.356,853.512,51.972
-126.392,843.508,42.212
-169.092,865.956,62.952
-221.796,898.896,71.736
-176.412,944.768,84.668
-193.98,941.84,156.892
-95.892,908.168,134.688
-101.748,906.216,120.292
-173.24,916.22,168.848
-156.892,931.348,107.116
-246.928,993.812,162.748
-245.22,1019.92,168.848
-188.124,1019.432,182.756
-132.736,1002.108,209.84
-84.912,982.1,214.232
-74.176,961.604,185.196
-177.876,945.256,254.98
-197.152,942.084,255.468
-197.884,955.748,221.064
-197.396,958.92,212.28
-206.18,967.704,194.956
-156.16,961.604,137.128
-147.864,965.264,101.26
-114.192,989.664,71.736
-133.468,995.276,72.712
-147.132,995.276,107.604
-163.236,1003.328,134.688
-152.5,996.496,126.88
-123.708,986.004,101.016
-93.696,994.544,100.772
-98.576,997.96,98.332
-102.48,1005.524,115.9
-117.12,1011.868,125.66
-104.188,992.348,131.516
-96.38,969.412,113.704
-97.356,973.072,112.972
-99.552,976.244,121.024
-104.432,981.124,105.652
-111.996,998.448,95.16
-105.896,993.324,73.932
-111.752,975.512,51.972
-146.644,961.116,67.344
-143.228,965.752,73.444
-66.612,994.544,10.98
-76.128,1020.652,28.792
-72.468,1017.48,0.488
-90.524,1002.352,43.92
-96.136,963.068,68.808
-135.908,942.328,120.536
-82.96,956.48,106.628
-101.504,953.308,119.072
-145.18,940.376,124.44
-155.916,942.572,121.756
-95.648,947.696,80.276
-118.828,961.36,89.304
-45.872,990.64,43.188
-25.62,998.204,7.564
-59.292,1005.524,52.216
-72.224,1006.5,65.88
-74.908,994.056,96.38
-72.712,997.96,124.44
-61.488,997.472,94.916
-48.556,983.076,73.688
-65.636,984.052,74.42
-62.22,995.52,64.172
-56.608,1004.304,72.956
-82.716,993.812,104.188
-99.552,970.388,114.436
-81.496,956.968,100.284
-60.512,974.536,110.532
-69.296,975.024,113.216
-73.688,963.556,118.096
-57.828,971.364,100.284
-72.468,981.368,102.968
-84.912,978.44,103.212
-48.8,991.616,77.348
-25.62,1002.596,79.3
-40.748,1000.4,87.596
-57.828,987.224,90.524
-30.012,984.052,64.172
-68.564,987.712,86.132
-100.04,977.952,90.524
-118.828,970.876,114.192
-69.54,962.336,99.064
-52.216,957.7,97.356
-22.448,964.044,80.764
-28.304,982.832,94.916
-46.848,1000.888,119.804
-42.944,999.912,129.32
-5.124,976.976,92.476
-17.568,985.516,96.136
-38.552,996.252,90.524
-56.364,987.956,85.644
-59.78,996.252,94.184
-63.44,995.764,94.672
-75.152,983.808,98.332
-63.44,976.976,75.152
-67.832,983.808,66.612
-83.204,979.904,66.124
-59.292,982.344,40.26
-58.072,995.52,62.708
-83.692,994.544,81.252
-78.568,990.396,105.408
-71.248,976.488,113.46
-43.92,961.116,107.116
-36.356,958.92,91.988
-34.892,977.22,96.868
-49.776,997.228,101.504
-67.588,999.668,114.436
-78.324,983.564,122.0
-28.792,971.364,89.304
-46.848,977.952,95.404
-70.028,981.612,99.308
-122.0,974.78,108.092
-81.984,967.704,86.62
-59.536,983.808,68.808
-41.968,998.692,61.244
-63.44,1002.596,72.224
-28.06,1004.304,64.904
1.952,998.448,51.972
-18.056,998.936,71.248
-36.6,1001.62,72.712
-82.96,992.104,102.236
-87.352,976.488,103.944
-84.668,966.484,93.452
-100.528,954.772,102.724
-83.204,961.36,79.788
-80.032,966.484,90.768
-97.844,969.9,103.212
-78.812,980.392,105.164
-22.448,977.952,82.228
-42.944,975.024,98.82
-27.572,977.708,73.2
-33.428,987.468,72.712
-41.724,1001.864,78.08
-50.264,1005.28,69.052
-50.996,1003.572,69.784
-69.052,996.984,80.764
-69.54,980.636,73.444
-70.516,975.756,75.884
-83.692,980.392,85.888
-79.544,986.248,76.128
-71.736,980.88,74.908
-72.712,982.1,83.204
-68.808,984.296,90.036
-61.976,986.492,99.796
-49.532,983.076,101.992
-45.384,978.196,91.012
-49.532,983.564,99.552
-52.46,985.516,84.424
-66.124,987.956,90.036
-89.792,990.64,104.432
-79.056,984.296,89.06
-74.176,977.464,86.132
-65.148,981.856,78.324
-67.588,994.056,80.52
-78.812,1001.376,83.448
-100.284,1011.136,96.136
-123.708,1032.852,104.92
-210.084,1056.276,122.732
-211.548,1100.196,85.156
-284.26,1170.956,51.24
-261.568,1227.564,27.328
-267.18,1235.128,21.96
-256.2,1225.612,58.316
-265.716,1217.804,102.724
-217.648,1198.528,145.668
-259.128,1135.332,136.396
-225.7,1036.268,81.496
-164.944,1057.008,167.628
276.94,913.536,-0.488
349.408,819.352,11.224
121.756,748.104,143.716
13.176,699.792,154.94
110.044,606.096,151.524
361.364,517.524,125.66
287.92,325.74,-4.148
87.596,326.228,-72.224
-35.38,331.84,34.648
-39.772,167.872,36.356
-49.776,-55.144,59.536
217.892,-186.416,-81.252
253.272,-274.744,-0.976
289.628,-344.528,-3.66
200.568,-500.2,112.972
618.784,-638.06,4.392
998.936,-842.532,63.928
1063.352,-953.064,309.148
1420.08,-975.512,285.236
1785.592,-991.86,198.372
1965.42,-876.692,-16.104
1908.812,-747.372,46.848
1746.308,-688.812,20.74
1621.38,-600.972,135.908
1601.372,-590.236,138.104
1397.632,-512.4,215.452
1350.052,-482.632,217.892
1313.94,-477.264,150.792
1283.928,-421.876,68.808
1322.48,-378.932,0.976
1272.216,-342.332,-16.836
1168.272,-352.092,22.448
1155.096,-352.58,40.504
1129.964,-358.924,106.14
1079.944,-392.352,121.512
1074.82,-382.348,145.18
1078.236,-352.336,89.792
1077.504,-332.572,54.168
1097.756,-315.98,81.984
1172.908,-333.06,102.236
1318.82,-308.172,151.768
1461.072,-294.264,128.344
1593.32,-292.556,157.38
1721.176,-306.22,202.032
1844.64,-328.912,311.1
1981.768,-396.012,412.116
2260.66,-468.724,309.148
2305.068,-467.992,221.308
2184.532,-447.74,205.204
2120.116,-457.5,172.508
1992.016,-564.616,131.76
1700.436,-608.292,147.132
1377.136,-597.312,243.268
1094.34,-628.3,263.276
804.712,-638.06,263.52
456.036,-620.248,314.272
253.76,-552.416,275.72
7.808,-387.96,237.9
-182.024,-251.564,250.1
-103.456,-132.492,147.864
63.684,-30.744,55.876
173.484,54.168,-30.012
174.704,90.768,-251.32
411.384,170.312,-584.624
590.724,223.748,-807.152
724.436,296.948,-955.748
708.332,300.12,-1044.564
749.568,273.28,-1148.508
803.492,282.308,-1178.276
647.088,289.384,-1109.224
498.736,304.024,-994.3
396.012,294.508,-926.956
323.056,274.012,-840.336
159.332,203.74,-690.764
121.512,163.968,-532.652
81.496,82.716,-342.576
55.632,-1.22,-152.5
31.232,-35.38,14.64
-87.108,-103.456,165.92
-207.644,-131.272,228.628
-193.492,-129.076,335.256
4.636,-188.368,505.08
267.18,-301.828,667.34
600.484,-480.924,704.184
903.776,-461.892,737.124
839.36,-389.668,919.392
968.192,-401.136,945.744
1219.268,-479.46,853.756
1242.692,-426.512,868.152
1246.84,-379.908,920.368
1161.196,-479.704,933.3
1325.408,-470.432,884.744
1498.16,-458.72,714.92
1471.32,-498.248,633.424
1432.768,-481.656,628.056
1549.644,-433.832,582.428
1682.136,-459.94,506.788
1910.764,-524.844,313.54
1688.48,-590.236,196.176
1853.424,-467.748,71.004
1774.612,-519.964,31.476
1658.712,-510.204,15.616
1552.816,-464.82,-61.732
1482.788,-429.928,-102.968
1398.608,-397.232,-247.416
1459.12,-325.008,-425.78
1339.316,-253.272,-458.476
1086.532,-236.924,-386.74
1066.036,-240.584,-309.636
1031.632,-303.536,-223.992
1104.588,-328.668,-290.36
1085.8,-279.38,-289.628
1108.98,-246.928,-329.644
1164.612,-290.604,-303.78
1163.392,-396.5,-187.636
1278.072,-453.596,-151.768
1368.596,-489.464,-162.016
1380.552,-500.2,-46.604
1612.84,-567.3,-80.276
1563.796,-554.124,101.016
1500.356,-529.48,90.28
1520.364,-488.732,125.172
1299.544,-417.972,240.34
1087.508,-290.116,190.076
986.492,-145.424,181.048
1008.94,-38.552,34.404
890.844,98.82,0.0
694.912,188.368,183.976
637.572,242.536,166.896
595.848,314.516,117.12
610.488,437.004,-61.0
325.984,574.376,28.06
86.132,619.028,28.792
86.62,640.012,-29.524
-8.54,671.732,116.632
-6.1,653.432,116.144
-135.664,711.748,83.936
-302.316,820.328,127.124
-346.48,903.288,134.688
-304.512,866.2,123.708
-314.272,810.324,87.352
-341.356,783.24,81.984
-404.796,777.628,39.528
-493.856,796.904,49.776
-475.068,782.02,72.468
-461.892,775.432,62.952
-534.604,794.708,89.06
-593.408,842.776,169.824
-547.536,883.524,122.976
-557.784,939.888,102.724
-499.712,983.076,114.924
-358.924,1001.864,31.72
-349.408,1043.832,45.872
-364.536,1053.104,50.996
-365.756,1052.86,5.368
-318.664,1067.988,-52.46
-288.652,1057.496,-46.116
-211.06,1022.604,-69.784
-215.452,995.764,-38.064
-182.268,1003.572,23.18
-186.416,981.124,90.28
-119.56,945.988,58.804
-141.276,932.324,122.0
-108.824,959.164,111.508
-95.16,975.512,94.184
-117.608,981.612,88.328
-144.448,990.396,71.004
-171.288,969.656,42.212
-171.288,966.484,32.94
-170.8,961.604,13.176
-205.204,955.504,10.492
-228.628,945.5,14.152
-178.12,955.992,-68.564
-139.08,1004.304,-75.884
-143.472,1025.288,-61.244
-172.02,1020.408,6.344
-134.932,992.348,57.828
-123.22,971.364,64.66
-108.824,955.26,95.892
-37.82,947.452,65.148
-25.62,962.092,104.188
3.66,972.584,87.84
-20.74,982.588,108.092
8.54,1031.876,49.288
-38.796,1057.252,6.344
-121.268,1050.908,18.3
-122.732,1002.352,49.532
-154.696,955.748,102.968
-121.512,928.908,97.6
-115.9,936.716,87.84
-138.104,951.844,95.16
-92.476,980.88,44.652
-57.828,1006.256,26.84
-68.32,1010.16,38.308
-61.244,999.424,7.564
-64.416,991.372,18.544
-99.064,968.68,49.288
-106.14,951.844,48.556
-81.008,970.876,67.832
-86.376,980.148,71.004
-91.256,988.688,48.8
-71.98,1006.256,27.084
-61.0,1015.528,18.544
-83.204,1013.088,39.772
-87.352,995.764,47.824
-100.284,982.344,63.684
-118.584,966.484,71.736
-68.32,961.604,25.62
-71.736,976.732,54.656
-101.26,982.1,64.904
-136.152,972.828,76.372
-77.104,981.612,15.372
-89.792,999.668,4.148
-101.016,1000.4,-1.22
-101.26,996.252,-6.344
-75.884,987.956,-7.808
-81.008,987.224,15.86
-75.64,990.884,19.52
-63.44,997.96,45.872
-58.56,993.324,74.664
-57.828,996.496,79.788
-71.248,990.396,89.792
-66.368,964.044,74.176
-79.3,967.704,80.032
-75.152,968.68,81.74
-105.896,961.848,87.596
-98.332,973.804,63.196
-87.84,987.956,46.116
-92.232,981.124,25.132
-82.472,983.564,-12.2
-80.276,998.692,-0.976
-88.328,995.764,4.88
-102.968,989.176,19.52
-95.892,990.152,33.428
-107.848,978.196,50.508
-85.156,959.164,36.6
-64.66,965.264,33.428
-74.908,976.244,55.388
-107.604,981.856,72.712
-82.228,980.88,64.904
-86.132,973.072,66.124
-84.18,973.56,63.928
-66.612,981.856,35.136
-72.712,988.444,44.896
-64.66,1002.108,40.26
-82.472,1000.644,38.796
-85.4,990.64,42.456
-85.4,988.444,54.9
-83.448,988.688,56.608
-71.004,987.956,39.772
-84.18,986.492,46.36
-91.256,980.88,35.624
-95.404,988.932,43.92
-109.8,983.808,60.756
-110.532,961.604,56.12
-105.896,955.504,51.484
-121.024,956.48,63.928
-143.472,958.432,71.004
-113.46,971.852,59.78
-70.516,982.344,35.868
-20.252,1004.792,12.688
-30.012,1030.9,14.152
-40.016,1026.264,42.456
-69.784,1001.864,76.616
-79.788,970.144,87.108
-78.324,960.14,68.32
-65.636,972.34,41.724
-84.424,989.908,29.28
-76.86,1000.4,25.376
-78.568,1000.156,0.976
-121.756,988.932,38.308
-128.1,974.78,64.66
-111.264,953.796,45.872
-116.388,958.676,64.172
-100.284,971.608,49.776
-82.716,976.244,19.764
-75.152,991.372,30.012
-72.712,996.496,40.992
-80.52,989.664,38.552
-74.42,985.028,56.12
-81.74,982.344,49.532
-83.204,985.028,51.728
-97.844,987.468,51.972
-103.456,994.056,57.828
-102.48,1008.452,46.116
-120.78,1037.732,44.164
-119.072,1061.644,41.236
-132.98,1111.908,47.58
-148.352,1163.392,51.24
-180.804,1213.656,54.412
-130.784,1234.152,42.7
-171.776,1256.112,77.836
-220.576,1276.12,130.784
-283.772,1240.496,177.876
-342.82,1205.604,153.232
-459.94,1204.628,105.896
-400.648,1262.456,61.732
-128.1,1177.788,-91.256
-288.896,1139.724,-24.644
-417.972,1139.236,89.304
-547.048,1092.388,208.62
-380.152,972.096,228.14
-243.024,914.756,177.388
-43.676,854.976,178.12
-306.952,718.58,195.688
-162.26,609.512,173.484
-125.66,512.4,167.872
534.848,451.644,45.628
226.188,249.612,123.464
-194.468,72.224,207.644
122.976,13.664,-4.636
-98.576,-158.356,61.732
6.1,-287.432,82.472
-87.352,-532.896,14.64
162.992,-613.66,-67.1
366.732,-708.088,3.904
585.6,-822.524,-114.436
757.864,-727.12,-24.888
966.728,-627.324,-74.908
1052.372,-602.436,162.504
1235.616,-605.852,277.672
1536.956,-569.74,338.672
1717.76,-505.08,155.428
1905.64,-334.768,-4.392
1751.188,-258.396,-20.008
1569.164,-294.996,0.488
1509.628,-385.52,129.076
1527.196,-480.436,259.616
1537.688,-512.156,230.58
1477.176,-472.628,204.228
1477.42,-403.088,164.944
1486.448,-363.316,138.836
1431.792,-335.744,108.58
1522.56,-315.98,107.36
1592.1,-287.676,89.06
1531.1,-270.108,66.856
1483.764,-276.94,104.92
1516.46,-274.744,148.84
1483.764,-350.628,246.684
1518.9,-384.3,261.568
1650.416,-327.692,254.248
1782.42,-322.568,242.78
1976.4,-345.016,275.476
2068.388,-411.872,291.336
2075.708,-452.62,275.964
2115.236,-520.696,150.548
2067.412,-517.524,103.7
2012.268,-575.108,50.508
1908.812,-734.928,78.568
1698.728,-821.792,177.144
1322.968,-858.636,278.16
1024.312,-847.9,250.1
680.516,-728.828,136.152
358.436,-680.76,127.856
179.584,-592.188,100.528
-108.58,-474.092,75.64
-206.424,-207.888,44.896
-284.26,-96.38,113.704
-98.82,-51.24,61.488
36.844,53.436,-113.46
257.176,159.088,-512.4
494.588,214.964,-886.696
704.428,219.844,-1102.636
1009.428,260.104,-1279.78
1063.84,192.516,-1320.528
1036.512,163.968,-1303.448
821.792,123.22,-1191.452
553.392,141.764,-1047.492
324.52,173.484,-934.032
207.156,223.748,-823.5
-107.36,227.652,-695.4
-385.52,230.58,-538.508
-392.352,260.836,-438.468
-334.524,157.38,-305.976
-212.28,-10.004,-121.512
-118.828,-160.308,128.832
-192.272,-227.408,431.148
-250.1,-248.392,617.808
55.876,-296.948,702.476
508.984,-331.84,710.528
636.596,-382.592,767.136
724.924,-358.68,885.72
1011.624,-416.264,978.196
1333.46,-544.364,1006.744
1442.04,-534.36,1023.092
1397.144,-500.932,1019.188
1458.876,-492.636,938.668
1583.804,-488.244,801.784
1397.388,-430.172,845.704
1284.66,-408.456,961.604
1382.748,-574.376,901.824
1635.288,-575.108,791.78
1789.496,-611.22,627.812
1691.164,-661.484,628.544
1745.332,-663.192,510.448
1703.12,-685.884,372.832
1638.704,-721.752,160.308
1680.672,-750.544,-113.948
1762.168,-739.564,-403.088
1513.532,-590.236,-530.456
1300.032,-403.088,-588.772
1231.956,-339.892,-715.896
1262.944,-273.036,-837.164
1206.092,-245.464,-845.704
1067.988,-198.86,-762.988
995.276,-198.86,-621.712
999.668,-279.136,-509.96
1001.62,-328.912,-452.864
988.2,-331.84,-308.172
1005.28,-362.584,-217.648
1057.496,-410.896,-142.252
1236.104,-446.276,-163.724
1254.404,-480.192,-50.508
1377.868,-563.396,75.396
1367.864,-655.872,218.624
1358.592,-666.364,209.352
1594.296,-553.392,100.528
1513.044,-522.404,188.124
1442.04,-523.624,249.856
1502.064,-559.004,124.44
1422.52,-576.816,151.28
1081.652,-443.836,200.08
936.96,-263.032,240.096
1096.536,-201.788,222.04
1116.544,-156.648,185.928
790.56,-11.712,244.976
519.476,154.94,142.74
534.36,299.632,78.568
505.812,370.636,33.184
371.856,419.924,53.192
121.756,493.368,55.632
-50.752,562.42,26.84
-134.444,641.72,66.368
-98.088,635.864,-15.372
-92.964,673.44,-21.96
-216.916,719.8,105.408
-338.916,729.072,115.412
-461.648,746.64,137.372
-564.372,783.728,196.176
-608.536,760.792,189.832
-559.98,750.056,197.884
-672.708,773.48,259.616
-729.072,822.036,291.824
-784.948,832.528,306.708
-699.792,808.372,234.24
-721.752,800.564,239.852
-660.264,830.088,217.16
-590.968,878.888,173.972
-528.748,957.456,179.828
-459.94,1062.132,217.648
-351.36,1109.956,166.164
-271.816,1132.404,89.304
-236.436,1138.992,122.0
-193.248,1096.78,106.14
-151.036,1080.188,108.336
-198.616,1069.94,117.608
-175.436,1063.596,36.112
-248.88,1053.348,52.46
-256.688,1053.836,90.036
-215.94,1034.072,101.504
-280.844,978.44,150.06
-238.388,924.272,145.912
-190.32,865.956,138.348
-245.708,837.164,188.124
-230.58,865.956,142.252
-172.996,910.12,55.388
-160.064,968.436,9.76
-157.38,1005.768,-12.932
-180.56,997.96,13.176
-188.124,961.116,37.82
-176.168,950.38,84.424
-175.68,952.576,102.236
-171.776,974.292,102.968
-176.656,986.004,106.628
-145.424,973.316,77.104
-145.668,985.272,71.004
-123.952,989.908,73.2
-153.476,993.08,69.784
-125.172,1004.304,58.072
-160.308,996.984,67.588
-166.164,996.252,70.76
-128.588,989.664,49.776
-158.356,975.512,90.28
-189.344,954.772,98.088
-130.54,960.872,57.096
-111.508,984.296,71.004
-141.032,995.764,83.692
-168.116,974.536,96.38
-179.34,958.432,95.648
-167.628,948.916,72.712
-147.62,943.548,51.728
-173.728,952.088,60.756
-157.624,968.924,46.36
-140.3,988.2,46.36
-133.224,988.688,46.116
-138.836,973.072,61.488
-132.004,962.824,81.984
-137.616,967.216,95.892
-159.088,969.412,122.732
-125.66,958.188,80.52
-145.668,959.164,85.4
-174.46,976.244,96.624
-182.024,983.32,96.136
-163.236,979.904,88.084
-185.196,976.0,94.184
-158.356,973.804,63.684
-130.296,965.264,23.18
-159.332,979.416,56.364
-160.064,999.912,39.04
-151.28,1004.548,55.632
-180.072,991.616,99.064
-157.38,978.928,88.572
-134.2,968.68,99.064
-139.812,956.968,99.308
-136.884,965.508,83.448
-135.176,974.048,80.52
-158.6,966.972,78.568
-153.72,964.532,68.32
-142.984,973.072,61.488
-155.672,975.024,74.176
-181.536,962.092,88.816
-169.092,958.92,85.888
-142.984,966.484,73.688
-125.416,978.928,69.052
-109.068,984.54,36.112
-101.992,998.204,26.84
-129.564,1006.256,50.264
-155.916,1012.844,82.96
-119.804,1002.108,74.42
-117.12,985.028,85.888
-116.144,976.244,76.86
-147.62,976.488,82.472
-166.408,976.488,90.28
-167.384,970.144,88.816
-182.268,961.848,92.964
-168.116,965.508,81.984
-174.704,954.284,85.4
-192.76,941.84,105.164
-173.24,938.18,104.432
-142.984,940.864,92.476
-138.836,955.504,103.212
-152.744,960.872,102.968
-122.488,963.068,76.86
-115.412,982.1,84.424
-125.904,994.056,89.548
-124.196,987.712,60.756
-122.0,994.544,57.096
-127.612,1000.888,51.728
-118.584,1008.208,27.084
-102.236,1015.528,39.284
-116.876,1005.28,58.56
-144.936,980.88,82.96
-165.188,960.872,97.112
-187.148,947.696,114.68
-183.488,929.884,101.992
-171.532,926.956,91.5
-186.904,936.228,104.92
-221.064,939.156,114.436
-188.612,950.136,108.824
-145.18,950.136,83.204
-130.784,957.456,84.424
-126.148,973.072,61.488
-114.924,987.712,61.976
-125.66,997.472,72.712
-135.908,1000.644,80.276
-138.348,989.664,97.356
-143.716,979.172,91.5
-139.324,976.732,81.496
-144.204,976.488,66.368
-152.988,976.976,54.168
-162.992,985.028,53.924
-198.128,985.76,78.812
-177.876,968.68,87.108
-165.432,954.528,92.964
-155.428,955.748,105.164
-138.592,967.948,100.528
-147.62,974.536,108.58
-134.2,972.096,100.284
-132.004,971.608,90.524
-147.376,971.12,91.012
-146.644,963.312,79.056
-156.648,967.216,73.688
-171.044,978.196,76.128
-178.852,980.88,77.592
-183.488,976.0,87.352
-173.24,970.876,87.84
-158.844,977.464,78.812
-156.16,985.76,82.716
-187.392,1004.792,101.26
-217.16,1043.588,113.948
-276.208,1087.996,100.772
-268.644,1103.368,56.608
-351.36,1153.388,27.084
-269.376,1202.92,-18.788
-252.052,1217.072,-40.016
-351.36,1255.868,45.384
-423.828,1223.904,111.996
-474.092,1182.912,131.516
-452.62,1115.324,128.344
-338.672,1103.124,172.264
-114.436,1051.396,128.344
-129.32,963.068,87.352
-599.264,849.852,90.768
-258.64,841.556,85.644
179.34,641.964,36.6
161.04,523.38,56.608
134.2,330.376,154.452
63.196,219.844,159.82
185.684,106.384,-32.696
188.368,81.496,-80.276
67.344,-23.668,-7.564
30.744,-250.588,-59.536
216.672,-405.284,-115.168
213.012,-489.22,-9.028
489.464,-582.916,142.008
811.544,-668.804,44.164
1181.448,-690.276,-125.416
1343.952,-602.924,138.836
1594.784,-692.716,256.444
1804.868,-757.864,346.968
1901.736,-740.052,348.676
1958.588,-661.24,313.296
1741.916,-594.628,335.5
1687.504,-568.032,275.72
1547.692,-519.232,296.704
1412.272,-467.748,232.532
1230.736,-445.3,211.06
1179.984,-403.576,192.516
1042.368,-383.812,166.896
1002.84,-333.06,119.316
1062.62,-320.616,91.5
1025.288,-325.984,79.3
1176.568,-301.828,51.484
1263.188,-315.492,111.264
1318.088,-361.12,215.452
1581.852,-364.048,222.04
1740.696,-369.416,256.2
1933.944,-360.876,268.156
1983.72,-357.948,315.004
2070.34,-308.66,463.112
2025.444,-371.368,563.884
2036.912,-476.288,292.556
1870.748,-404.308,322.324
1773.392,-442.616,403.82
1603.568,-516.304,408.944
1416.176,-596.336,429.928
1169.492,-615.368,477.02
1020.652,-523.38,380.152
909.144,-508.74,203.008
787.632,-516.304,111.264
636.352,-498.98,42.7
423.584,-475.068,79.056
185.44,-390.644,116.876
67.1,-295.972,136.884
-21.228,-231.068,119.072
3.172,-153.232,110.288
142.252,-57.828,71.004
223.748,-21.716,15.86
374.784,17.812,-171.532
627.324,28.06,-356.24
912.804,14.396,-645.624
1013.82,64.172,-905.24
1048.224,110.288,-1159.732
984.296,128.832,-1262.212
994.788,150.792,-1331.508
781.044,128.1,-1250.012
760.304,82.228,-1185.596
597.312,47.58,-1096.78
347.944,100.528,-1007.476
233.264,123.952,-945.988
111.02,89.06,-754.448
-18.3,41.968,-569.008
-102.236,28.792,-272.304
-191.296,11.712,27.328
-287.432,-83.692,275.232
-186.904,-108.824,487.268
110.044,-139.324,646.112
384.788,-155.184,778.36
480.68,-206.668,798.124
650.26,-276.452,840.824
808.86,-187.392,784.704
756.4,-149.328,767.624
884.744,-207.644,806.176
1122.644,-298.412,884.256
1370.548,-455.548,982.832
1704.096,-691.008,960.14
1821.216,-759.084,932.08
1648.22,-661.484,1013.332
1559.16,-654.408,976.976
1661.884,-705.404,824.476
1870.26,-698.328,598.532
1747.528,-686.128,498.492
1592.1,-693.204,355.752
1421.544,-637.572,249.856
1333.46,-552.416,167.14
1352.492,-584.38,28.304
1413.004,-594.384,-208.62
1448.628,-429.684,-635.376
1285.392,-238.144,-710.284
1134.356,-157.136,-727.608
1159.0,-155.916,-718.336
1148.752,-227.164,-602.68
1057.008,-288.896,-460.916
1031.632,-310.856,-378.444
1079.7,-370.148,-324.032
1219.756,-428.464,-190.076
1322.236,-497.028,-110.288
1431.06,-566.324,44.164
1570.872,-654.408,13.664
1451.312,-689.788,16.836
1528.416,-623.176,-0.976
1385.92,-541.436,142.008
1461.56,-500.444,173.24
1472.784,-617.564,99.552
941.352,-551.44,183.732
976.732,-310.612,180.804
1016.992,-303.048,110.776
1040.904,-299.632,105.896
826.916,-242.048,181.292
540.704,-94.672,154.696
367.22,40.748,79.056
528.016,148.596,-103.456
543.632,251.32,-58.316
439.2,329.888,108.336
95.648,327.448,134.688
-160.552,438.712,26.84
-150.06,590.724,-52.46
-57.096,692.716,-119.804
-168.604,693.692,-39.04
-273.28,733.22,-0.488
-414.556,786.168,-51.484
-582.916,860.1,-79.056
-610.976,937.204,-40.748
-495.564,948.184,-137.372
-529.968,991.616,-206.18
-702.476,1055.056,-72.468
-732.732,1042.856,3.904
-690.032,1016.504,-58.804
-693.448,1105.076,22.692
-602.924,1201.456,-7.564
-549.976,1256.112,-19.276
-449.448,1231.468,10.248
-345.26,1108.492,-34.404
-329.888,1045.54,-49.044
-386.74,1044.076,54.168
-351.36,1054.324,91.744
-220.088,1086.776,95.404
-180.072,1109.956,73.932
-254.736,1086.288,19.764
-254.248,1050.176,41.724
-198.86,1036.024,7.808
-96.38,1069.94,-12.688
-87.108,1092.632,29.036
-60.024,1042.124,-10.736
-143.96,971.12,52.704
-200.568,923.54,102.236
-119.56,919.88,82.228
-113.216,921.832,103.944
-150.304,920.124,99.064
-213.012,923.052,90.768
-146.156,935.008,-6.1
-139.568,959.896,-59.048
-108.58,996.008,-109.068
-104.92,998.936,-98.088
-114.192,984.784,-46.604
-84.668,950.624,-10.492
-52.46,959.896,-0.244
-10.736,965.996,-29.28
-52.46,991.86,-2.196
-63.196,1017.724,19.276
-60.512,1002.84,24.644
-87.84,994.788,61.976
-25.132,998.936,59.78
-37.82,999.18,54.9
-79.3,1002.352,96.136
-73.688,986.736,60.756
-102.968,983.32,65.88
-55.632,986.98,17.08
-99.796,1003.572,20.252
-102.968,1011.624,27.816
-90.28,1017.236,-7.076
-104.676,1025.288,6.832
-28.792,1031.388,-26.596
-48.8,1029.924,-6.344
-73.444,1014.552,66.612
-101.992,974.78,117.608
-48.312,924.272,101.992
-83.692,942.572,107.848
-68.32,972.34,54.9
-60.512,987.224,2.196
-59.78,995.032,-4.88
-89.304,1005.036,-5.612
-79.788,990.64,6.1
-48.068,963.312,24.156
21.472,956.968,-28.548
6.588,999.668,-4.148
-19.764,1017.968,-4.148
-1.464,1022.848,-15.86
-7.076,1028.216,10.736
-30.988,1012.356,27.084
-54.656,972.584,24.888
-71.98,947.452,27.572
-87.596,951.356,39.528
-106.872,951.112,29.768
-78.812,971.364,18.544
-61.976,984.54,35.624
-41.968,982.588,36.6
-0.244,987.468,30.5
8.784,1006.5,39.284
1.952,1027.972,29.28
-3.66,1034.316,23.424
-34.892,1028.704,38.552
-53.436,1006.5,31.964
-61.732,980.392,22.448
-66.856,970.144,37.576
-73.2,966.972,35.868
-59.536,982.1,24.888
-41.236,997.472,35.868
-45.14,995.764,41.236
-78.812,987.468,61.488
-47.58,977.708,50.996
-51.728,975.756,54.168
-61.488,980.88,54.9
-20.252,993.812,31.232
5.856,996.74,29.036
8.296,1001.62,29.28
-8.54,1008.94,39.772
-49.044,996.252,50.508
-48.556,977.22,43.92
-20.984,973.804,23.424
-54.168,982.588,49.532
-73.2,976.732,43.188
-31.964,981.124,16.592
-19.52,1006.988,29.768
-26.108,1009.916,36.6
-10.736,995.276,26.596
-30.256,975.024,44.164
-54.656,960.872,66.856
-49.044,962.092,62.708
-60.024,980.88,79.056
-64.66,997.716,70.76
-42.7,988.932,44.896
-22.692,987.224,-0.732
-40.992,995.764,6.588
-38.796,983.076,-7.076
-42.456,972.34,-1.952
-46.116,998.936,29.036
-82.96,1007.476,50.02
-103.456,996.252,77.104
-54.656,979.416,65.88
-11.224,955.504,33.184
10.004,971.12,5.124
0.0,1013.576,16.348
-38.552,1027.972,33.672
-53.68,1020.652,63.928
-54.656,995.52,68.808
-21.716,957.7,33.184
-20.252,972.584,49.532
-38.552,987.956,46.36
-46.116,992.348,42.944
-37.332,997.472,44.896
-48.068,993.324,46.36
-45.14,976.732,31.72
-43.92,975.024,47.092
-67.832,976.732,59.78
-87.596,978.196,70.516
-69.296,979.66,59.78
-64.66,980.392,63.928
-30.988,980.88,46.604
-7.076,988.2,41.236
1.952,996.008,39.04
-15.128,1006.988,39.284
-26.84,1015.04,49.044
-47.336,1004.06,52.948
-47.58,979.172,50.264
-53.436,975.024,51.484
-54.9,977.952,34.404
-60.756,981.368,39.772
-82.716,986.004,56.364
-71.736,978.196,74.664
-46.116,963.312,58.804
-47.58,973.56,83.204
-41.48,990.884,81.252
-42.7,1001.376,80.764
-36.6,1040.172,91.256
-39.528,1108.736,94.916
-44.896,1173.884,101.748
-148.352,1256.112,138.348
-116.144,1297.592,154.94
-169.58,1316.136,125.416
-293.288,1386.896,147.864
-409.432,1343.952,191.052
-422.12,1252.208,199.104
-252.784,1236.592,166.652
-12.2,1271.972,148.84
-12.444,1275.876,177.632
-299.876,1225.612,353.8
-289.14,1174.86,395.036
-52.216,1096.292,223.748
53.924,1026.996,177.388
-135.664,925.98,217.16
-318.664,817.156,225.7
-7.076,671.244,134.688
-31.964,571.936,9.516
-16.836,483.12,-61.244
-233.508,323.788,79.544
-294.508,66.124,161.528
26.84,-126.636,91.012
104.676,-212.524,106.14
171.532,-271.328,-7.808
177.144,-357.46,-69.54
287.92,-409.676,-174.216
118.828,-428.22,-14.396
293.532,-495.564,10.492
495.808,-581.452,112.972
799.344,-561.2,28.792
962.092,-528.748,27.816
773.968,-521.672,75.64
810.08,-489.22,250.1
1011.136,-561.688,220.576
1327.116,-573.888,132.98
1436.916,-550.708,199.836
1447.164,-561.444,211.792
1501.82,-578.28,271.084
1605.032,-546.072,282.064
1618.208,-575.84,282.308
1625.528,-596.092,224.236
1552.328,-557.296,310.856
1486.204,-610.732,384.788
1400.56,-678.076,440.664
1555.744,-640.5,357.704
1676.28,-590.236,270.596
1573.8,-553.636,284.748
1544.276,-541.192,297.436
1673.352,-512.4,219.112
1735.816,-470.188,175.924
1787.544,-472.14,157.624
1709.464,-478.24,254.004
1700.924,-480.68,269.864
1767.292,-472.384,277.184
1730.692,-449.448,341.356
1708.0,-483.12,449.204
1775.832,-510.204,474.336
1825.852,-576.328,436.272
1748.504,-588.772,379.176
1504.504,-582.672,454.084
1217.072,-547.292,446.764
1009.184,-507.764,434.808
819.108,-455.548,418.46
781.288,-417.484,309.148
729.56,-380.152,241.316
569.496,-364.292,173.972
511.912,-307.928,196.908
411.384,-296.704,183.0
273.036,-269.376,187.636
197.884,-280.356,191.784
227.896,-254.98,135.176
324.52,-198.372,-78.324
469.7,-203.496,-316.712
493.124,-214.964,-598.288
617.076,-113.948,-924.516
674.66,-91.012,-1239.52
800.808,-109.312,-1474.492
813.252,-108.824,-1463.512
819.84,-179.34,-1430.816
763.72,-212.036,-1298.08
646.844,-266.204,-1158.024
613.172,-277.916,-970.144
442.128,-263.764,-825.696
243.512,-232.288,-658.556
32.94,-186.66,-464.332
-72.224,-123.22,-342.088
-155.916,-102.48,-217.892
-176.168,-118.096,-31.72
-138.592,-143.472,113.216
-149.084,-171.776,241.804
-202.276,-161.772,372.588
-29.524,-163.724,428.708
235.46,-234.484,577.304
575.596,-237.412,627.08
744.688,-225.212,738.832
1011.868,-272.06,888.404
1325.652,-374.052,910.364
1422.52,-324.276,904.508
1304.18,-242.048,910.852
1389.824,-245.464,829.356
1513.776,-292.068,814.228
1572.824,-329.4,821.304
1378.6,-427.976,859.856
1239.764,-476.776,768.844
1319.552,-454.816,702.964
1437.648,-423.34,564.86
1489.864,-487.024,491.172
1555.5,-623.908,419.68
1635.044,-735.416,385.276
1651.636,-803.004,273.28
1660.176,-895.724,44.896
1620.404,-847.656,-155.672
1503.772,-743.712,-282.308
1320.528,-680.516,-322.08
1269.044,-658.556,-389.18
1252.452,-636.596,-444.324
1235.372,-552.904,-499.224
1086.776,-477.996,-457.988
941.352,-443.104,-413.824
922.076,-426.268,-384.788
1001.376,-434.32,-349.896
1011.868,-455.792,-280.112
1041.392,-475.312,-164.212
1090.436,-520.452,37.576
1217.56,-577.304,156.648
1312.476,-653.432,247.416
1215.852,-704.672,261.08
1348.588,-581.94,264.008
1454.484,-532.896,299.388
1607.228,-497.516,359.656
1562.576,-547.536,379.664
1503.772,-526.064,335.5
1456.68,-418.216,207.644
1375.916,-286.456,132.004
1355.664,-217.892,241.804
1182.424,-243.024,367.952
1115.568,-185.684,344.284
1029.924,-148.596,310.856
911.584,-30.988,215.94
686.616,121.268,167.872
581.452,219.6,85.644
535.092,236.924,61.244
391.864,273.524,143.96
357.46,283.284,173.728
99.796,354.044,242.048
-15.372,482.876,232.288
23.912,520.696,125.904
26.596,512.4,113.216
-4.392,508.984,55.632
-51.484,565.836,-31.232
-269.376,701.5,52.216
-336.476,729.56,-8.784
-364.78,710.04,-8.052
-308.416,699.304,23.18
-299.632,732.0,-15.372
-502.884,894.992,-0.732
-558.76,1010.16,74.664
-437.248,1025.532,117.608
-278.404,1014.308,43.676
-296.704,1027.972,101.26
-363.56,1084.824,86.62
-455.06,1210.24,149.084
-354.776,1271.728,128.588
-253.516,1291.736,104.432
-191.296,1259.772,100.772
-138.592,1187.304,93.696
-131.272,1121.424,85.888
-123.952,1068.476,50.02
-131.76,1052.128,66.124
-77.348,1066.768,57.096
-78.08,1061.4,103.212
-47.336,1012.356,170.556
-33.428,958.676,225.944
-17.812,928.664,245.22
-25.62,930.128,243.024
-9.76,950.624,205.936
-48.312,974.536,142.984
-51.728,959.408,98.332
-46.604,975.268,101.504
-49.532,973.072,99.552
-54.412,946.964,83.936
-36.844,957.7,79.788
14.152,970.632,51.24
-3.416,960.384,31.232
-45.384,952.332,24.644
-60.268,960.384,24.4
-90.768,947.452,12.688
-107.116,958.92,0.976
-86.864,992.348,-5.612
-63.928,1014.552,-12.688
0.244,1028.46,-27.816
40.748,1023.58,-27.572
35.624,1026.752,-2.196
39.284,1025.044,16.836
15.128,1004.792,20.496
-19.032,1017.236,60.024
3.416,1013.088,64.416
-10.98,984.296,71.492
-34.648,968.924,93.208
-17.568,965.752,86.132
-27.572,948.428,77.104
-27.816,966.24,69.54
-5.368,989.908,33.184
-9.76,1000.156,16.592
43.676,1012.844,-33.184
23.912,1026.02,-28.304
7.564,1010.892,-21.96
3.66,1003.328,-6.344
-11.224,991.616,24.156
-59.536,968.68,51.24
-47.58,956.236,46.604
-19.52,959.408,28.792
-33.428,959.164,30.012
-6.588,968.192,5.124
34.648,990.396,-20.74
17.812,998.204,-10.004
-0.488,999.912,0.732
35.624,989.664,10.248
18.788,980.392,34.404
-2.196,989.176,51.484
55.388,1004.304,26.596
44.896,1003.572,19.764
23.18,1005.036,24.644
42.212,1015.04,10.98
20.008,1011.624,39.04
-4.88,994.788,59.292
-20.252,990.152,66.368
13.176,979.66,47.092
-1.952,968.924,50.264
-8.052,979.416,43.432
40.992,993.324,4.148
63.684,1006.744,-4.392
54.412,1024.312,14.64
56.364,1027.972,24.888
34.404,1022.36,48.312
25.132,1001.62,58.072
26.108,981.124,48.068
16.348,974.536,45.14
0.488,984.54,52.46
-6.832,982.832,37.332
-13.176,990.396,30.5
-10.736,985.028,27.816
-7.808,979.172,21.96
-19.032,980.636,45.14
8.052,983.076,31.964
1.708,988.2,40.992
12.2,998.692,45.628
27.328,995.032,28.304
6.832,986.248,44.896
20.74,991.372,35.868
32.452,992.592,21.472
-4.88,1000.644,48.556
3.904,999.668,29.036
-18.056,988.688,40.504
-36.6,972.096,54.412
16.836,970.876,20.984
20.008,980.392,32.208
-13.176,985.76,46.116
-31.964,988.2,53.436
-2.196,980.392,23.18
-10.492,977.952,30.988
8.052,986.004,16.348
31.476,995.764,-2.928
26.108,1011.136,20.74
48.068,1022.116,12.444
41.724,1018.7,14.884
38.552,1005.036,26.108
32.94,987.224,13.664
10.248,983.808,34.648
-4.88,989.664,37.82
-26.352,988.2,37.576
-18.3,977.708,40.504
-1.952,968.68,24.888
-6.588,968.192,27.816
1.464,978.928,26.352
-7.076,984.54,36.356
15.86,987.468,26.108
14.152,994.544,38.796
22.692,999.424,38.796
29.768,996.008,27.816
30.988,993.568,23.424
25.62,996.74,13.664
16.836,1002.352,11.712
-9.76,1007.72,20.496
-18.056,1003.816,34.892
-3.172,1001.62,21.96
-25.864,1039.928,33.428
-119.804,1134.112,46.116
-156.404,1262.944,-35.136
-296.46,1417.152,-199.592
-231.068,1468.636,-277.184
-289.384,1409.344,-254.98
-371.612,1263.432,-223.26
-326.228,1226.832,-114.68
-246.196,1244.888,-37.088
-170.556,1211.948,46.116
-353.312,1156.804,211.548
11.468,986.98,231.8
139.568,786.412,90.524
168.116,717.36,109.312
221.552,624.396,190.076
244.244,452.376,256.444
84.18,236.436,269.864
-14.152,144.448,180.316
50.752,102.236,-29.768
66.124,54.168,-167.872
10.492,-96.38,-35.136
-12.444,-312.32,94.428
-24.156,-520.696,129.32
470.188,-551.684,-144.692
598.776,-545.828,76.86
803.98,-646.844,144.448
833.016,-739.808,357.948
986.004,-823.012,210.328
1304.912,-773.724,173.728
1531.588,-737.124,354.776
1623.82,-799.832,393.084
1697.02,-793.244,370.636
1793.4,-668.56,189.344
1649.928,-559.004,183.244
1502.308,-546.072,198.86
1449.848,-568.276,239.12
1360.544,-572.668,293.776
1281.0,-523.868,270.84
1336.632,-458.964,147.376
1413.492,-418.216,108.824
1459.608,-425.78,111.264
1484.984,-429.928,164.456
1595.516,-414.8,209.84
1707.512,-406.992,211.304
1858.304,-404.308,230.824
1934.188,-450.18,261.568
1954.196,-503.372,337.208
1952.244,-567.056,396.256
2093.764,-585.112,378.932
2103.28,-650.748,439.444
1945.9,-752.252,416.02
1665.3,-717.36,372.588
1506.456,-629.764,289.14
1340.048,-543.632,270.352
1200.48,-579.988,214.964
947.208,-607.804,246.684
784.46,-608.78,244.976
503.86,-528.016,254.004
348.92,-441.396,223.016
261.812,-408.456,224.48
111.508,-289.872,180.316
24.156,-232.532,287.92
262.544,-235.46,164.7
167.628,-150.548,122.732
8.052,29.036,66.124
213.256,158.844,-144.936
357.46,149.084,-326.716
438.712,107.604,-471.652
722.24,53.192,-756.644
1037.976,7.32,-954.528
1125.084,-24.644,-1150.948
986.736,12.932,-1256.844
785.436,70.76,-1265.628
731.268,136.152,-1308.084
564.372,155.672,-1212.192
506.056,125.66,-1125.084
394.304,68.32,-978.684
346.724,50.752,-785.924
249.612,16.836,-602.924
284.748,-36.112,-437.248
183.976,-56.364,-207.888
77.348,-2.928,-8.784
-48.312,-31.72,173.972
-175.924,-42.7,358.68
-118.096,-34.892,474.092
-11.712,-82.472,535.58
179.34,-92.476,658.312
499.712,-114.192,732.732
644.648,-208.864,867.908
916.22,-296.216,941.108
1140.212,-322.08,1063.108
1313.696,-335.5,1115.812
1416.908,-311.1,1030.9
1510.848,-241.56,939.888
1480.104,-294.752,893.284
1400.56,-289.14,887.184
1418.86,-344.04,953.064
1405.684,-387.716,983.808
1464.488,-515.084,780.068
1696.288,-519.964,603.9
1777.296,-527.772,458.72
1730.936,-529.48,291.092
1515.728,-518.5,140.788
1644.072,-511.18,-101.016
1595.76,-492.88,-307.684
1407.88,-380.64,-340.868
1351.516,-398.208,-434.32
1548.668,-401.868,-644.16
1511.58,-344.528,-687.348
1275.388,-303.78,-639.768
1221.464,-277.672,-563.152
1131.428,-308.172,-473.848
1133.38,-310.856,-371.124
1112.64,-369.172,-179.096
1192.672,-436.76,-123.952
1174.128,-441.64,-64.66
1271.728,-424.56,-32.208
1462.048,-437.492,29.036
1383.968,-476.532,199.348
1235.86,-502.64,253.76
1467.416,-459.94,322.812
1580.388,-483.608,379.176
1343.952,-411.384,475.8
1063.596,-306.708,366.488
1088.484,-101.748,139.812
1109.956,30.256,163.968
1084.58,166.652,184.952
935.008,134.688,73.932
563.396,313.052,71.004
309.392,469.7,40.26
189.344,648.308,97.844
314.272,753.96,64.66
277.184,746.152,76.128
130.784,722.728,73.2
-132.004,742.736,102.236
-246.44,788.12,5.124
-244.976,813.74,-49.288
-244.244,849.608,-85.888
-247.172,890.356,-110.288
-240.096,935.008,-60.756
-282.552,895.724,15.372
-297.192,842.776,63.684
-225.7,838.872,80.52
-214.72,899.384,45.14
-214.476,958.432,-36.356
-310.612,976.0,1.952
-254.248,963.8,4.392
-258.396,966.972,61.244
-276.696,935.496,159.82
-272.06,908.168,158.356
-259.616,873.276,91.256
-263.764,912.56,101.26
-233.264,953.552,105.896
-229.848,965.264,121.268
-241.316,968.436,108.336
-241.56,980.148,42.7
-286.944,998.936,12.688
-250.832,1004.548,-21.472
-257.176,989.176,8.54
-216.184,971.364,47.092
-251.564,953.064,73.444
-299.876,933.788,66.612
-268.156,938.668,34.404
-258.64,977.708,24.156
-204.228,1043.832,-13.42
-164.7,1097.512,-38.308
-121.756,1112.64,-18.3
-84.912,1072.38,65.148
-82.472,994.056,100.284
-110.288,953.796,169.58
-147.376,957.456,184.708
-150.548,975.512,142.74
-142.496,1009.672,126.88
-121.024,1036.024,80.52
-116.876,1045.784,15.616
-127.124,1057.74,5.612
-71.492,1047.98,-15.372
-81.252,1037.732,-37.82
-108.092,1044.564,8.784
-106.628,1035.536,18.056
-80.032,1018.944,25.376
-46.848,998.204,19.276
-91.744,972.096,62.464
-77.592,957.7,70.76
-45.872,968.192,75.884
-71.736,959.408,98.576
-112.972,943.548,107.116
-101.992,926.956,73.932
-103.944,953.796,43.188
-107.848,981.368,16.836
-76.86,1008.452,-35.136
-62.952,1027.24,-44.408
-74.42,1023.336,5.124
-58.56,995.276,31.72
-35.868,981.856,71.248
-35.624,987.468,78.324
-46.604,994.056,66.368
-68.564,993.812,52.704
-113.704,977.952,67.832
-96.136,961.848,59.536
-78.812,968.924,52.46
-91.5,967.704,64.172
-102.968,959.652,64.904
-60.024,961.116,30.988
-58.316,981.612,39.04
-79.788,987.712,42.212
-79.056,989.42,29.036
-45.14,999.424,-5.368
-52.704,996.496,-5.856
-50.996,1004.304,-20.74
-39.772,1000.644,-20.252
-51.24,1000.888,15.128
-62.22,989.176,30.012
-56.12,976.0,43.432
-57.828,958.676,55.632
-69.784,952.088,60.756
-98.332,957.456,77.104
-113.216,956.724,75.396
-79.056,953.552,40.504
-69.54,981.124,26.596
-86.376,998.204,27.328
-93.452,992.104,29.524
-73.688,994.056,39.284
-94.916,987.956,54.168
-76.128,987.956,35.624
-53.192,998.448,9.272
-70.516,998.448,21.96
-94.916,995.032,23.912
-41.48,994.056,-3.416
-70.76,994.544,42.456
-96.868,988.444,62.708
-133.224,974.292,91.5
-110.044,965.02,100.528
-94.672,959.408,90.524
-29.524,975.268,56.364
-10.004,1005.036,42.212
-4.148,1022.36,47.58
-25.132,1021.628,50.264
-45.14,1012.6,52.704
-20.496,997.716,23.668
-30.012,983.564,6.588
-43.432,990.396,8.784
-48.8,995.032,6.832
-75.152,995.52,22.448
-93.452,991.616,42.7
-79.788,973.072,33.428
-73.444,966.24,29.524
-76.372,976.976,33.916
-80.764,992.836,41.236
-75.396,991.372,40.016
-63.684,973.804,38.308
-67.588,965.264,50.752
-68.564,968.192,57.34
-74.908,975.024,59.048
-61.244,981.856,34.648
-55.632,982.588,11.224
-61.0,991.372,5.856
-75.64,995.764,11.224
-73.444,986.248,22.448
-80.276,984.54,28.792
-89.06,988.688,40.26
-80.764,986.004,37.088
-66.612,985.028,25.62
-77.348,1013.332,19.764
-86.376,1053.104,21.716
-95.648,1082.872,2.44
-159.576,1140.7,11.956
-220.332,1203.164,-12.688
-254.98,1287.1,-172.752
-344.04,1345.172,-261.812
-331.596,1345.66,-297.68
-330.132,1318.576,-290.848
-269.62,1264.164,-200.568
-331.108,1246.108,-68.32
-418.46,1198.04,22.204
-248.392,1131.916,-0.488
-105.164,1046.516,-24.644
-3.66,1002.108,24.644
21.96,898.896,64.172
89.792,798.856,121.024
94.916,654.408,186.904
34.892,556.808,208.376
321.104,458.964,87.108
275.476,370.88,18.788
117.12,288.652,-18.788
205.204,287.432,66.368
235.704,131.516,88.816
151.28,-82.472,98.088
139.568,-143.472,249.368
137.372,-238.388,185.928
205.936,-307.928,79.788
222.772,-388.936,48.8
414.8,-374.784,42.944
464.332,-436.272,156.404
429.44,-548.268,238.876
810.324,-603.168,166.408
1101.172,-578.28,-10.004
1284.416,-525.088,64.66
1573.556,-610.244,100.04
1582.34,-738.1,198.372
1712.636,-784.704,292.312
1813.408,-843.264,321.592
1790.96,-789.584,383.08
1684.82,-686.616,339.648
1610.156,-608.78,282.064
1500.356,-587.308,289.384
1430.328,-546.56,219.112
1363.96,-512.156,153.476
1291.736,-498.98,210.084
1251.72,-517.28,204.96
1222.44,-507.032,176.412
1272.948,-479.46,142.984
1273.436,-429.196,111.264
1244.888,-406.748,161.284
1412.272,-380.64,181.292
1702.876,-321.592,119.072
1904.42,-350.384,261.568
2123.288,-561.444,259.86
2305.068,-730.048,250.588
2386.808,-827.892,301.584
2298.724,-877.18,314.516
2048.868,-937.692,370.88
1901.248,-940.864,411.872
1582.584,-886.208,402.6
1278.804,-804.712,406.016
1097.024,-797.88,313.54
903.288,-753.96,246.196
526.796,-709.064,325.984
320.616,-610.488,288.408
293.044,-512.888,229.116
43.92,-418.46,275.232
-81.008,-349.896,208.864
-7.32,-237.168,186.904
61.0,-109.8,52.704
218.624,-29.28,-206.424
377.224,-20.74,-499.712
528.016,-7.076,-668.316
800.564,71.004,-927.2
811.056,83.692,-1015.284
728.828,98.332,-1122.156
701.744,136.396,-1163.392
624.884,151.036,-1164.612
592.92,200.08,-1112.884
452.376,182.024,-1075.796
361.364,200.568,-963.312
317.2,148.596,-836.432
319.152,40.748,-659.776
148.596,16.592,-415.044
6.832,36.844,-174.46
-118.828,82.472,18.3
-153.232,90.768,194.712
-165.92,72.712,345.504
-51.728,-13.908,483.852
52.216,-106.872,639.524
141.032,-158.844,665.388
335.012,-97.112,630.008
519.476,-152.256,562.42
768.6,-229.36,563.152
929.64,-230.336,686.616
1115.324,-272.304,694.424
1130.94,-391.132,751.52
1312.476,-363.56,704.184
1431.304,-254.248,673.196
1408.612,-286.212,655.384
1607.228,-340.624,545.096
1590.636,-399.428,627.08
1642.364,-460.916,701.744
1660.42,-531.432,618.052
1768.512,-515.572,454.572
1788.032,-480.924,374.784
1706.536,-529.236,265.228
1589.416,-491.66,169.824
1513.776,-403.576,82.228
1429.596,-369.904,26.352
1484.496,-350.14,-183.244
1403.732,-317.688,-290.848
1274.9,-215.696,-356.484
1268.8,-156.16,-451.4
1132.404,-115.168,-427.0
1084.58,-108.824,-428.22
1169.004,-131.516,-452.376
1173.152,-154.208,-462.868
1156.072,-172.996,-436.028
1151.68,-196.908,-314.028
1112.396,-247.172,-212.768
1106.784,-272.06,-159.576
1156.56,-269.132,-136.884
1136.796,-278.892,-114.436
1158.024,-273.036,-52.46
1084.58,-293.532,11.712
1090.192,-305.0,55.388
1129.232,-325.496,96.868
1174.616,-382.104,191.54
1259.772,-455.304,187.636
1353.956,-471.652,218.38
1426.18,-514.352,274.256
1238.788,-661.972,389.912
1136.308,-548.024,317.444
1288.076,-391.376,187.88
1457.168,-300.608,137.86
1197.552,-341.844,202.276
945.012,-295.24,160.796
837.896,-117.608,191.54
797.148,33.184,157.136
834.48,177.876,35.624
776.408,286.7,69.052
620.004,348.676,147.376
436.028,435.052,255.224
381.128,498.248,238.144
330.62,581.208,161.528
331.352,689.788,59.536
306.22,790.316,95.892
185.928,838.872,144.692
44.164,841.556,156.16
57.828,846.436,85.156
-54.9,868.884,126.148
-194.712,938.424,153.72
-195.932,941.84,106.628
-294.752,930.616,117.364
-282.552,930.616,66.368
-402.356,962.58,129.808
-456.768,980.636,74.42
-451.156,1002.352,54.168
-330.62,1011.624,-32.696
-205.936,1000.644,-160.308
-277.672,1002.108,-103.944
-319.152,1035.78,50.508
-318.42,986.98,71.98
-298.168,939.4,0.0
-315.492,971.364,-2.44
-358.68,1025.288,-8.052
-358.436,1056.032,-12.932
-321.592,1043.1,-2.196
-329.156,1003.328,-16.104
-251.564,971.364,-90.036
-203.008,989.664,-132.492
-154.452,1027.484,-102.48
-83.692,1034.56,-81.496
-90.524,998.692,-25.132
-105.652,987.956,-12.444
-160.064,967.46,30.744
-172.996,968.436,56.608
-139.568,985.028,42.212
-160.796,978.44,46.36
-115.412,959.896,3.172
-56.364,985.028,-35.624
-72.956,991.616,-37.82
-37.332,999.424,-50.752
37.576,1019.92,-101.016
-3.904,1028.46,-84.668
-70.516,1017.48,-58.316
-99.796,1010.404,-31.232
-113.704,992.592,-19.52
-75.152,968.192,3.66
-41.236,979.66,22.204
-29.036,974.78,20.74
-33.916,968.68,48.556
-26.84,967.948,98.576
-26.108,952.576,111.752
-39.284,940.864,137.616
-11.468,962.092,120.048
-28.548,985.76,89.548
-55.876,986.248,67.1
-76.86,979.66,40.748
-38.552,983.076,-16.592
-50.02,1000.156,-38.796
-64.172,1011.38,-47.336
-48.068,1024.068,-52.216
-43.92,1034.804,-36.844
-4.392,1037.244,-1.708
15.616,1018.7,25.376
41.48,984.052,28.06
21.716,964.776,71.736
-14.152,949.16,91.744
-47.336,954.284,122.732
-7.076,963.312,102.236
-22.692,973.316,101.992
-29.28,983.564,86.62
0.976,1003.084,61.488
-16.592,1006.012,45.384
-29.036,994.788,26.108
11.224,1004.792,-7.808
-1.952,1013.332,-2.928
-37.82,1012.6,19.276
-26.352,1015.772,22.936
-22.448,1008.94,18.544
-19.276,986.736,30.012
16.348,983.808,19.276
10.004,984.54,38.308
-4.636,980.636,55.144
3.416,974.048,54.656
-1.708,976.976,65.148
-25.62,978.44,92.476
-8.784,995.032,89.792
13.42,1001.376,82.228
13.176,1000.156,81.74
35.136,989.908,59.292
56.12,994.056,27.328
37.82,998.936,45.14
15.128,1002.596,43.92
-29.768,993.568,63.928
-59.048,985.76,65.636
-65.392,975.756,53.68
-46.604,970.876,38.308
-42.7,967.46,29.768
-46.848,966.972,26.108
9.028,978.684,8.052
18.544,988.444,2.684
3.172,990.64,17.324
13.664,996.496,16.592
31.964,1002.596,10.004
3.904,1002.108,40.016
-24.4,994.544,55.144
-9.516,986.98,47.336
-11.712,975.024,61.976
-20.74,978.928,69.54
30.988,992.348,37.332
23.18,1010.892,53.924
23.424,1013.088,63.196
17.812,1003.084,64.416
15.128,985.516,69.296
46.116,976.488,43.92
18.544,978.684,53.68
-6.588,970.388,56.364
-25.132,975.756,52.216
-20.984,988.688,51.24
-15.616,999.424,48.312
21.472,996.496,39.528
31.232,992.104,43.188
23.424,991.128,70.028
24.888,986.98,73.688
13.176,966.484,77.836
21.716,969.412,61.488
10.736,972.828,56.852
15.86,982.832,46.36
-26.108,1006.256,64.904
-54.9,1018.7,79.056
-26.596,1029.436,61.244
-1.952,1020.408,50.02
18.544,1002.352,21.716
33.672,993.568,6.344
19.032,990.64,12.688
9.76,988.932,19.276
-20.496,975.756,59.048
-14.396,962.824,69.784
-9.272,961.848,77.104
-18.056,962.58,97.112
14.152,965.752,75.396
5.612,971.364,77.104
2.196,975.512,57.584
-18.788,986.736,54.9
-34.892,1000.644,47.336
-19.276,1004.792,38.308
-27.084,1001.864,48.312
-14.152,1002.596,39.04
-15.372,1010.648,39.528
-14.396,1048.468,41.48
2.196,1111.176,49.044
19.276,1155.828,62.952
38.552,1191.94,70.028
-10.492,1254.16,94.428
-82.96,1326.628,131.028
-187.148,1407.148,153.476
-215.696,1434.72,167.872
-203.252,1448.384,165.188
-165.676,1477.664,151.28
-122.244,1452.044,166.652
-163.724,1392.996,208.62
-137.86,1295.396,243.268
-95.16,1189.5,240.828
-97.6,1148.752,184.952
-21.96,1106.54,210.328
-17.812,981.612,152.744
-139.568,903.776,118.828
-190.808,819.352,166.652
-170.8,701.256,224.48
-100.284,545.34,134.932
-58.804,458.232,71.492
-81.74,356.728,-27.816
51.972,319.64,-84.668
184.464,203.496,4.392
1.464,-26.352,82.472
108.824,-141.032,180.072
176.412,-252.784,88.328
144.692,-314.76,6.832
105.164,-356.484,25.376
78.812,-472.384,12.688
363.072,-541.924,15.616
503.128,-640.012,189.344
657.092,-706.868,94.672
641.72,-631.716,144.448
874.008,-609.512,166.896
1362.496,-594.14,51.972
1734.108,-575.108,-64.172
1784.86,-591.7,-21.472
1840.736,-538.752,85.4
1796.816,-521.916,123.464
1692.872,-533.628,177.876
1623.82,-552.416,205.448
1590.88,-568.52,255.956
1370.304,-581.452,364.048
1277.096,-559.98,394.06
1297.104,-563.152,318.42
1316.38,-533.872,230.58
1317.356,-474.336,188.612
1266.116,-448.716,180.072
1268.8,-434.076,208.132
1427.644,-447.74,172.02
1423.74,-458.964,252.052
1529.392,-459.208,273.524
1625.528,-478.972,330.132
1728.008,-479.948,403.088
1867.82,-514.108,384.056
1934.92,-547.048,396.012
1958.344,-531.188,392.108
1915.644,-519.964,374.784
1848.788,-474.336,423.34
1759.484,-440.664,411.14
1712.148,-424.56,335.5
1494.256,-398.696,275.476
1310.28,-391.132,243.268
1150.704,-408.944,266.692
874.984,-437.736,333.792
660.508,-466.284,386.252
466.528,-455.06,376.98
182.268,-334.768,371.368
167.14,-230.824,208.132
67.832,-180.804,146.644
73.444,-55.876,58.56
113.216,-9.516,72.468
43.432,-7.564,-23.912
305.244,86.62,-349.896
582.672,186.904,-625.128
707.356,231.8,-775.676
778.848,240.34,-957.944
963.556,178.12,-1051.396
977.952,162.504,-1175.348
984.54,228.872,-1319.308
964.776,249.612,-1359.08
948.184,208.62,-1355.664
808.86,154.208,-1315.404
679.784,99.308,-1183.888
527.772,95.648,-980.636
318.664,105.652,-875.472
162.26,89.304,-736.148
30.988,91.256,-587.064
-34.648,31.72,-378.2
-85.888,-40.504,-137.616
-93.208,-82.96,14.396
-167.872,-187.392,206.424
-145.424,-218.136,491.172
49.044,-325.984,725.412
207.644,-378.444,1051.64
289.14,-325.008,1078.48
351.36,-236.924,1047.736
714.432,-117.364,969.656
834.724,-69.784,977.952
807.884,-139.568,1064.084
1050.908,-175.436,1025.044
1219.512,-153.232,996.496
1356.64,-186.172,998.692
1582.096,-253.028,838.628
1625.772,-264.252,849.852
1718.736,-306.708,865.956
1830.976,-347.212,826.428
1882.948,-393.816,667.096
1922.964,-450.424,615.124
1850.984,-510.448,723.46
1641.876,-660.02,769.82
1525.976,-784.704,632.692
1660.42,-810.08,201.788
1674.084,-707.356,-102.236
1541.836,-574.132,-304.512
1459.12,-475.556,-505.568
1288.808,-376.98,-558.272
1148.996,-289.872,-578.036
1101.172,-281.82,-599.508
1150.46,-299.876,-674.66
1160.952,-289.384,-647.088
1026.264,-264.984,-526.552
978.928,-262.3,-373.076
1055.544,-272.548,-398.452
1103.612,-269.132,-303.536
1063.596,-278.404,-215.208
947.452,-282.064,-59.048
974.048,-285.236,9.516
990.884,-305.244,12.444
1033.096,-274.988,31.964
1045.296,-297.192,100.528
1090.68,-299.144,132.004
1117.276,-285.968,168.848
1237.812,-285.48,151.768
1365.912,-366.244,174.948
1206.336,-468.48,348.432
1379.576,-475.556,318.908
1611.62,-431.148,195.932
1452.532,-428.22,250.588
1127.036,-405.284,203.252
780.068,-251.076,150.792
1163.148,-87.352,226.92
1354.688,-94.184,104.676
1127.036,-89.548,71.004
703.208,34.892,221.552
418.948,237.656,273.768
338.184,428.952,162.016
532.652,470.676,123.22
647.088,448.472,149.816
427.244,492.88,204.716
144.692,663.68,252.54
131.76,782.752,165.188
237.656,789.828,108.092
185.44,747.372,125.904
62.464,749.08,77.348
-198.128,877.18,151.28
-288.164,924.272,120.048
-249.124,890.6,42.456
-192.76,858.88,61.732
-244.976,842.288,119.316
-358.192,882.304,122.976
-521.672,956.48,179.096
-579.256,970.144,165.188
-499.956,978.684,176.412
-373.808,962.58,205.204
-415.532,961.36,232.044
-457.744,1002.596,236.924
-470.676,1068.72,213.988
-380.396,1098.0,195.932
-263.276,1105.564,153.72
-174.704,1104.832,138.104
-103.944,1107.272,139.324
-17.812,1076.528,118.34
-32.452,1037.0,192.272
14.152,1013.088,210.572
20.252,991.372,280.112
-28.304,962.58,355.264
-121.268,957.7,376.004
18.056,963.556,202.764
-6.588,979.416,131.516
-66.368,1011.136,94.672
-95.404,1045.296,51.24
-75.884,1040.416,24.888
-146.4,1012.6,68.808
-54.9,991.616,41.724
-12.932,969.656,64.172
-40.748,968.924,145.668
-30.744,989.908,186.172
-1.952,984.54,222.284
16.104,965.264,200.324
11.468,952.82,142.74
7.32,965.996,121.024
-9.028,998.204,85.644
-23.912,1013.576,54.412
-37.332,1005.524,64.172
-18.3,1003.572,29.768
-24.888,1012.112,24.156
-33.672,1005.036,18.544
-38.064,983.32,0.732
-56.12,998.692,12.444
-55.388,1005.524,14.396
-53.192,994.3,39.772
3.416,999.912,43.432
21.228,997.716,88.572
37.088,977.22,127.612
48.8,963.312,141.52
39.04,973.072,141.032
13.42,990.152,143.472
-6.344,988.688,126.636
-20.252,991.372,132.492
-33.184,993.812,112.484
-28.06,995.032,91.256
-33.428,1003.816,87.108
-65.148,993.568,82.228
-69.784,962.092,59.048
-36.112,976.0,24.888
-12.688,999.18,26.596
-30.5,999.18,27.328
-7.808,1002.596,27.328
-18.056,1004.06,53.924
-33.184,976.732,72.712
-25.62,960.14,95.16
-22.448,964.532,114.924
-14.64,979.904,105.652
-17.08,995.032,102.48
-18.056,995.032,100.772
-22.204,984.052,116.144
-19.032,970.388,125.904
-32.208,967.216,124.196
-31.476,985.028,104.676
-29.524,993.324,103.944
-49.532,974.292,92.476
-19.52,960.14,54.656
-33.428,974.78,75.396
-52.948,980.636,81.008
-68.32,980.88,73.932
-38.796,1003.816,63.684
-40.748,1007.232,63.44
-6.344,981.368,45.872
9.516,977.952,49.532
-0.244,985.76,74.664
6.588,1005.768,53.68
2.684,1017.724,59.048
-8.296,1009.184,63.196
-32.208,998.692,74.42
-53.924,979.904,92.72
-73.688,959.652,96.868
-37.576,956.48,70.76
-34.892,968.924,79.788
-53.192,979.172,83.936
-4.392,997.716,38.064
-2.928,1020.164,26.596
6.832,1022.36,12.444
7.32,1013.088,29.768
1.464,998.448,65.392
-0.488,988.932,82.716
-22.204,986.004,98.088
-8.54,990.152,64.66
-23.18,986.492,54.656
-33.672,981.856,45.872
-40.016,985.76,44.896
-64.172,982.1,60.268
-41.236,973.56,39.284
-41.48,984.296,48.8
-55.144,983.564,66.856
-36.112,974.78,75.152
-28.792,968.192,89.792
-0.732,976.732,77.592
3.416,985.272,62.952
3.416,1002.108,50.996
-4.88,1009.428,42.944
-17.08,1009.916,52.704
-22.936,997.228,63.196
-25.62,979.172,50.752
-47.58,973.804,66.856
-23.18,979.172,44.164
-41.724,986.98,51.972
-53.436,992.348,64.172
-56.12,995.52,59.292
-56.852,976.732,73.688
-2.928,961.36,34.892
2.44,978.928,57.828
-19.52,991.128,69.784
-46.36,998.448,78.324
-17.324,999.424,55.388
-6.344,1001.376,36.844
4.148,1002.108,29.036
-4.636,995.276,52.704
-19.764,993.08,68.32
-37.088,992.836,89.304
-41.724,995.276,82.716
-47.58,980.148,79.3
-61.0,979.172,89.792
-35.868,986.492,65.392
-39.04,1009.428,68.564
-51.484,1038.22,63.684
-74.908,1064.572,74.176
-73.932,1078.48,19.764
-108.824,1105.32,3.904
-229.36,1105.076,40.016
-213.256,1077.016,59.78
-328.912,1060.668,101.992
-325.984,1040.66,150.792
-308.416,1007.232,133.224
-387.472,959.164,147.864
-113.948,856.44,90.768
14.396,783.484,51.24
-18.788,714.92,62.22
55.876,684.42,148.596
90.036,608.048,219.356
221.064,544.364,131.272
189.1,547.78,130.052
-7.808,458.476,161.772
167.14,385.276,23.668
-11.956,248.392,61.244
327.204,202.032,-16.592
297.68,31.72,-37.576
174.948,-79.056,150.792
185.196,-258.64,242.536
752.008,-407.48,-200.812
796.904,-335.744,-117.608
462.868,-425.78,103.212
1047.492,-606.34,123.952
1578.436,-807.396,114.192
1693.604,-897.432,341.844
1757.776,-805.688,286.7
1572.092,-697.352,164.7
1785.348,-645.136,106.384
1947.608,-685.64,87.596
1765.34,-746.64,300.608
1631.628,-748.592,388.204
1426.18,-669.048,406.016
1421.3,-514.596,182.512
1358.836,-398.452,82.716
1196.088,-390.644,112.484
1148.02,-409.676,144.204
1175.592,-416.752,136.396
1184.376,-410.408,147.62
1217.316,-425.292,132.004
1270.264,-414.068,159.088
1408.612,-419.924,214.72
1578.436,-414.312,265.96
1767.292,-429.684,393.328
1931.504,-534.36,525.576
2373.144,-605.12,512.644
2522.228,-677.832,389.912
2319.952,-534.604,345.504
2285.548,-417.728,219.356
2064.972,-383.568,192.028
1899.54,-410.408,293.532
1725.568,-418.216,366.732
1583.56,-434.808,460.916
1409.588,-442.86,452.376
1064.816,-375.028,407.48
941.84,-404.308,297.924
592.676,-419.192,233.996
409.676,-383.568,175.924
12.2,-371.612,232.776
-184.952,-348.92,201.788
-296.948,-318.664,304.512
-351.848,-208.62,304.512
-365.268,-80.032,312.808
-199.836,-7.564,188.612
78.812,52.704,-79.788
458.476,114.924,-421.876
728.584,71.736,-826.916
1021.384,47.824,-1077.748
1127.28,-25.376,-1256.356
1033.34,-25.132,-1305.888
932.812,22.692,-1340.292
837.652,-1.464,-1252.208
648.796,9.76,-1120.448
422.364,56.608,-1024.556
104.92,78.324,-865.712
12.444,134.2,-742.98
-99.064,65.88,-540.704
-8.296,-20.74,-337.94
-37.82,-130.54,-120.048
-80.52,-161.772,66.368
22.936,-189.588,178.608
70.76,-253.516,322.812
151.768,-253.272,441.152
247.416,-231.068,567.544
340.136,-187.636,626.104
605.12,-153.232,622.444
841.312,-103.456,772.992
939.156,-136.152,942.572
987.468,-195.2,1185.352
1288.564,-269.864,1127.768
1473.028,-314.516,1073.6
1510.848,-267.424,1009.184
1457.168,-230.336,975.024
1429.108,-255.224,874.74
1498.16,-258.64,664.656
1662.372,-223.016,460.916
1745.82,-244.0,339.404
1668.472,-272.06,316.956
1663.348,-307.44,189.344
1619.672,-285.724,188.856
1692.872,-329.888,61.0
1678.72,-375.272,-42.7
1652.368,-352.092,-132.736
1546.96,-324.52,-146.156
1417.152,-323.056,-134.2
1343.708,-346.48,-159.576
1307.352,-338.184,-230.336
1284.172,-309.88,-284.504
1202.188,-262.3,-274.988
1082.872,-224.968,-210.328
1126.06,-226.92,-256.444
1111.664,-205.936,-290.36
1061.644,-166.164,-293.288
1072.624,-168.848,-214.72
1064.084,-216.916,-136.64
1029.192,-251.076,-71.736
1077.748,-231.556,-24.4
1050.42,-221.796,29.524
1046.272,-209.596,54.412
1037.732,-203.74,90.768
1038.952,-184.708,104.92
989.664,-192.028,111.752
1054.568,-202.032,141.52
1111.176,-253.516,173.484
1226.588,-298.656,202.764
1264.896,-338.184,284.748
1367.132,-349.896,310.856
1229.76,-430.904,365.512
1057.74,-350.628,339.404
1287.1,-274.744,271.816
1443.26,-256.932,237.9
1437.648,-281.332,262.788
1282.464,-249.368,247.172
1085.068,-175.436,254.492
1038.464,-57.828,249.124
1093.12,11.956,178.608
1090.436,86.132,111.02
1130.208,158.6,46.116
870.836,209.352,188.612
602.436,294.02,325.008
704.184,324.52,181.536
639.524,447.252,167.384
516.548,544.852,129.808
297.68,620.492,235.216
287.188,694.912,204.96
195.688,733.22,214.964
123.464,793.732,214.964
88.328,835.7,166.164
-4.88,820.816,211.548
-33.672,827.892,171.776
-92.964,850.584,153.476
-151.28,886.696,145.424
-202.276,928.664,116.876
-303.78,952.576,104.432
-389.668,968.924,119.804
-326.228,952.576,80.276
-306.22,944.036,65.636
-313.296,984.784,166.408
-200.324,975.268,187.392
-233.02,938.668,193.248
-269.132,937.448,226.92
-249.856,932.324,229.604
-200.812,931.592,172.752
-199.836,986.248,136.884
-196.664,1044.32,122.244
-204.96,1084.336,132.736
-137.616,1077.992,66.856
-117.852,1067.744,16.104
-94.916,1068.232,-8.296
-88.572,1048.956,16.104
-36.844,1004.792,-8.54
-9.272,986.248,31.72
-31.964,981.612,53.924
-52.46,971.364,79.544
-69.784,957.7,125.416
-31.72,927.688,106.14
-42.212,937.936,100.772
-1.464,974.292,51.972
16.592,990.884,-21.472
-37.82,1005.28,-10.492
-36.356,1024.068,-20.496
22.692,1026.02,-74.664
-11.956,1018.7,-25.132
-82.716,1011.624,11.712
-79.3,993.08,5.124
-96.136,973.804,24.156
-123.952,953.552,42.944
-48.312,960.14,5.612
-37.82,978.928,26.108
-32.208,982.588,51.484
-3.904,991.616,70.028
19.032,989.42,92.232
59.292,988.932,111.508
91.256,978.684,83.936
34.892,984.784,65.392
-0.732,1008.696,35.868
-46.604,1007.964,19.276
-64.904,1000.888,12.2
-31.964,991.616,-18.3
-65.88,989.176,13.42
-31.72,988.444,3.904
-27.816,1003.572,21.472
-40.26,1001.376,54.168
-51.972,984.54,63.684
-21.228,983.076,62.708
-14.396,972.096,78.08
-40.748,965.996,87.596
-32.452,984.54,75.64
-27.084,989.42,76.128
-26.108,967.704,56.852
-5.612,978.44,25.376
6.832,1001.376,32.452
-29.036,991.616,40.992
-13.42,996.496,24.156
-18.3,1008.696,40.016
-57.828,1006.744,60.268
-60.512,982.1,50.02
-42.944,977.464,38.064
-47.336,975.024,50.02
-41.724,979.416,34.648
-23.18,992.592,24.644
-33.672,997.228,55.632
4.392,988.688,30.988
-7.808,988.444,54.656
-23.912,989.664,82.472
-0.244,989.42,46.848
-35.38,993.568,68.808
-49.776,986.98,73.2
-6.588,979.66,26.596
-19.032,982.344,47.336
-48.068,984.296,61.244
-47.092,993.08,54.168
-66.856,989.42,72.224
-68.808,982.344,76.616
-2.684,973.804,26.352
37.82,979.172,6.1
28.304,998.692,11.956
5.124,1029.192,21.472
-24.888,1037.244,54.412
-47.092,1016.992,78.324
-60.024,981.856,89.06
-37.576,949.648,67.588
-15.86,949.16,65.88
-18.544,971.852,72.468
-14.152,1001.864,68.076
-30.256,1016.26,90.28
-10.736,1003.816,80.52
10.492,992.104,60.024
38.308,996.984,44.408
38.308,1012.6,43.676
13.908,1014.308,65.392
-15.616,1002.108,70.272
-20.496,982.344,56.608
-5.856,964.288,12.688
-14.884,979.904,-2.196
-16.348,999.668,-7.808
-0.732,1001.62,-9.272
16.348,991.86,-0.732
26.596,977.22,16.836
10.736,971.12,52.216
-0.976,965.264,63.196
-17.568,972.828,94.428
-23.912,978.44,90.036
-40.016,975.268,69.052
-43.676,974.536,83.936
-37.088,970.876,69.052
-36.356,975.756,75.152
-36.356,988.2,89.304
-28.304,991.372,83.692
-24.644,994.544,74.42
-6.1,991.128,58.56
6.344,1000.4,50.508
2.44,1010.404,61.732
-6.1,1012.844,57.828
-17.08,1007.964,80.52
-12.932,1002.596,67.344
-30.256,994.3,84.668
-9.516,983.564,64.172
-13.42,983.32,63.196
-26.108,980.88,67.832
-30.012,977.22,57.584
-34.16,976.488,58.56
-19.52,975.268,53.68
-11.956,985.028,41.236
-9.516,985.76,58.316
3.172,986.98,51.24
0.976,988.444,65.88
23.912,994.788,36.356
7.808,996.74,46.604
2.928,997.96,33.428
-0.732,997.472,26.352
14.884,993.324,18.3
3.416,995.276,25.62
18.544,988.932,17.08
22.204,991.616,29.524
38.064,991.616,30.012
25.62,991.372,33.428
20.984,983.076,31.964
-0.732,969.656,38.308
-9.516,969.168,29.768
-28.304,1005.28,43.92
-62.22,1072.38,71.248
-55.632,1145.824,89.548
-57.584,1227.32,129.076
-128.588,1296.372,193.492
-144.204,1345.66,225.7
-126.148,1351.76,229.36
-96.624,1403.732,198.372
-129.32,1504.992,162.504
-73.932,1594.784,173.728
81.496,1476.932,123.22
177.876,1307.84,113.46
169.092,1207.8,169.824
162.504,1157.78,253.028
152.5,1034.072,300.608
120.536,987.224,239.852
293.044,953.064,156.892
247.66,835.212,-2.684
59.536,764.208,19.764
123.952,653.92,2.44
-102.968,548.268,119.072
-29.524,391.132,280.6
60.024,140.056,187.392
285.48,34.648,-122.244
169.58,66.856,-199.348
207.4,78.812,-137.128
263.276,-119.804,-13.176
406.26,-289.628,-60.024
394.548,-305.0,21.228
360.876,-267.18,38.796
360.388,-318.176,-20.74
360.388,-382.348,171.776
747.128,-470.432,121.268
843.264,-491.904,85.644
711.992,-409.92,187.392
1054.08,-396.256,53.68
1193.892,-437.492,54.656
1241.472,-471.652,70.272
1267.824,-530.944,164.944
1476.932,-547.292,135.42
1566.236,-567.3,176.656
1653.832,-584.868,110.288
1656.516,-562.176,174.704
1581.364,-569.984,213.988
1541.592,-553.636,228.628
1519.144,-509.96,168.36
1454.972,-459.94,126.88
1351.516,-413.336,109.312
1262.212,-416.996,152.744
1210.24,-434.564,193.98
1242.692,-403.82,151.036
1237.324,-362.34,103.944
1259.528,-350.872,148.84
1363.716,-366.976,195.932
1503.528,-349.652,256.688
1640.412,-379.664,327.448
1878.556,-358.192,313.296
2049.6,-385.764,299.876
2143.296,-366.488,374.296
2143.784,-422.364,401.38
2018.124,-464.576,497.516
1864.892,-484.584,524.356
1754.604,-469.456,466.04
1594.052,-450.424,304.512
1391.044,-436.028,255.712
1262.212,-445.788,154.696
1021.872,-432.856,157.624
759.328,-369.904,83.448
624.884,-362.828,40.016
487.512,-427.244,31.476
191.54,-439.932,164.456
24.156,-379.176,137.616
-149.084,-285.968,122.0
-112.728,-115.656,-28.304
163.968,-57.096,-302.316
206.18,-19.52,-461.16
360.876,17.324,-717.848
593.896,120.292,-1012.844
808.372,159.82,-1241.716
949.648,109.068,-1391.288
931.348,82.228,-1396.9
976.488,39.528,-1336.388
822.28,66.368,-1194.38
655.872,105.164,-1114.592
449.204,106.872,-996.496
320.372,45.628,-822.28
233.508,-2.44,-603.9
96.868,-52.46,-397.964
-50.264,-38.308,-178.852
-82.716,-47.58,-51.728
-94.184,-111.508,82.228
-121.024,-132.248,236.192
-59.536,-162.748,393.572
47.824,-157.868,595.116
304.268,-197.152,626.104
511.912,-187.392,741.028
694.912,-171.776,852.78
871.812,-209.108,919.392
956.236,-264.496,929.64
1119.716,-262.544,951.356
1332.24,-227.164,1060.18
1514.996,-359.656,967.704
1540.128,-433.832,930.86
1592.832,-436.516,931.104
1609.18,-412.848,978.196
1796.084,-518.256,867.42
1827.316,-572.18,785.68
1851.472,-519.72,629.276
1763.388,-483.364,563.152
1616.744,-541.436,432.856
1472.296,-511.912,347.944
1435.452,-506.3,309.148
1296.128,-534.116,163.724
1237.812,-493.124,-39.772
1267.824,-380.884,-320.616
1261.968,-267.424,-516.06
1231.468,-209.108,-621.468
1167.052,-177.144,-639.036
1205.36,-213.744,-656.848
1151.436,-265.716,-559.492
1118.252,-257.42,-504.836
1058.96,-253.516,-398.208
993.812,-219.112,-343.796
1037.976,-220.576,-284.748
1024.556,-240.828,-213.012
1092.876,-269.864,-179.828
1115.324,-279.136,-95.648
1123.864,-291.092,-23.912
1193.16,-364.536,61.732
1087.996,-426.024,125.66
1242.692,-393.816,144.204
1272.704,-354.532,161.04
1482.3,-368.44,140.544
1313.94,-423.584,210.572
1102.88,-367.952,197.64
1281.488,-236.68,126.392
1329.556,-137.372,152.012
1230.004,-138.348,178.12
1118.74,-120.78,228.384
992.592,-59.048,283.284
948.916,-3.172,160.064
907.436,133.712,143.96
774.944,212.768,168.848
606.096,322.568,252.052
480.68,356.728,300.364
347.944,474.824,259.128
244.732,586.088,203.984
300.364,678.076,93.94
130.784,746.884,111.02
-42.944,753.228,171.776
-67.832,692.228,135.908
-208.864,716.628,263.52
-229.604,655.384,224.724
-399.428,621.468,214.964
-476.532,624.152,213.256
-620.248,679.052,260.836
-726.144,768.356,321.836
-733.952,796.416,352.092
-761.768,784.704,388.692
-727.852,747.128,335.988
-646.6,737.612,277.916
-644.648,794.708,216.428
-681.004,927.444,147.864
-640.012,1014.552,141.276
-519.964,1022.36,168.848
-393.328,1013.332,213.5
-378.688,1007.476,243.756
-439.932,1000.156,239.12
-441.64,1014.796,220.088
-341.112,1043.832,149.816
-267.424,1087.508,85.156
-215.452,1164.368,19.52
-218.624,1153.388,58.072
-162.26,1072.136,84.668
-139.324,1014.308,160.796
-87.596,1019.188,212.768
-71.736,1029.192,239.12
-86.376,1001.62,233.996
-100.284,977.464,194.468
-128.832,978.196,183.488
-180.316,958.92,152.5
-168.116,945.012,85.644
-137.86,985.516,45.628
-155.672,1012.844,23.668
-142.252,992.836,-8.54
-127.856,989.908,-5.612
-151.036,979.66,58.316
-143.228,954.772,103.7
-110.288,953.796,117.852
-112.24,984.052,131.028
-40.992,983.32,58.072
-56.608,991.86,61.976
-82.716,982.588,98.088
-72.468,969.9,70.516
-72.712,965.752,73.688
-109.556,967.704,89.548
-130.784,974.292,95.648
-84.668,976.244,98.82
-90.036,974.048,117.12
-110.776,970.632,118.584
-71.004,976.0,73.688
-39.284,998.936,40.748
-39.04,1023.824,22.936
-13.176,1043.1,25.132
-9.272,1028.704,76.616
-20.496,1000.644,107.36
-43.676,972.584,129.564
-27.084,965.508,97.356
-55.388,969.656,77.836
-55.876,989.908,39.04
-55.144,1014.308,22.692
-75.884,1014.064,44.164
-69.052,991.372,62.952
-70.516,964.288,108.824
-56.852,946.232,111.996
-30.256,966.24,98.576
-24.156,992.104,86.132
-40.992,987.468,68.564
-53.924,991.86,72.468
-54.9,983.076,76.616
-52.704,962.58,61.0
-45.628,975.268,54.412
-32.452,997.716,62.952
-33.428,994.788,74.42
-38.796,993.08,89.06
-36.6,982.1,77.348
-43.432,983.808,58.804
-63.928,994.544,63.684
-82.228,990.884,68.564
-68.32,985.272,79.3
-53.192,984.784,87.352
-22.448,981.612,71.248
-17.08,992.104,69.784
-24.644,1000.644,81.984
-20.252,996.984,90.036
-25.864,993.08,106.384
-17.324,989.908,100.04
-8.54,985.028,71.98
-19.52,995.764,75.152
-26.84,1003.816,71.98
-22.936,992.104,68.32
-36.6,989.42,75.152
-29.524,994.056,59.048
-41.968,991.372,64.416
-69.54,976.244,81.008
-69.296,959.408,79.056
-38.064,968.436,73.2
-34.648,981.124,76.86
-58.804,981.612,89.304
-44.164,964.776,73.444
-19.276,979.66,65.636
-20.74,1002.596,66.124
-26.352,1003.816,61.976
-6.832,1001.132,58.072
-23.668,996.496,82.228
-31.232,985.516,86.864
-15.86,980.392,73.932
-17.324,982.1,78.08
-27.816,992.836,61.976
-48.068,990.884,70.516
-69.784,979.66,82.716
-53.68,970.876,75.884
-58.072,963.556,85.156
-73.444,965.264,92.964
-45.14,971.12,71.98
-30.744,980.392,78.324
-38.064,983.808,85.4
-2.928,989.908,63.196
-3.416,997.472,76.616
-10.004,997.472,79.056
-5.612,997.96,74.908
-18.3,995.52,90.28
-29.28,991.86,85.156
-16.104,994.544,74.664
-34.648,991.128,94.672
-39.284,985.272,83.936
-39.284,976.732,90.28
-51.972,974.78,103.456
-37.82,983.564,97.356
-18.788,973.316,97.112
-19.764,981.856,97.844
-17.324,992.348,91.256
-13.176,995.032,88.084
-22.448,997.716,105.164
-40.26,989.908,109.312
-55.144,974.78,114.924
-30.988,963.8,87.84
-34.648,971.608,85.888
-25.376,990.64,57.828
-5.612,1016.992,61.244
-2.928,1021.384,70.516
-7.076,1008.452,92.72
-2.44,986.248,98.82
-12.444,975.512,98.82
-1.708,983.32,91.012
-29.524,993.08,91.5
-21.228,989.664,92.964
-26.84,988.932,82.716
-32.696,983.564,90.28
-24.156,978.928,70.028
-33.184,976.244,86.376
-48.556,980.148,90.28
-30.256,986.004,91.744
-35.868,982.832,109.8
-18.3,984.784,92.72
-0.488,990.884,77.836
9.76,999.18,50.752
-15.372,1010.892,51.728
-129.808,1031.876,76.616
-83.204,1050.176,41.968
-58.072,1053.348,32.208
-55.144,1061.4,30.256
-80.764,1098.0,53.436
-96.624,1137.528,63.684
-133.956,1183.4,78.324
-60.756,1180.716,50.996
-75.64,1189.5,47.824
13.42,1162.172,-65.148
-54.168,1147.776,-84.912
-27.816,1141.676,-49.776
11.224,1076.528,-14.152
62.22,1021.14,86.132
164.456,957.944,94.672
94.428,853.024,84.424
-196.664,851.804,103.944
-53.68,775.188,66.856
-39.04,652.944,102.236
209.108,622.444,81.984
305.488,470.92,47.824
-44.164,348.92,214.232
157.136,221.064,211.304
261.324,85.644,131.272
210.816,-1.708,153.72
175.924,-63.196,232.044
389.18,-179.34,48.068
287.676,-301.34,184.464
502.152,-347.212,145.668
592.188,-361.608,145.424
601.46,-393.084,181.536
931.104,-431.392,59.78
1210.972,-467.992,48.8
1019.676,-549.0,284.26
1230.492,-668.804,418.46
1735.816,-758.596,258.152
1859.28,-706.38,261.812
1623.576,-583.404,329.644
1526.464,-535.824,320.86
1567.456,-539.24,233.508
1667.252,-505.324,168.116
1614.548,-480.924,196.42
1403.244,-466.04,275.232
1269.288,-448.96,300.364
1298.812,-398.208,209.108
1356.396,-349.896,100.528
1300.52,-315.492,115.656
1268.068,-298.412,152.012
1275.876,-301.096,181.292
1388.604,-286.944,179.584
1484.252,-256.932,178.12
1590.636,-258.884,240.828
1685.796,-264.496,315.98
1846.348,-282.796,308.172
1929.308,-302.072,297.68
2001.532,-276.94,233.264
1982.5,-323.788,299.876
2007.388,-395.28,350.384
1879.532,-450.668,399.672
1672.62,-469.456,393.084
1584.78,-430.904,339.892
1437.16,-407.968,287.92
1257.088,-398.208,256.444
1014.064,-385.52,274.5
738.832,-376.004,347.456
547.048,-366.244,320.616
602.924,-343.308,185.196
219.844,-294.752,227.408
119.072,-190.564,157.38
34.404,-168.116,117.12
89.304,-107.848,89.06
341.112,-173.24,42.456
367.708,-204.96,50.996
420.656,-118.584,-20.008
549.976,-27.572,-118.584
745.42,20.496,-328.18
877.18,92.72,-524.356
892.064,133.468,-599.508
1008.208,114.68,-775.432
1016.26,121.756,-863.028
1012.6,193.98,-986.492
941.352,274.988,-1076.528
884.988,290.116,-1175.348
815.448,238.388,-1101.66
615.368,178.12,-948.672
518.5,153.72,-772.748
410.408,94.184,-613.172
374.784,43.92,-498.736
226.188,14.152,-337.94
147.62,12.932,-240.34
118.096,-35.136,-115.656
121.512,-121.268,10.004
132.248,-174.704,202.276
47.58,-210.572,340.624
23.18,-244.244,437.736
211.304,-256.444,376.492
337.696,-140.788,398.94
217.892,-61.244,496.784
341.356,-114.924,540.216
707.112,-165.188,648.552
854.0,-213.5,844.728
1065.06,-300.852,825.208
1330.288,-360.144,861.32
1631.14,-348.432,863.516
1689.7,-352.58,864.736
1758.752,-385.764,800.32
1815.116,-360.388,715.164
1892.708,-307.928,621.956
1908.812,-343.796,502.396
1819.264,-353.556,413.336
1767.536,-294.996,355.02
1617.72,-303.78,280.844
1475.468,-301.828,235.46
1395.68,-289.628,174.46
1375.672,-314.028,52.216
1316.624,-312.076,9.516
1234.396,-270.596,-64.416
1168.028,-240.584,-144.692
1210.484,-194.468,-317.444
1247.572,-167.384,-478.484
1204.14,-125.904,-488.244
1230.98,-159.576,-469.456
1192.672,-207.4,-392.596
1144.36,-240.34,-350.384
1147.532,-236.192,-321.592
1142.408,-237.656,-316.224
1098.244,-251.076,-275.476
1132.16,-249.124,-247.904
1097.756,-253.516,-159.576
1070.672,-259.616,-100.528
1029.192,-253.028,-37.576
1030.412,-249.368,-1.22
1008.696,-267.18,53.68
1039.684,-292.556,70.272
1150.704,-334.524,110.044
1185.84,-363.072,150.792
1187.06,-358.924,163.724
1259.04,-356.484,186.66
1337.608,-398.94,230.824
1374.94,-458.476,352.336
1467.66,-442.616,306.22
1238.544,-403.82,353.556
1227.808,-305.244,266.936
1303.936,-238.876,176.412
1304.18,-195.2,221.064
1316.136,-155.916,137.616
1112.396,-62.464,131.272
880.596,127.856,147.376
717.116,246.44,163.236
756.156,337.696,55.388
882.06,396.256,-5.368
554.612,552.172,234.484
378.2,574.376,243.024
424.804,628.3,98.088
322.324,690.032,104.92
206.668,786.168,52.948
118.828,824.72,74.42
18.788,824.232,103.456
-8.296,820.328,118.096
-70.516,844.484,124.684
-129.32,892.552,97.356
-212.036,899.872,85.4
-184.464,862.54,5.856
-244.244,850.584,-10.98
-308.904,884.5,-23.424
-330.132,915.732,29.28
-234.484,922.564,86.62
-239.852,873.52,56.364
-312.808,835.212,89.304
-353.312,815.936,123.708
-403.088,809.836,172.752
-377.224,870.104,173.24
-377.468,920.612,141.52
-318.664,948.428,63.44
-260.104,952.82,-5.612
-246.684,957.7,26.596
-255.468,977.952,64.416
-315.004,1000.156,55.632
-340.868,997.716,28.06
-288.408,1016.016,-14.396
-244.488,1045.052,-32.696
-181.292,1067.256,-74.908
-138.836,1080.676,-45.628
-91.744,1060.18,-34.892
-71.736,1014.308,11.956
-64.66,975.024,87.596
-72.468,961.848,126.148
-91.744,961.848,153.72
-86.376,968.924,129.564
-109.068,989.664,114.924
-75.884,1006.5,38.796
-61.244,1039.928,-36.112
-63.44,1048.468,-71.736
-87.84,1027.728,-63.196
-104.188,997.716,-44.164
-125.904,976.976,-32.208
-117.364,979.416,-28.792
-116.876,981.368,-9.76
-128.588,972.828,9.272
-126.392,948.672,24.644
-83.448,927.932,-22.692
-77.104,965.264,-3.904
-85.156,988.444,16.592
-75.152,981.856,29.524
-59.536,981.124,40.26
-45.872,959.896,17.812
-64.904,959.896,31.964
-79.788,973.072,45.628
-101.992,996.008,38.796
-96.38,1014.308,36.844
-65.392,1012.844,-14.64
-52.46,1014.796,16.104
-38.308,995.276,31.72
-53.68,978.928,60.024
-66.856,976.976,87.84
-49.532,985.516,43.676
-64.904,1005.768,31.476
-56.12,1018.944,0.244
-76.128,1017.724,-10.98
-67.832,1013.332,-31.964
-89.548,1005.036,-43.188
-89.792,991.616,9.028
-99.796,965.996,21.716
-98.088,971.364,63.44
-81.008,971.12,42.7
-39.528,958.676,-8.784
-37.576,981.612,-32.696
-44.652,995.276,-35.868
-72.224,989.42,-0.488
-91.256,968.924,31.476
-93.94,952.82,56.12
-100.04,953.064,72.468
-94.672,948.184,73.932
-92.72,958.432,58.072
-69.784,981.124,41.724
-63.684,998.448,20.74
-61.732,1015.04,-13.42
-40.992,1032.852,-33.672
-44.164,1021.384,-39.04
-52.216,1006.5,-2.196
-64.416,998.204,32.208
-95.892,993.08,55.632
-78.812,987.712,38.796
-57.34,983.32,-3.416
-51.24,988.932,0.732
-71.248,993.568,16.348
-87.108,990.152,35.868
-77.104,979.172,29.524
-88.328,963.068,29.768
-93.452,955.748,38.064
-71.98,946.72,9.272
-68.564,958.92,26.84
-88.084,983.32,24.156
-71.98,1009.184,13.42
-62.22,1013.576,2.684
-26.596,1006.012,-19.764
-23.668,996.252,-3.172
-23.424,996.496,-0.488
-57.096,1001.62,7.808
-56.608,1000.644,4.88
-64.172,991.86,-0.488
-83.204,983.076,16.592
-85.4,971.852,11.224
-102.724,963.8,36.844
-107.604,968.68,41.724
-77.592,978.684,20.252
-67.588,978.928,39.772
-46.116,983.808,14.884
-20.74,993.568,-21.472
-39.04,1003.816,1.952
-54.168,1001.864,10.492
-54.168,988.688,21.96
-56.364,987.224,29.036
-59.292,986.004,15.128
-67.588,985.028,16.836
-80.764,990.884,6.832
-91.256,989.908,12.444
-83.692,987.712,9.028
-81.008,977.708,-0.244
-59.78,970.632,23.18
-49.776,974.536,15.372
-59.292,988.444,37.332
-64.416,985.516,24.644
-63.196,984.052,19.52
-51.728,991.372,2.196
-49.288,997.716,-9.028
-67.832,994.3,5.612
-72.956,989.176,10.492
-71.492,980.392,16.592
-73.932,977.22,20.984
-74.908,981.856,29.524
-74.664,984.54,20.252
-71.98,991.616,7.32
-59.292,997.472,2.196
-54.656,1000.4,3.172
-68.076,996.496,21.716
-69.784,987.956,35.38
-68.564,982.588,47.58
-76.616,979.416,48.312
-64.416,984.052,38.552
-60.756,1000.156,20.252
-54.412,1009.672,7.076
-52.216,1012.6,19.764
-58.56,1016.26,29.768
-82.96,1034.316,51.24
-104.676,1069.94,50.508
-91.5,1084.336,22.692
-62.464,1113.86,22.692
-162.016,1192.916,44.652
-165.188,1257.576,58.804
-172.508,1249.768,45.872
-277.184,1233.664,85.888
-370.148,1270.264,127.368
-305.244,1263.676,70.76
-215.208,1245.864,27.816
-198.86,1258.552,84.18
-205.692,1200.48,106.384
-271.328,1176.568,178.608
-235.46,1053.592,145.668
-55.388,973.804,49.044
-47.58,923.54,-56.852
221.308,866.932,-89.548
321.104,760.548,20.496
160.552,595.848,110.044
166.164,467.992,150.548
321.836,414.8,21.96
234.972,300.608,-32.94
195.688,266.204,-31.476
126.636,119.316,135.176
70.76,-70.76,319.152
348.188,-169.092,99.796
425.048,-197.396,-186.416
361.364,-158.6,-145.18
498.492,-200.812,-6.832
464.332,-301.584,108.092
432.368,-265.96,72.956
724.924,-191.54,-206.424
948.672,-191.296,-33.184
790.804,-320.86,124.196
960.14,-372.1,247.172
1073.6,-408.456,273.036
1349.564,-344.284,178.12
1517.436,-384.544,167.628
1687.992,-467.26,250.1
1808.284,-469.7,262.056
1772.172,-402.112,329.888
1681.648,-373.076,336.476
1654.076,-347.456,321.104
1517.436,-337.208,269.62
1443.992,-301.828,269.864
1439.112,-293.044,260.592
1457.9,-305.976,231.8
1582.096,-309.636,170.312
1681.404,-258.884,184.708
1675.06,-244.0,244.732
1799.256,-275.232,343.796
1948.34,-307.684,342.82
1923.452,-266.448,421.144
2077.66,-178.12,462.136
2151.836,-184.22,490.44
2184.776,-275.232,488.0
2242.116,-365.512,453.352
2036.668,-456.28,441.152
1809.26,-533.872,340.868
1683.112,-484.096,248.636
1418.616,-443.836,261.812
1269.044,-508.74,214.476
1050.664,-642.452,218.868
876.448,-620.248,228.14
573.888,-650.26,250.344
407.48,-523.38,149.328
151.768,-341.112,191.54
-68.564,-351.604,323.788
63.684,-399.428,308.172
197.152,-311.588,243.512
155.184,-180.56,-39.528
251.808,32.94,-381.372
517.768,60.024,-693.936
652.944,147.864,-985.272
591.7,246.684,-1119.96
653.188,237.9,-1152.168
757.62,196.664,-1106.784
740.784,146.888,-1067.988
630.008,161.04,-1011.38
468.968,192.028,-906.46
396.744,194.712,-844.728
173.24,231.8,-698.572
49.044,242.78,-578.036
-26.352,230.336,-427.732
-14.396,200.812,-390.644
-9.76,114.436,-218.624
-79.3,76.128,37.82
-233.996,58.56,217.892
-48.8,-40.748,285.48
323.544,-125.172,416.02
308.904,-71.004,632.204
158.112,-31.964,751.276
526.064,-60.024,627.324
820.328,-61.976,588.528
813.496,-121.024,737.368
1009.672,-222.04,890.6
1282.22,-352.824,985.76
1504.504,-389.912,1015.284
1621.624,-486.536,969.168
1524.024,-485.316,1038.22
1445.944,-438.956,1159.244
1626.992,-542.168,1027.24
1928.332,-635.376,778.116
1759.484,-625.372,757.132
1373.72,-502.152,967.216
1546.472,-584.624,728.584
1658.468,-678.564,350.628
1548.912,-593.408,119.56
1539.152,-531.92,-170.312
1466.928,-432.612,-376.248
1412.516,-322.568,-603.656
1261.48,-234.484,-646.356
1195.356,-201.788,-660.508
1134.844,-245.22,-634.156
1200.968,-269.62,-620.98
1195.112,-307.196,-547.536
1088.972,-344.284,-447.74
1158.268,-339.16,-448.472
1291.004,-376.004,-378.444
1426.18,-438.712,-306.22
1469.856,-533.872,-268.644
1463.756,-598.288,-149.328
1504.504,-597.312,-96.624
1576.484,-595.604,4.148
1554.768,-679.052,-65.636
1251.232,-567.788,-93.696
1283.44,-510.692,-0.488
1244.888,-535.824,5.368
1128.012,-467.26,9.76
864.492,-423.828,-15.128
696.864,-169.336,-62.22
609.756,15.128,54.656
640.5,73.444,-31.964
477.02,165.188,4.88
279.136,273.524,36.844
108.58,421.632,94.184
-27.084,563.396,98.332
63.928,579.256,30.744
25.132,628.056,34.16
-146.888,725.9,80.52
-360.632,806.908,86.132
-476.776,799.832,135.664
-485.316,801.052,165.432
-400.892,863.76,138.104
-556.808,957.212,240.096
-730.048,950.136,343.796
-761.036,879.376,337.696
-704.916,811.3,302.316
-589.992,827.16,320.372
-534.36,865.712,289.384
-598.288,929.64,300.12
-570.472,973.316,248.392
-528.016,1019.188,158.6
-495.32,1088.972,120.292
-482.388,1126.792,166.164
-408.7,1098.488,101.992
-359.656,1117.764,98.82
-291.092,1110.2,48.312
-245.708,1101.66,55.144
-170.068,1118.496,102.968
-88.084,1138.26,78.324
-38.796,1159.488,99.064
64.904,1162.66,26.596
37.82,1125.572,117.364
-16.104,1092.144,166.164
-4.392,1041.392,155.428
-82.716,985.516,211.792
-166.164,943.548,252.296
-91.744,927.688,176.9
-110.776,919.88,152.012
-82.716,949.404,107.116
-52.46,1004.06,38.064
-69.296,1022.36,52.46
-55.144,1020.652,83.936
-17.324,1010.648,94.672
-6.344,988.2,108.58
-22.692,983.808,81.496
-24.644,1007.964,75.396
-68.076,1000.644,77.104
-81.008,989.176,70.516
-77.104,984.052,72.956
-95.648,950.868,106.872
-100.772,912.804,99.552
-86.62,925.98,103.944
-42.944,956.968,86.864
-35.624,989.908,60.512
-30.744,1013.576,47.092
-57.584,1012.112,61.976
-23.668,997.472,38.064
-3.904,1011.624,64.904
-32.452,1010.404,111.508
-77.348,984.296,143.228
-76.86,961.36,152.012
-57.584,957.944,122.732
-36.844,943.304,82.228
-14.64,969.168,19.276
-27.328,1012.844,20.74
-59.048,1031.876,41.48
-77.836,1028.46,80.52
-65.148,999.424,95.404
-42.7,963.8,103.7
-21.472,958.188,117.12
10.004,961.848,98.576
-7.076,1000.644,102.48
-11.712,1026.264,89.304
-13.42,1020.164,59.78
-23.668,1005.524,45.872
-52.216,981.368,61.732
-82.228,963.556,69.296
-124.44,952.576,102.48
-131.272,963.068,117.852
-61.976,970.632,56.12
-48.068,981.368,68.32
-33.428,991.128,49.044
-36.112,993.08,64.66
-27.084,992.104,84.424
-43.188,977.22,96.624
-47.336,965.508,125.66
-54.412,961.848,131.028
-80.032,954.772,146.644
-72.224,966.728,130.052
-13.908,981.368,50.752
-6.1,1004.06,41.724
5.612,1019.188,5.368
-14.152,1024.312,34.892
-61.0,1009.428,91.5
-83.692,981.124,102.968
-71.248,969.412,107.36
-40.992,968.192,87.596
-41.48,982.344,90.28
-33.916,992.348,85.4
-25.132,996.984,83.448
-19.032,997.228,85.888
-20.008,992.348,84.668
-27.328,994.788,92.232
-20.008,1001.864,89.792
-2.928,998.936,81.252
0.244,998.692,69.784
-9.76,1001.132,82.472
-27.084,993.812,75.396
-43.92,982.1,80.032
-51.728,973.804,79.788
-58.072,977.708,71.98
-50.996,982.832,67.832
-50.02,981.612,76.128
-47.58,980.88,80.52
-59.536,1013.088,99.552
-78.812,1051.396,137.372
-53.68,1059.448,154.452
-22.448,1067.5,147.132
-35.868,1121.424,192.028
-96.38,1193.404,199.592
-79.788,1220.732,230.092
-177.388,1219.024,285.48
-290.604,1182.18,290.116
-306.22,1182.424,314.76
-155.184,1097.512,285.48
-93.452,982.1,141.276
-74.176,1013.332,185.196
114.924,920.856,122.732
164.456,854.732,122.0
263.276,843.264,222.284
173.484,808.616,112.24
2.928,801.54,158.6
136.152,678.32,42.944
213.744,529.724,-21.716
68.076,395.036,-85.4
115.412,301.584,2.684
196.908,132.004,65.88
405.04,-25.864,70.76
576.084,-108.092,-7.32
544.12,-139.324,-141.032
584.624,-104.432,-290.116
393.328,-185.196,51.972
609.268,-377.224,197.884
868.64,-484.828,340.136
1350.296,-513.132,254.004
1256.112,-422.364,167.628
1408.856,-210.816,111.02
1339.316,-251.808,253.028
1411.296,-304.512,252.052
1518.9,-330.132,195.688
1467.66,-291.336,294.02
1423.008,-287.432,281.332
1455.704,-302.804,286.7
1501.82,-349.164,318.664
1472.54,-373.564,399.428
1381.772,-372.344,467.748
1396.9,-361.12,402.844
1472.54,-324.52,316.224
1600.152,-275.72,223.748
1607.228,-225.212,225.456
1608.692,-185.44,210.572
1682.624,-183.732,262.544
1736.548,-212.28,295.484
1791.204,-254.492,366.732
1830.732,-267.424,357.948
1805.844,-271.572,397.964
1848.788,-254.736,365.756
1709.464,-220.576,477.508
1557.452,-193.492,461.16
1550.132,-162.016,345.504
1510.604,-146.644,233.996
1413.004,-153.232,182.268
1262.456,-162.748,181.78
1075.552,-198.86,228.628
886.696,-214.72,240.584
828.624,-284.26,204.716
556.564,-383.324,302.316
365.756,-386.008,349.652
232.044,-435.784,249.124
184.708,-382.348,285.236
127.124,-359.168,183.488
194.468,-316.956,-47.824
288.652,-193.736,-182.512
312.32,-102.724,-449.936
459.94,-30.988,-685.64
755.18,-58.316,-1010.648
923.052,-57.096,-1234.396
1043.832,-34.16,-1327.848
967.704,-76.128,-1293.444
839.604,-162.016,-1262.7
823.744,-251.564,-1220.488
679.296,-282.552,-1080.676
510.692,-267.424,-954.04
303.048,-222.528,-858.148
218.136,-200.08,-844.728
160.552,-146.644,-761.28
100.284,-133.224,-641.964
-88.328,-110.288,-430.904
-50.508,-117.12,-259.128
-23.18,-197.152,12.2
48.8,-188.368,272.304
45.384,-216.916,501.42
127.856,-157.624,652.456
309.636,-64.904,667.096
309.148,41.724,682.224
521.184,129.32,791.536
815.936,56.608,929.152
1101.904,-119.804,984.052
1304.424,-190.32,1157.536
1412.516,-201.056,1215.608
1357.616,-226.432,1087.508
1385.432,-212.524,964.044
1507.188,-263.764,869.616
1689.944,-384.3,763.72
1757.532,-492.88,488.488
1669.692,-482.388,348.432
1658.956,-519.232,334.768
1767.536,-593.652,186.904
1633.092,-644.16,104.188
1513.044,-632.204,17.812
1544.52,-640.012,-121.268
1421.056,-626.592,-145.912
1352.492,-637.816,-263.764
1261.48,-590.48,-318.176
1345.172,-526.796,-508.252
1292.468,-468.236,-595.36
1189.5,-398.452,-626.348
1083.604,-354.776,-543.876
982.832,-376.492,-448.96
936.228,-383.568,-404.064
908.9,-404.308,-284.26
981.856,-410.164,-266.448
1028.216,-388.448,-240.096
1094.096,-384.056,-151.28
1181.448,-423.828,-81.74
1236.348,-470.432,-17.568
1315.648,-468.236,-26.84
1184.62,-463.112,41.236
1216.096,-407.48,45.872
1192.428,-399.184,89.304
1269.044,-435.296,130.54
1294.176,-464.332,72.956
1017.236,-430.66,152.256
1014.308,-256.688,139.568
955.016,-205.448,230.092
956.968,-166.896,341.112
986.248,-211.792,179.096
881.572,-91.988,160.796
796.416,78.08,19.276
669.78,258.396,-51.728
558.76,337.452,26.108
564.372,343.552,1.708
395.524,402.6,62.464
161.772,487.268,114.924
127.612,608.292,106.628
169.824,674.66,47.336
144.692,770.796,61.0
85.4,814.716,30.012
-51.24,833.504,77.348
-177.876,870.104,77.104
-286.212,938.18,131.028
-395.036,1059.936,208.864
-379.908,1097.024,198.372
-403.576,1083.604,143.96
-465.064,1039.196,124.928
-378.688,968.924,115.412
-375.76,947.696,140.3
-347.212,956.968,154.452
-463.6,978.684,183.732
-513.376,995.764,194.956
-503.372,1015.04,235.46
-342.82,1044.564,182.756
-315.248,1098.976,179.096
-242.292,1129.964,169.336
-188.612,1105.076,113.948
-155.184,1104.588,90.524
-99.308,1157.536,102.724
-56.852,1190.232,104.676
-87.84,1159.0,172.996
-37.088,1042.124,132.004
-45.628,961.36,169.092
-65.636,953.064,188.612
-118.34,960.14,185.44
-138.348,968.436,145.912
-145.912,980.88,112.972
-132.004,963.8,64.904
-120.78,967.704,85.644
-81.74,981.124,64.416
-126.148,989.908,71.736
-116.144,993.324,85.4
-102.968,973.316,52.704
-96.868,949.16,32.696
-90.036,979.416,36.6
-64.66,994.3,20.984
-72.956,998.448,30.256
-39.284,1015.528,1.22
-52.948,1018.456,12.688
-66.368,995.276,16.348
-83.204,976.732,55.144
-102.236,950.624,79.3
-153.72,932.568,113.704
-117.12,936.716,104.432
-79.3,955.748,85.4
-71.492,961.116,86.62
-47.092,965.264,57.584
14.64,995.764,12.2
42.944,1036.268,3.416
54.656,1063.352,-7.076
-3.66,1070.916,66.612
-45.872,1030.412,110.288
-54.168,981.368,128.588
11.224,948.184,74.908
3.416,971.608,74.908
-25.132,989.42,70.516
-12.2,1012.356,37.576
0.488,1038.22,37.088
-35.136,1034.316,60.512
-60.024,992.836,75.884
-83.448,952.332,124.928
-97.356,927.688,162.748
-54.9,916.22,126.88
-24.888,957.7,90.28
30.988,1014.308,25.376
26.108,1052.86,-5.124
9.516,1059.936,15.128
1.22,1042.368,30.5
24.4,997.716,47.824
-1.464,961.36,57.828
-51.972,959.164,77.592
-86.132,976.244,96.868
-129.564,987.956,118.34
-127.368,984.54,125.172
-110.044,952.576,118.828
-58.316,921.832,94.672
-31.964,924.272,80.276
-54.656,943.304,102.724
-52.704,954.284,77.348
-33.672,1002.84,71.492
-32.94,1024.8,65.88
-66.368,1014.308,69.784
-56.12,999.912,67.832
-48.068,988.444,72.224
-53.68,979.904,73.2
-13.176,980.392,51.484
-27.816,991.616,67.1
-27.084,982.1,65.88
-6.1,982.344,51.728
-16.348,997.96,78.324
-37.332,999.668,87.84
-27.572,1006.256,87.596
-14.884,998.204,80.764
-26.352,986.492,78.812
-14.396,976.0,45.384
-5.368,984.296,38.796
-25.864,1004.548,53.68
-46.848,1013.332,75.64
-70.76,1013.088,107.604
-84.18,989.664,121.756
-37.576,955.992,82.96
-41.236,954.772,88.084
-44.164,965.264,92.232
-73.932,971.608,91.012
-38.308,982.832,81.252
-34.648,984.54,91.256
-16.104,985.516,78.812
-7.32,995.52,67.588
-32.94,999.668,81.984
-32.94,989.664,65.392
-28.304,990.64,61.732
-47.824,992.592,83.448
-72.956,987.468,94.428
-44.408,980.88,82.228
-3.904,973.072,52.948
-1.708,985.028,58.804
3.416,1000.644,54.168
-13.664,1008.696,71.004
-33.184,1009.428,103.944
-27.572,991.372,95.16
-12.688,972.34,72.224
-23.18,979.416,79.056
-27.572,988.2,68.076
-50.996,994.056,76.372
-46.604,984.296,83.448
-31.964,973.316,76.372
-39.284,972.584,86.864
-26.352,980.88,81.74
-29.524,978.196,82.228
-41.48,976.0,95.404
-20.008,983.076,76.372
-21.228,984.784,81.74
-26.352,978.196,87.108
-23.424,988.688,71.248
-29.524,994.056,80.764
-31.72,993.08,83.692
-8.54,982.344,73.2
-11.712,984.296,91.5
-8.54,994.056,83.448
-5.368,1000.888,75.64
-16.592,1005.28,67.832
-28.548,997.96,74.908
-35.38,987.712,79.3
-43.92,975.024,87.596
-30.012,973.072,73.444
-44.652,988.932,81.984
-48.556,1006.256,83.936
-53.436,1013.088,88.084
-30.256,1025.288,78.568
-30.744,1037.0,74.176
-39.528,1067.012,80.032
-38.552,1083.848,78.568
-72.224,1084.58,70.76
-96.624,1086.532,61.732
-133.224,1108.004,77.592
-153.72,1117.032,98.088
-146.4,1132.648,109.556
-99.308,1144.604,113.46
-84.18,1167.784,137.372
-62.22,1164.612,138.836
-58.56,1130.696,152.012
-114.192,1081.408,191.296
-135.42,1043.588,219.112
-75.64,988.2,201.056
-32.94,930.372,155.184
29.768,869.372,91.256
24.4,779.336,26.84
-19.52,731.268,-10.492
-138.104,628.544,-19.764
3.172,556.076,19.52
47.824,405.284,44.408
375.516,256.2,50.264
182.512,62.464,163.48
409.188,56.12,226.92
560.956,-49.776,206.424
577.06,-78.568,107.848
565.836,-88.328,145.424
440.908,-144.692,255.224
702.476,-189.832,89.304
997.96,-283.284,29.768
867.908,-332.084,116.388
1128.012,-333.06,284.992
1068.232,-414.068,400.892
1234.152,-405.772,321.836
1419.836,-387.716,73.2
1368.84,-395.524,81.984
1473.272,-392.84,173.484
1498.892,-467.26,278.404
1578.436,-520.94,280.844
1555.5,-476.288,228.628
1465.708,-411.384,170.312
1443.504,-342.332,126.392
1398.608,-333.792,155.672
1329.312,-330.864,199.592
1263.432,-328.18,176.9
1269.532,-299.876,149.328
1272.948,-291.336,123.708
1328.58,-259.128,115.656
1362.252,-241.072,168.36
1433.988,-261.812,244.976
1596.248,-248.88,274.012
1801.696,-232.532,279.624
1858.06,-253.272,313.54
1863.916,-264.496,327.692
1962.492,-263.032,286.7
1973.716,-293.532,242.048
1962.248,-295.484,192.028
1962.736,-317.2,162.016
1716.296,-326.228,219.356
1509.872,-254.248,244.976
1425.448,-226.92,239.364
1266.116,-159.576,292.556
1181.692,-196.908,246.684
1065.548,-227.408,197.396
829.112,-210.328,198.128
671.244,-217.892,197.396
559.248,-250.344,206.912
315.004,-320.128,301.34
247.66,-315.736,352.58
112.728,-299.144,408.212
242.536,-278.404,296.46
397.964,-192.76,78.08
292.556,-112.24,-157.624
388.204,28.792,-470.432
570.472,27.572,-769.088
713.212,27.084,-961.848
764.696,-25.62,-1127.524
821.792,-30.744,-1160.464
713.7,-54.9,-1091.9
640.012,-92.476,-1039.196
559.98,-88.084,-963.068
440.176,-49.532,-855.22
356.728,19.764,-776.408
258.884,83.692,-681.004
212.524,64.416,-615.124
114.924,52.704,-470.188
131.272,45.628,-331.596
99.796,44.164,-200.324
46.604,73.444,-93.208
3.904,85.644,-20.496
38.796,67.832,84.18
61.488,-9.028,319.64
197.152,-50.02,495.564
370.392,-140.544,611.22
637.084,-222.772,654.408
926.224,-239.12,703.208
1056.52,-291.58,805.2
1189.5,-371.856,907.192
1228.296,-412.848,944.768
1329.8,-342.82,917.44
1401.78,-322.08,828.624
1424.228,-299.876,723.46
1293.932,-211.06,833.504
1347.368,-267.424,756.644
1466.196,-325.008,638.792
1543.056,-296.216,559.492
1573.312,-256.932,525.82
1414.224,-243.268,603.9
1432.768,-289.628,566.568
1535.736,-364.292,502.152
1553.548,-349.896,439.444
1528.172,-353.8,408.944
1540.372,-418.704,252.296
1487.912,-409.188,161.528
1403.0,-387.716,64.66
1283.44,-366.488,-16.104
1282.464,-384.3,-100.04
1285.392,-373.564,-233.508
1224.636,-313.54,-284.016
1128.256,-249.856,-330.376
1138.504,-211.304,-409.432
1134.6,-199.836,-389.912
1078.968,-199.592,-334.036
1043.832,-234.24,-235.704
1015.528,-248.148,-157.624
1020.164,-252.296,-107.604
1050.42,-247.904,-93.94
1027.484,-273.768,11.468
987.712,-297.192,113.704
951.844,-301.584,160.064
935.252,-293.532,200.08
957.7,-242.536,195.2
994.3,-246.44,183.976
1069.696,-267.18,195.688
1098.488,-297.924,282.308
1203.652,-289.14,298.656
1151.924,-290.604,296.216
1185.84,-248.88,312.564
1126.304,-234.484,346.968
1241.96,-226.676,334.524
1216.828,-203.74,487.756
1286.856,-126.148,506.788
1075.552,-151.524,509.472
999.424,-65.88,371.856
1189.012,13.176,142.984
924.028,247.172,282.552
746.884,332.084,329.4
775.432,382.592,195.2
705.648,433.344,321.104
770.308,518.988,233.264
630.252,579.744,216.184
486.048,690.276,226.188
424.316,742.004,262.056
466.04,775.188,211.792
369.904,804.712,232.288
195.688,862.784,227.408
14.396,865.956,240.584
45.14,870.592,233.996
150.548,844.728,142.252
125.172,852.536,180.072
24.4,873.52,252.54
-165.92,927.932,324.764
-202.276,932.812,316.468
-123.22,911.096,220.332
-101.748,913.048,172.02
-124.928,954.772,132.98
-157.624,1001.376,127.124
-104.432,996.984,83.936
-181.78,968.192,143.716
-172.02,911.828,143.228
-256.932,883.768,190.808
-299.632,888.404,248.148
-327.692,885.476,246.928
-341.112,904.752,220.332
-366.488,936.96,178.608
-361.852,972.828,193.98
-376.248,993.08,179.828
-362.828,998.936,195.2
-305.976,981.612,155.184
-270.596,965.996,117.608
-255.956,962.336,97.356
-252.296,949.16,119.072
-238.144,940.376,151.28
-201.788,947.94,167.872
-190.564,950.624,181.048
-149.816,953.552,175.436
-130.54,962.336,173.972
-108.336,997.96,167.872
-133.712,1014.796,173.24
-113.948,992.592,135.908
-96.624,1007.964,115.9
-77.348,1015.528,108.336
-100.772,984.54,103.212
-109.068,974.78,68.32
-114.68,997.96,55.144
-157.624,1000.644,40.016
-183.976,986.492,73.688
-193.736,956.48,107.848
-202.764,911.096,129.564
-164.7,938.912,131.76
-85.4,961.36,111.752
-89.06,955.992,101.992
-78.08,973.072,101.504
-81.496,975.756,98.332
-140.3,956.236,116.632
-172.264,955.016,144.448
-137.372,942.816,115.412
