acc_x[mg],acc_y[mg],acc_z[mg]
-141.764,975.024,-76.616
-133.956,984.54,-65.88
-113.46,983.076,-52.704
-108.336,983.808,-50.264
-113.46,978.684,-54.168
-107.604,973.56,-46.36
-99.552,974.292,-38.796
-100.772,983.564,-17.324
-96.624,981.612,-22.448
-109.312,977.952,-33.916
-110.532,973.316,-26.596
-105.408,975.512,-18.544
-82.716,983.32,-39.528
-98.088,994.544,-44.408
-95.404,995.52,-38.064
-94.428,991.372,-34.892
-117.12,986.98,-21.96
-105.164,976.976,-20.984
-96.136,972.34,-29.524
-105.896,976.976,-25.376
-108.092,978.196,-21.472
-121.024,985.76,-23.424
-127.612,982.588,-20.74
-114.924,976.244,-21.96
-110.776,977.22,-25.62
-115.412,978.196,-22.448
-100.04,989.664,-32.452
-92.964,993.568,-34.892
-106.872,993.812,-19.276
-104.188,984.296,-15.372
-90.768,974.78,-20.252
-111.996,989.664,-5.368
-110.288,991.86,-3.904
-125.904,993.324,-2.44
-93.94,1002.596,-11.468
-99.308,996.008,-6.588
-108.824,986.492,-5.368
-109.068,1006.5,16.836
-110.532,997.716,27.084
-126.392,991.372,34.16
-141.52,982.588,40.504
-123.464,982.344,41.48
-91.744,989.42,39.772
-86.864,994.544,50.02
-111.508,992.104,60.756
-115.412,989.176,68.564
-124.44,984.784,69.784
-102.236,985.028,45.384
-92.964,990.884,43.432
-104.432,986.248,43.92
-92.964,984.54,34.892
-95.648,978.684,29.036
-97.844,976.0,30.744
-109.312,959.408,45.872
-123.464,955.26,51.728
-105.652,959.408,42.212
-109.556,965.02,24.4
-80.764,976.488,20.252
-43.188,984.784,3.66
1.952,996.74,-14.64
1.22,996.008,-7.32
-26.352,998.204,13.908
-10.248,1007.964,27.816
-73.932,1028.46,76.86
60.756,993.568,-42.7
31.964,1014.064,20.496
29.768,1008.208,3.416
-14.884,1021.384,21.96
-15.128,991.616,14.884
0.0,987.712,29.036
-25.376,1011.624,31.72
-67.588,1024.8,62.708
-49.532,1034.072,63.684
12.2,994.788,30.012
-37.576,968.924,63.44
-49.044,984.784,80.276
-52.704,985.272,77.348
-143.228,987.712,121.512
-130.784,981.124,124.196
-68.808,968.436,101.748
-44.896,947.452,64.416
-72.712,957.456,65.392
-97.112,961.604,59.536
-113.948,980.636,79.056
-102.724,985.272,80.764
-106.14,984.296,47.824
-115.412,996.984,34.892
-124.684,998.936,41.236
-101.504,1000.644,20.984
-94.184,1000.4,-1.464
-115.9,1008.452,29.036
-208.376,1021.14,46.848
-146.156,1072.136,-12.688
-8.296,1099.708,-43.188
-8.54,1087.996,3.66
-85.644,1095.072,36.112
-73.688,1050.176,9.516
237.168,1002.352,-101.992
376.736,1006.5,-188.124
255.468,1037.0,-155.428
209.84,1031.144,-11.224
291.336,859.124,143.96
503.372,771.772,122.488
437.736,666.608,87.596
730.78,569.74,-12.2
1060.424,518.5,-172.996
821.548,550.952,-34.648
759.572,536.068,207.4
821.792,334.768,231.8
979.416,316.712,23.424
1091.656,337.452,-25.62
997.472,291.336,117.12
1075.552,274.256,191.784
1114.836,258.64,143.228
1034.56,232.532,165.92
1040.416,211.304,242.536
1005.28,170.556,263.032
922.32,167.628,281.088
916.464,205.204,295.728
984.052,260.348,271.328
1070.184,300.364,233.264
1088.972,309.392,244.244
1073.112,262.3,283.284
1070.428,248.392,315.736
1111.42,228.872,347.212
1165.344,195.932,384.3
1127.036,138.104,447.74
1036.268,108.336,499.224
931.836,54.9,465.308
808.616,69.784,417.484
791.048,98.82,360.388
699.548,141.764,274.012
626.836,209.352,201.056
580.72,243.024,80.276
546.072,275.232,-62.22
502.396,292.068,-204.716
413.58,285.724,-303.536
322.324,294.508,-383.324
382.104,290.604,-532.652
467.016,247.172,-638.548
541.924,263.764,-780.8
531.188,246.44,-802.76
590.724,210.816,-847.9
733.952,216.672,-963.556
824.72,184.22,-993.08
833.016,155.916,-897.188
864.98,109.8,-846.192
916.464,81.74,-800.564
963.8,83.448,-761.28
967.948,128.344,-712.48
988.932,143.716,-655.872
1059.936,117.852,-607.56
1099.464,102.724,-513.376
1072.136,93.452,-423.828
1010.648,66.124,-303.048
1016.992,42.7,-152.5
982.1,11.468,-38.796
846.68,-49.288,100.528
853.268,-37.332,187.392
884.988,-42.212,240.584
919.392,-45.872,305.732
896.7,-96.136,313.54
798.124,-131.028,395.28
770.796,-97.844,425.536
768.6,-89.548,440.908
827.648,-80.764,443.592
921.344,-96.868,351.604
946.476,-96.868,304.024
1008.452,-114.68,285.236
910.364,-159.332,383.324
842.044,-228.872,459.696
910.12,-263.52,423.34
1117.52,-286.7,292.068
1155.096,-327.692,283.04
1044.076,-370.88,406.748
1023.092,-431.636,484.584
1082.384,-510.204,411.14
1204.628,-536.8,383.08
1281.732,-580.232,348.676
1260.26,-609.024,364.536
1308.816,-634.888,348.188
1402.756,-625.86,287.432
1434.232,-598.044,223.26
1294.176,-585.6,223.992
1159.732,-555.344,213.988
1211.704,-437.004,-3.416
1235.86,-236.68,-290.36
1265.384,-111.264,-310.612
1286.124,-116.632,-278.16
1046.76,-84.424,-272.06
938.668,-64.904,-301.096
939.644,-42.212,-298.412
858.392,-26.596,-261.568
825.452,43.676,-222.528
876.692,91.256,-202.52
854.0,64.904,-97.844
918.66,51.728,-12.444
998.936,37.576,-4.392
1018.7,86.62,-9.028
1076.528,151.524,-0.488
1040.904,197.884,80.764
1154.852,223.26,81.74
1139.724,258.64,111.996
1108.248,280.356,104.92
1042.124,309.148,91.012
1186.572,207.4,-172.996
960.14,546.316,248.148
995.52,499.956,107.116
860.344,503.616,179.584
698.328,532.652,254.248
636.352,589.504,152.744
662.216,665.144,70.516
595.36,709.308,52.216
526.308,783.484,17.812
531.676,859.612,-39.284
469.944,873.764,-40.992
377.224,910.608,-20.008
320.86,938.668,-23.424
224.968,960.384,-40.992
203.008,952.088,-45.628
120.292,958.676,-44.652
-11.224,995.52,-67.344
-55.876,1010.404,-19.276
63.196,1028.46,-12.932
42.944,1026.996,-26.84
-22.448,1008.208,-52.216
-57.096,999.912,-77.836
-17.08,1050.42,-114.192
-13.42,1048.712,-109.312
6.832,1066.28,-136.884
-35.868,1021.872,-115.656
-21.228,1010.16,-111.508
47.824,1012.356,-125.66
50.752,1028.704,-133.712
-23.424,1033.34,-167.628
-27.816,1063.352,-204.96
-1.708,1067.988,-181.048
46.604,1045.784,-152.5
35.624,1016.992,-147.62
35.868,1043.588,-197.396
-25.132,1056.276,-196.42
-8.784,1103.368,-187.636
0.976,1141.432,-140.544
28.792,1167.784,-125.172
58.804,1200.48,-126.148
60.024,1209.02,-121.024
68.808,1191.208,-122.0
22.692,1163.148,-109.556
11.956,1165.588,-91.988
38.796,1185.84,-102.724
45.628,1177.788,-77.348
66.612,1166.32,-72.956
36.6,1170.712,-91.988
-56.852,1155.584,-92.72
-73.932,1138.992,-55.876
25.62,1159.732,-49.532
32.696,1175.104,-54.9
47.58,1190.232,-88.084
39.284,1189.5,-85.888
20.252,1169.492,-33.428
26.352,1136.552,18.544
1.22,1092.876,26.84
46.848,1090.68,-44.408
101.992,1062.864,-69.296
66.612,1042.856,-9.76
64.172,1027.24,11.956
24.156,1005.036,-19.764
25.864,967.46,-47.824
15.372,905.972,13.176
-35.38,833.504,78.08
-30.012,771.284,75.396
163.48,760.548,3.172
162.748,716.872,68.564
18.544,639.768,217.648
10.248,611.22,219.356
7.076,574.62,167.384
-21.96,548.268,179.34
-71.492,589.748,197.884
-60.268,660.996,157.136
-105.408,739.076,107.116
-136.396,774.212,55.632
-168.36,833.748,37.576
-101.26,887.672,-27.572
-107.604,878.888,-23.668
-184.464,874.496,17.08
-209.84,882.548,30.5
-220.576,904.02,4.636
-178.852,956.48,-20.008
-169.824,982.832,-26.596
-197.884,1018.212,-30.256
-235.704,1006.012,-2.196
-184.22,1018.7,-1.22
-41.236,1055.544,-40.016
-53.192,1062.132,-44.896
39.04,1049.2,-11.224
118.34,996.008,-32.452
291.336,1032.608,-49.532
401.38,1016.748,-5.612
201.3,960.628,71.736
204.228,902.312,115.9
464.82,806.664,145.912
415.776,670.756,133.956
348.676,614.148,203.74
562.176,441.152,301.34
830.332,370.636,229.36
1088.24,375.272,46.604
1144.848,404.308,-12.688
1071.16,432.368,-32.94
1065.548,308.416,61.976
1103.612,401.136,144.448
1105.076,350.872,180.316
1058.472,320.616,201.056
1041.636,264.984,284.748
1021.14,182.756,367.708
1011.136,144.204,393.572
1062.376,135.664,436.516
1121.18,127.856,502.396
1145.824,107.848,554.612
1130.452,69.296,550.464
1020.896,51.484,554.368
873.764,28.06,595.848
833.748,12.688,674.904
787.388,0.488,616.588
661.24,27.816,468.724
535.336,85.644,353.068
451.888,111.752,350.384
346.48,163.968,211.548
442.128,248.148,9.272
483.608,351.848,-227.896
467.504,373.076,-340.136
448.96,373.076,-465.308
520.696,396.012,-596.092
548.512,381.372,-586.576
480.924,374.296,-621.468
507.032,297.68,-638.792
624.64,249.124,-731.756
740.296,274.744,-830.82
796.904,308.66,-846.68
801.54,284.992,-848.632
892.064,269.132,-915.0
1001.62,294.264,-902.068
1041.148,254.98,-827.648
1086.776,234.728,-796.416
1108.004,229.116,-756.156
1028.948,244.0,-624.396
1010.892,236.436,-508.008
984.54,219.6,-372.344
902.8,132.98,-271.328
894.26,71.736,-128.588
899.872,79.544,-19.032
867.42,98.82,45.384
799.344,91.744,136.64
762.256,45.628,283.528
787.632,29.524,335.256
852.78,-5.856,291.092
879.62,-52.704,368.196
723.948,-107.36,534.604
707.844,-174.216,620.248
884.256,-192.272,529.968
1054.08,-207.644,456.28
1015.528,-234.728,532.408
940.132,-299.632,652.212
985.028,-346.724,640.744
1123.376,-355.996,528.992
1192.916,-356.972,462.868
1231.712,-400.892,492.148
1210.484,-450.668,491.904
1228.296,-465.064,438.712
1367.62,-467.504,336.232
1397.144,-470.188,333.548
1346.636,-479.704,415.044
1261.724,-528.016,391.376
1240.252,-521.428,316.712
1423.252,-480.68,232.532
1434.964,-450.668,173.972
1249.036,-448.716,171.776
1149.728,-356.484,50.02
1129.964,-213.988,-148.352
1132.892,-98.088,-236.436
1118.984,22.936,-356.484
1018.944,75.396,-385.276
938.424,89.548,-357.704
902.556,78.568,-345.748
906.46,22.936,-236.924
887.916,9.028,-177.632
888.892,30.744,-155.672
918.416,16.836,-82.716
943.304,8.54,-8.052
980.148,14.396,27.816
1012.844,23.668,32.208
1005.036,64.416,25.62
1054.812,82.96,47.336
1061.644,83.204,89.792
1148.752,73.688,95.648
1131.672,72.224,123.464
1050.664,46.604,166.408
1036.756,82.228,149.572
1118.74,108.824,125.904
1126.06,134.444,145.912
987.712,67.1,164.212
950.868,231.556,170.312
955.992,206.424,185.44
1014.552,200.324,125.66
1010.404,253.76,131.76
1047.248,325.008,83.936
1038.708,343.796,63.928
946.964,376.004,37.82
830.82,471.896,70.028
845.46,574.132,70.028
752.984,701.988,157.868
693.692,670.512,107.116
590.968,724.68,81.74
474.336,781.776,95.892
489.708,823.5,52.46
395.28,839.604,43.676
361.12,867.908,11.712
325.984,876.204,-7.808
285.236,908.412,-64.172
236.68,944.524,-121.024
169.824,987.956,-94.672
99.552,1024.068,-79.056
33.184,1013.332,-89.304
15.128,1025.532,-143.228
-34.648,1018.7,-101.504
-8.54,1021.384,-83.448
13.908,1027.728,-114.924
-20.984,993.08,-98.332
-53.192,985.272,-93.208
-42.456,997.228,-96.624
-3.172,1013.576,-113.704
-30.988,996.252,-99.796
-67.344,986.248,-86.864
-62.22,980.148,-82.96
-6.832,993.812,-86.864
-5.124,975.512,-89.792
10.492,972.828,-91.988
15.128,989.664,-63.928
22.692,998.204,-25.132
19.032,989.42,-24.888
36.844,985.76,-55.388
16.348,974.048,-54.412
12.444,984.052,-55.632
39.04,1017.968,-74.664
18.788,1021.14,-74.664
40.992,1008.94,-76.128
27.572,999.424,-70.516
25.62,1000.644,-74.42
44.896,1027.24,-102.724
70.76,1045.54,-142.74
51.484,1014.552,-143.716
12.2,986.004,-166.896
-35.624,947.94,-162.26
-20.984,943.06,-134.932
14.884,968.924,-143.228
6.832,943.06,-110.288
-25.864,902.8,-70.272
-54.412,910.608,-50.264
15.128,975.756,-79.788
84.424,1039.684,-110.288
25.376,1015.772,-67.344
-11.224,1010.892,-19.276
-1.952,1055.056,-5.124
56.608,1112.152,3.172
71.492,1113.616,38.064
37.332,1112.396,59.292
12.2,1164.612,79.3
40.992,1237.568,75.152
102.236,1309.06,68.076
81.252,1319.552,111.508
28.548,1298.568,121.756
-20.496,1284.66,118.096
-19.764,1290.76,116.144
-6.1,1302.716,75.884
34.648,1311.988,15.372
-42.7,1272.46,53.68
-15.616,1254.16,65.148
-6.832,1227.808,24.644
-23.912,1189.988,20.984
-11.224,1164.124,43.92
2.44,1117.032,81.008
47.824,1076.772,93.94
22.448,1024.556,111.508
-4.636,977.708,106.384
-11.468,956.968,112.728
52.948,947.208,93.94
14.884,913.292,123.952
-32.94,870.104,163.724
38.308,858.392,111.02
119.072,884.012,30.5
25.62,889.38,51.728
-55.388,882.06,58.56
-117.12,887.428,53.192
-95.648,886.452,20.496
23.668,891.576,-57.584
10.248,867.664,-58.072
-6.832,826.184,-7.808
42.212,827.892,87.108
105.652,710.284,-107.36
-28.06,726.876,38.064
42.944,666.364,-61.244
45.14,677.832,-6.1
52.704,714.676,9.516
-52.948,727.608,57.584
-96.868,706.624,79.544
-97.356,736.392,75.884
-67.588,787.632,17.812
-103.456,833.992,7.076
-52.948,859.856,10.98
-26.352,842.288,1.708
-92.232,865.712,0.488
-207.156,861.564,16.104
-248.148,911.584,28.06
-194.468,966.484,7.076
-95.648,1000.156,-38.308
-130.296,1019.676,-30.5
-167.628,1042.124,-10.248
-163.968,1055.056,-14.152
-133.712,1060.668,-39.04
-140.3,1057.74,-46.604
-195.932,1056.276,20.496
-224.968,1058.228,24.4
-227.652,1050.664,-29.28
-71.004,1052.616,10.492
123.22,979.66,10.98
214.964,930.616,-7.32
262.544,925.492,13.908
364.536,842.532,6.588
388.448,793.0,58.804
416.996,743.468,101.992
561.932,665.632,137.86
622.2,609.512,53.436
753.472,565.348,-22.936
965.264,618.784,52.948
861.564,608.78,212.768
1004.06,339.16,55.876
1142.652,368.928,48.068
1119.96,377.468,-18.3
998.204,345.26,66.368
951.112,262.3,145.668
998.448,210.572,168.848
1123.62,194.224,122.244
1086.776,144.936,124.684
1045.052,97.6,149.328
1044.076,148.596,192.028
1025.288,167.628,217.892
1048.712,147.376,222.04
1049.444,128.1,245.708
1058.472,127.856,265.96
1087.264,114.192,304.024
1070.916,88.084,363.316
1110.688,74.908,404.796
1028.46,59.78,419.924
1009.184,75.396,476.776
981.856,67.832,548.512
1005.28,44.164,630.252
1028.46,8.296,583.16
820.572,-6.344,481.168
685.884,31.232,492.148
720.044,76.616,543.876
724.436,155.184,382.348
727.12,195.444,280.6
542.168,208.62,157.624
485.316,273.036,34.16
517.524,290.36,-18.056
428.708,254.492,-55.632
393.572,245.22,-168.848
533.872,235.948,-329.156
643.916,200.08,-426.024
631.228,165.432,-491.416
685.884,136.396,-578.524
758.108,156.16,-665.632
797.148,144.448,-734.928
854.732,114.192,-781.288
940.376,80.276,-798.612
963.556,76.616,-829.112
1018.212,105.652,-871.324
1056.764,117.608,-843.996
1054.568,86.864,-789.828
1196.332,51.24,-778.36
1271.972,16.348,-765.672
1134.112,17.568,-649.772
1028.46,59.536,-520.452
1018.456,81.008,-429.196
1009.184,53.192,-300.608
904.508,19.52,-150.792
897.432,-4.392,-70.272
860.1,-22.936,54.9
829.6,-53.924,148.596
711.992,-73.2,267.18
692.228,-39.772,334.28
807.64,-23.18,304.756
775.92,-98.332,409.676
641.964,-207.4,521.916
687.104,-236.192,580.476
809.104,-247.416,540.948
901.824,-292.8,525.82
774.7,-349.164,644.892
782.508,-398.208,683.688
908.9,-402.844,587.796
1055.788,-370.392,502.152
1195.112,-359.656,458.232
1174.128,-414.8,469.212
1069.94,-480.924,522.648
1118.74,-519.964,476.776
1175.836,-547.292,465.308
1238.056,-594.872,467.504
1325.896,-640.988,463.112
1363.472,-663.68,366.976
1261.968,-590.968,196.664
1303.936,-519.72,126.392
1307.108,-479.46,85.644
1271.24,-454.572,68.564
1260.748,-401.136,-50.752
1199.992,-310.368,-207.4
1138.504,-237.168,-237.412
1109.712,-191.54,-188.124
1169.98,-162.992,-204.472
1158.512,-136.396,-233.996
1038.952,-157.868,-221.552
953.064,-150.792,-192.272
915.0,-101.748,-143.716
978.684,-80.032,-145.912
976.976,-80.764,-107.604
900.116,-91.744,-38.796
889.38,-89.792,13.664
952.332,-93.208,25.376
987.224,-208.132,-0.976
1025.044,75.884,144.448
1027.728,-29.036,81.74
1089.46,-12.932,116.632
1072.868,-51.484,174.948
1035.78,-58.56,189.832
1052.616,-2.684,192.516
1118.496,-2.928,202.032
1105.564,37.332,158.844
1012.6,106.14,124.196
1047.98,222.04,121.268
1104.832,292.8,123.22
1057.008,298.9,101.504
1053.592,339.16,42.212
1031.876,382.592,8.54
927.932,482.144,36.356
820.084,522.404,83.936
759.328,610.488,30.744
687.592,618.296,37.088
705.648,617.076,-37.576
599.264,777.14,-5.612
528.992,827.16,-55.388
460.916,839.604,-60.268
373.32,898.652,2.196
468.968,907.192,-78.812
502.64,935.74,-61.976
313.296,928.176,-40.748
181.536,919.636,-31.476
194.224,933.544,-31.232
192.272,944.524,-33.672
147.864,939.644,-35.624
95.16,948.428,-39.04
77.592,962.092,-63.196
44.408,952.332,-45.384
61.244,967.948,-52.46
31.476,968.68,-56.852
9.76,961.116,-59.292
-11.712,965.996,-74.176
-25.864,980.636,-103.944
13.664,1008.94,-119.316
19.764,1010.16,-93.452
25.132,1013.088,-86.376
-14.152,1005.524,-87.108
-9.76,1016.26,-114.924
4.148,1031.388,-122.0
10.98,1013.088,-95.648
-9.272,1001.376,-107.36
-20.984,991.616,-111.996
-18.056,984.784,-105.164
9.272,985.028,-95.404
20.252,986.736,-91.5
34.16,992.104,-91.256
35.624,1000.644,-77.592
36.6,1006.012,-61.0
31.232,984.54,-40.992
38.064,978.928,-48.068
-36.844,974.048,27.816
102.48,990.152,-162.504
56.12,977.952,-71.492
104.676,1009.428,-127.612
3.904,1090.436,-84.668
4.148,966.728,-125.172
35.38,1021.628,-144.448
23.424,1067.256,-146.156
18.3,1090.192,-218.136
6.832,1079.7,-238.144
-45.628,1078.724,-250.344
-37.332,1090.192,-297.192
-18.544,1148.508,-284.26
10.004,1146.312,-281.332
10.492,1151.192,-267.424
-6.344,1151.436,-260.592
-29.28,1138.748,-230.336
-50.264,1143.628,-200.812
-20.74,1172.908,-217.404
-13.664,1183.644,-227.896
-24.4,1196.088,-145.668
-41.724,1210.728,-115.168
-26.352,1233.908,-134.444
6.1,1218.78,-119.072
36.356,1191.94,-80.52
3.904,1171.2,-70.516
53.68,1172.42,-81.496
131.76,1148.02,-53.68
111.264,1083.604,-7.32
104.92,1054.08,-28.548
106.872,1024.312,-45.872
25.864,985.76,-9.272
-52.704,960.384,23.912
36.112,974.78,10.492
120.536,966.484,-37.332
99.064,918.66,-28.304
108.092,879.864,82.716
193.004,848.632,22.936
58.316,804.712,139.08
-28.792,775.92,145.912
-58.316,782.752,86.62
88.084,846.924,-10.248
20.496,860.832,16.836
-32.208,860.344,37.576
-43.92,802.516,39.04
2.196,789.828,15.128
-49.288,827.892,45.384
-103.456,842.532,77.592
-108.58,830.332,127.368
-42.944,819.352,74.908
-56.608,825.94,6.344
-106.384,824.476,-28.06
-138.104,823.744,21.228
-110.776,845.46,56.12
-91.012,895.236,21.716
-46.848,907.68,-13.176
-96.624,912.56,-22.204
-140.788,907.192,7.564
-85.888,909.388,0.244
-62.464,918.66,-17.08
-115.168,924.76,-5.368
-144.692,918.172,-2.196
-180.072,934.52,29.524
-113.216,963.556,-2.44
-73.932,988.688,-47.336
-102.48,984.296,-59.536
-140.788,980.148,-43.676
-129.564,990.884,-34.648
-143.716,998.204,-24.888
-166.896,995.52,-32.452
-176.168,984.052,-48.068
-138.592,1025.776,-33.916
-204.96,1065.304,-3.172
-173.484,1051.884,-1.464
-208.62,1045.784,-28.06
-164.944,1026.02,-17.08
-94.916,968.68,13.42
5.368,905.24,38.552
109.556,833.504,-3.416
349.652,742.248,-71.248
506.788,705.648,-41.968
526.064,669.536,-23.18
439.2,601.948,-19.276
586.576,541.68,-86.864
1027.972,528.748,-113.704
1137.528,537.532,-2.44
1007.964,450.18,12.2
888.404,360.876,96.136
849.12,349.652,118.096
935.496,374.296,141.276
989.176,382.592,179.096
973.316,331.108,249.368
980.148,283.04,306.952
1022.116,253.028,351.36
1061.156,232.532,385.764
1127.768,207.888,401.868
1225.612,189.832,443.836
1244.644,114.192,523.38
1256.6,58.316,569.74
1312.964,13.176,609.024
1267.824,-29.28,644.404
1289.296,-53.68,663.192
1025.776,-121.512,708.576
765.428,-121.756,682.956
772.748,-129.808,683.932
661.484,-131.028,555.1
639.524,-63.196,461.16
414.068,24.4,255.712
215.696,167.14,87.108
199.348,184.464,-20.252
192.516,227.896,-234.972
275.476,239.608,-448.472
377.468,247.904,-635.376
404.796,236.924,-737.612
459.94,236.436,-818.62
598.532,254.736,-899.872
735.904,239.364,-967.704
804.712,221.064,-1003.816
849.364,225.456,-1008.452
1022.116,220.088,-1018.456
975.756,242.536,-923.784
989.908,266.936,-866.688
1023.824,301.828,-789.584
1013.82,330.376,-723.46
1055.056,318.42,-577.06
948.916,249.368,-392.596
813.008,209.108,-188.368
796.904,203.984,-71.004
839.848,232.288,-25.62
836.92,212.036,86.864
811.788,194.224,247.66
702.964,198.616,330.864
763.476,145.668,323.056
864.492,118.828,413.58
784.46,61.244,584.624
800.32,-22.936,708.088
846.68,-62.952,742.736
984.54,-57.584,675.88
1011.136,-64.172,663.436
997.472,-125.172,769.576
979.904,-206.668,876.448
1094.34,-261.568,777.628
1163.88,-289.872,708.088
1159.732,-333.06,675.636
1231.468,-364.292,644.648
1379.576,-353.068,446.276
1490.352,-310.124,224.724
1476.2,-268.644,157.38
1487.912,-305.0,116.388
1501.332,-342.576,116.388
1490.84,-329.888,15.86
1296.372,-273.036,-98.82
1006.5,-165.188,-266.204
1142.896,-49.044,-257.176
1179.496,-47.336,-203.984
1117.032,-92.476,-141.032
1096.536,-149.572,-132.98
958.92,-111.264,-159.088
859.856,-61.244,-237.656
985.272,13.42,-226.92
1034.316,41.724,-194.712
999.18,35.136,-124.928
909.876,-8.296,-57.584
943.792,-34.892,-13.664
1001.62,-28.548,5.856
1040.66,-23.668,38.552
1036.512,-7.076,64.416
976.488,-13.176,91.012
995.764,-9.028,116.388
1029.192,-5.856,121.024
1058.228,0.0,142.496
1050.908,-7.808,161.04
1029.436,-8.784,185.44
1026.508,-10.492,182.268
1069.452,-9.516,154.452
1029.192,-0.488,154.452
1013.332,10.98,162.504
1059.448,23.424,164.944
1058.472,44.164,146.644
1006.256,37.576,151.036
1020.652,100.04,143.96
974.048,37.576,165.188
1018.212,119.072,156.648
1054.568,153.964,129.808
1041.148,217.16,97.6
1012.356,258.884,111.02
985.516,259.86,84.912
979.904,290.848,33.184
908.9,414.068,71.004
899.628,563.396,64.416
943.06,543.144,-1.464
918.66,601.704,-19.276
816.912,638.548,-34.16
717.36,713.7,-26.108
589.748,811.056,4.392
498.004,850.584,-10.98
403.576,875.96,-14.152
366.0,899.14,-50.996
279.38,928.664,-52.46
201.788,968.924,-58.316
142.252,970.144,-70.272
122.244,994.788,-82.96
57.584,992.348,-96.38
10.248,1002.352,-129.808
-42.456,1004.548,-136.396
4.636,1020.652,-143.228
38.308,1034.316,-153.232
37.576,1044.808,-162.748
30.5,1064.084,-187.88
80.764,1097.024,-196.664
67.1,1144.36,-212.524
35.868,1196.332,-246.196
50.508,1236.348,-247.416
16.592,1234.152,-213.988
-47.824,1241.472,-206.18
7.076,1214.876,-224.724
53.68,1189.256,-205.936
6.588,1161.44,-183.244
-0.244,1149.728,-168.604
16.592,1130.94,-136.64
3.66,1098.244,-97.844
-2.196,1089.704,-75.884
52.46,1101.172,-74.176
98.82,1071.892,-46.116
140.3,1041.88,2.196
80.52,1005.524,53.192
65.392,1007.476,66.368
5.612,1007.476,174.46
142.496,1038.708,29.768
101.504,1034.316,115.412
188.368,1008.208,65.148
186.904,1047.736,40.504
165.432,1018.212,44.652
126.148,1023.336,38.308
80.276,997.228,87.596
68.076,958.188,90.036
137.372,942.816,75.884
98.82,891.576,73.444
105.408,848.876,81.496
58.804,808.616,89.548
-35.136,790.56,114.436
-84.912,768.844,95.16
-11.468,782.264,63.44
65.636,741.272,16.836
28.304,757.62,29.524
28.792,781.044,-2.44
11.956,799.1,-22.936
-34.404,808.372,9.76
-43.676,828.136,24.156
-22.448,855.22,0.732
-3.172,881.816,1.22
-25.864,903.776,27.816
-55.388,913.292,40.748
-31.964,907.924,21.96
-36.844,930.372,37.82
-43.676,963.8,15.86
-50.508,978.44,30.5
-58.804,987.224,24.156
-91.5,1011.868,9.76
-87.84,1037.976,31.476
-169.092,1066.036,59.536
-100.284,1057.008,-56.852
36.356,1036.268,-11.712
-46.116,1001.62,97.6
-101.016,945.5,69.54
144.204,858.636,68.564
383.568,762.988,78.568
434.564,702.72,57.584
609.756,644.892,21.716
707.6,569.008,23.668
665.388,521.672,97.844
796.66,419.436,185.928
1145.58,401.136,66.612
1108.248,404.064,-15.616
976.244,323.3,177.144
910.852,286.944,259.372
1016.992,300.12,248.636
1097.268,298.9,219.112
1045.296,281.576,269.376
1034.072,238.632,344.284
1021.384,205.448,409.92
1131.184,238.876,384.056
1156.316,251.076,368.684
1109.956,220.82,456.768
1136.796,163.968,533.14
1112.64,75.64,568.276
1090.192,0.976,563.396
1055.056,-10.248,596.824
955.992,-60.512,677.1
849.852,-91.256,713.456
696.62,-119.56,621.224
542.656,-89.792,430.904
382.348,14.396,261.812
408.944,146.644,81.496
397.964,255.224,-77.348
467.504,323.544,-274.256
459.452,312.564,-380.152
404.064,307.928,-447.984
421.388,307.196,-517.768
554.124,307.44,-651.724
688.568,333.304,-767.868
710.04,346.724,-798.612
764.696,324.52,-806.176
867.664,310.124,-828.624
905.728,349.652,-793.732
1099.952,404.796,-776.652
1163.392,402.112,-738.832
1066.28,328.912,-612.196
958.188,344.528,-464.332
966.728,407.724,-353.068
1050.908,407.968,-277.916
983.32,351.848,-143.472
851.316,354.776,-40.992
814.228,266.692,100.04
714.188,194.468,300.364
558.516,110.532,522.16
643.916,28.304,569.984
644.404,19.032,561.2
627.812,12.932,627.812
774.944,48.312,630.252
831.796,40.748,633.424
869.86,-1.464,667.584
917.928,-71.248,700.768
924.76,-92.964,653.188
1063.108,-113.216,616.588
1098.0,-191.54,657.58
1200.236,-203.74,620.98
1296.616,-223.26,484.34
1350.052,-237.9,405.528
1392.752,-246.44,335.988
1434.476,-254.98,214.476
1654.808,-214.232,46.604
1636.752,-155.916,-78.812
1443.992,-155.916,0.244
1297.836,-106.628,-73.688
1422.52,-33.428,-212.036
1533.54,-47.092,-242.78
1376.648,-115.168,-168.604
1073.356,-116.632,-168.116
798.856,50.508,-294.508
819.596,169.092,-261.812
945.256,203.008,-202.764
972.096,190.32,-211.304
887.428,171.532,-182.024
772.26,166.896,-114.436
810.812,172.02,-48.068
930.372,175.924,-6.344
1003.084,143.472,22.204
1004.792,120.048,31.476
969.656,129.808,22.448
945.5,136.64,30.256
981.124,137.616,61.488
1033.828,132.736,69.296
1057.496,153.964,75.152
1013.088,161.528,80.764
973.804,154.208,86.864
1003.328,-11.712,55.144
1060.18,242.048,166.896
1084.336,151.28,87.596
1091.168,187.148,102.968
995.764,142.008,112.728
964.044,180.804,102.724
984.296,214.964,81.252
1012.6,214.232,35.136
1084.092,288.408,42.456
1090.68,302.56,79.3
1026.508,276.452,93.208
908.168,289.872,92.232
831.552,323.3,86.62
913.292,392.352,29.036
1027.728,453.108,-26.108
930.372,483.364,-24.156
781.776,511.912,20.984
765.428,586.82,6.588
836.92,650.748,-55.144
776.164,708.088,-48.556
757.864,712.48,-13.42
642.452,735.904,30.5
546.072,762.744,45.872
545.584,781.532,15.616
495.564,864.98,19.032
449.692,890.112,-23.424
414.312,883.28,-77.836
267.912,960.628,30.256
241.804,985.272,10.98
172.02,1009.184,14.152
95.16,983.32,-4.88
64.172,1016.26,-8.052
47.092,1053.836,-3.66
79.056,1033.096,-33.672
43.188,1030.9,-40.504
-33.428,1027.972,-45.628
-54.9,1029.192,-57.584
-14.396,1028.46,-55.632
-13.176,1022.848,-39.284
-47.824,1003.572,-39.04
-80.764,996.496,-30.256
-92.232,1011.868,-57.096
-79.056,1047.004,-93.208
-38.552,1094.096,-128.1
-39.284,1132.404,-184.708
-73.688,1168.028,-207.4
-84.912,1175.592,-191.052
-14.396,1187.792,-228.628
-10.492,1182.18,-264.74
-70.272,1171.688,-236.68
-71.492,1203.164,-243.024
-28.06,1181.936,-217.404
-23.424,1145.58,-172.752
-45.384,1118.74,-138.592
-32.94,1084.824,-155.672
-15.86,1060.668,-168.36
-25.62,1040.66,-139.08
-10.248,1044.808,-105.164
19.52,1058.472,-81.984
27.572,1083.848,-70.516
23.668,1098.732,-59.048
15.86,1090.924,-50.752
44.652,1077.748,-18.056
163.236,1100.44,-31.964
152.012,1110.444,-39.772
112.484,1092.632,-26.596
71.98,1060.18,-17.324
27.572,1057.252,6.832
16.836,1051.884,16.836
22.692,1047.004,12.2
16.348,1038.708,77.836
202.764,912.56,-73.444
153.72,895.48,-5.612
74.664,872.788,21.716
24.644,868.884,45.14
9.76,854.0,40.26
23.912,839.116,17.568
-51.728,847.656,41.236
-114.924,842.776,32.696
-95.648,831.308,19.52
-110.532,835.7,11.712
-111.996,864.004,3.904
-100.528,890.112,-14.396
-35.868,904.508,-50.508
-43.92,891.82,-36.844
-69.54,882.548,12.444
-106.14,861.564,13.176
-105.408,835.456,-10.004
-115.412,862.54,-3.172
-102.724,849.852,-26.352
-116.876,834.724,-24.156
-179.096,848.632,23.18
-139.324,858.148,-3.904
-120.536,844.24,-0.732
-119.56,828.624,11.712
-90.524,845.216,12.688
-19.52,877.424,-20.496
-46.36,906.704,-33.916
-92.476,908.656,16.836
-114.68,950.624,87.352
-77.836,911.34,22.204
-102.968,945.988,33.916
-95.892,976.0,7.564
-29.524,991.372,3.416
10.736,972.828,-27.572
-19.032,980.88,-28.304
-36.112,979.416,-44.408
-124.44,1030.656,-6.344
-140.056,1043.832,33.428
-145.912,1054.08,44.164
-105.408,1059.448,40.26
-37.332,1057.984,-21.472
-41.968,1054.324,-39.04
-75.396,1051.396,-14.152
-49.532,1072.624,17.812
5.612,1068.964,-1.708
-20.008,1072.624,50.02
-30.012,1029.68,110.044
11.712,945.256,124.928
156.892,899.872,108.336
217.892,828.868,39.284
239.12,796.416,100.284
333.792,764.94,184.952
518.988,624.396,105.408
635.132,575.352,-1.708
644.648,526.796,19.52
583.892,472.384,69.052
829.356,399.916,151.28
1036.268,295.728,90.524
1030.412,273.28,90.524
1004.304,272.304,27.572
1026.996,268.4,40.748
1045.052,259.128,67.588
1103.368,256.688,98.088
1121.18,237.412,82.716
1100.196,199.104,98.82
1034.072,163.724,202.276
1047.492,165.676,240.828
1148.264,175.68,186.416
1070.916,177.144,214.964
1031.876,169.336,266.936
1083.36,161.528,329.4
1173.884,152.988,301.584
1280.512,157.136,297.436
1209.752,122.488,398.208
1149.728,89.304,475.556
1153.876,63.928,482.632
1030.656,2.44,482.876
996.984,-140.3,499.468
838.14,78.568,646.844
669.78,54.412,629.52
538.508,70.028,535.58
475.556,117.364,384.544
441.396,165.432,241.56
515.572,179.096,76.86
498.492,185.928,-92.964
562.664,206.424,-271.572
631.228,192.272,-407.968
554.612,199.592,-466.528
546.56,195.2,-543.632
596.336,196.176,-613.416
678.564,177.876,-657.336
747.128,127.612,-659.044
831.796,87.84,-694.668
871.324,96.38,-742.492
955.504,116.876,-786.168
1072.868,127.368,-799.588
1090.436,133.956,-737.612
1087.996,134.2,-662.46
1138.26,103.212,-611.464
1143.628,112.24,-531.92
1014.796,148.352,-390.4
907.68,136.396,-266.936
965.264,136.884,-238.388
973.56,197.152,-271.572
892.552,194.224,-179.34
742.004,144.936,66.612
631.228,-20.252,339.16
624.152,-126.636,551.196
789.584,-174.948,469.212
869.86,-202.764,404.308
919.148,-176.9,433.832
891.82,-203.74,579.5
869.86,-248.148,664.412
962.58,-313.54,629.032
1085.312,-352.092,549.0
1167.296,-376.98,508.252
1137.528,-419.192,556.32
1161.684,-453.352,551.684
1234.152,-472.384,493.368
1310.28,-496.296,386.984
1269.044,-514.108,349.652
1217.56,-520.94,355.996
1363.716,-486.78,190.076
1544.764,-428.464,40.992
1525.488,-448.716,40.26
1391.044,-514.84,118.34
1001.376,-538.264,88.084
1114.836,-437.004,20.984
1306.864,-367.22,-96.868
1247.328,-369.66,-70.272
1086.288,-370.392,-51.728
956.48,-270.108,-197.884
1034.56,-110.288,-392.108
1039.684,-14.396,-367.464
975.512,23.668,-295.484
974.048,62.952,-291.58
979.172,57.096,-243.268
955.504,22.692,-158.356
920.856,-22.692,-46.604
906.46,-67.832,13.176
947.452,-149.816,27.328
1021.14,-113.948,49.776
1069.208,83.692,138.836
979.904,-26.84,135.42
999.18,6.344,175.68
1006.744,-6.588,140.056
1049.688,20.74,137.372
1056.764,26.352,146.644
1053.592,26.84,146.888
1045.296,22.448,181.292
997.716,-1.708,201.056
994.788,16.348,206.912
1021.628,30.988,194.956
989.42,34.404,193.736
990.396,55.876,205.692
1023.336,72.224,184.708
1008.696,75.64,185.684
984.296,112.484,177.876
1026.02,158.356,147.376
1104.588,152.988,104.188
1038.22,194.956,82.96
980.392,264.252,99.308
987.712,329.156,81.252
974.78,364.78,68.32
1018.7,356.484,31.964
940.132,498.736,39.04
943.792,556.32,39.528
815.936,565.836,41.724
818.376,577.792,4.148
794.464,631.472,19.032
769.332,651.968,4.392
642.94,684.176,23.668
545.34,751.276,12.932
548.756,772.992,-44.164
574.864,829.112,-40.992
500.688,853.512,-41.48
391.864,874.252,-67.1
344.284,827.16,-88.816
301.584,941.84,-65.88
255.956,969.656,-61.976
217.648,969.656,-66.856
135.42,960.14,-68.076
102.48,971.12,-54.168
128.832,997.716,-63.928
40.992,1006.744,-58.56
-12.2,1007.476,-83.448
-6.344,1010.16,-117.364
1.22,1000.888,-110.044
-13.42,1000.888,-98.576
-20.496,1023.336,-126.636
-26.352,1016.504,-119.804
-8.052,1007.964,-124.928
-20.74,999.912,-127.612
-32.208,1000.888,-129.564
-43.188,998.204,-104.432
-29.28,996.74,-86.376
-11.956,996.008,-97.6
-0.732,996.984,-101.992
-0.488,984.296,-83.204
25.132,983.076,-70.76
11.712,984.296,-63.196
17.812,980.148,-56.608
35.624,978.196,-61.732
3.66,976.488,-74.908
-9.516,965.508,-62.464
15.372,966.484,-59.536
21.472,970.876,-74.664
3.904,983.32,-82.96
-14.64,994.056,-81.496
3.66,1011.624,-90.524
16.836,1017.48,-96.868
10.736,1011.624,-107.36
3.904,1018.212,-116.144
-17.324,1029.68,-120.292
-18.544,1031.144,-123.22
20.008,1029.192,-102.48
21.96,1015.772,-80.276
14.152,990.396,-73.444
49.776,984.784,-95.16
46.604,990.64,-101.992
13.42,996.496,-93.452
10.248,1005.036,-107.116
31.72,1065.792,-134.932
34.16,1124.84,-189.344
-40.26,1154.608,-250.1
-50.508,1180.716,-273.768
-51.972,1215.852,-226.432
-55.876,1261.236,-243.268
-58.56,1297.104,-249.612
-40.992,1288.32,-278.648
-26.108,1284.904,-248.392
-14.396,1281.976,-181.536
2.44,1252.94,-132.736
18.544,1214.632,-128.1
35.624,1200.968,-105.408
65.392,1179.984,-79.544
73.444,1149.484,-38.796
143.96,1125.328,-35.624
111.752,1081.164,3.66
101.016,1053.836,12.688
48.068,1010.16,20.984
33.672,986.248,40.26
15.616,982.1,70.516
46.604,982.832,48.312
82.228,977.952,27.816
89.304,961.36,40.748
66.856,946.72,16.836
123.22,952.576,-33.916
171.532,938.912,-25.62
130.052,904.264,-3.416
50.996,859.856,47.092
-10.492,811.056,93.94
-43.676,789.584,101.26
-10.248,774.7,62.464
23.668,769.332,49.532
-50.752,804.468,102.724
-16.592,739.32,82.716
-119.316,768.112,108.336
-119.804,761.036,102.968
-83.692,779.58,105.164
-43.92,831.064,60.756
-17.568,801.296,-6.1
-59.048,803.248,-8.784
-63.44,843.996,22.692
-54.656,865.468,28.792
-85.644,889.868,52.704
-87.596,895.724,20.74
-78.568,893.04,-50.508
-100.04,917.684,-37.576
-61.976,955.992,-15.128
-89.792,969.168,8.784
-191.296,964.776,-14.64
-201.3,970.876,-49.044
-227.164,1002.84,-9.516
-247.904,958.92,-2.196
-234.728,959.408,-18.788
-154.696,893.284,-25.62
-50.508,877.424,-28.304
246.684,784.704,-27.084
504.348,724.924,-122.976
451.4,661.972,-41.968
418.948,559.736,58.072
400.16,440.176,101.26
735.66,417.24,38.796
1114.104,520.696,-69.296
886.208,593.164,29.768
727.364,530.944,73.444
954.528,217.648,-44.652
1060.668,291.58,44.652
1159.732,306.22,35.624
1098.732,287.432,101.992
1053.348,243.512,229.116
1154.364,200.812,245.22
1202.188,195.932,233.02
1202.188,189.832,278.892
1150.46,170.312,342.576
1224.636,150.06,376.98
1281.488,122.244,398.696
1345.66,100.528,434.32
1334.68,55.632,484.584
1316.624,-9.028,547.78
1154.364,-85.888,514.108
979.904,-31.232,541.924
939.888,-4.148,532.896
851.316,26.84,562.42
802.272,-5.368,508.008
587.552,20.984,301.34
462.136,103.7,236.924
512.4,109.068,205.204
524.844,152.5,-17.08
627.812,185.196,-182.512
571.204,219.844,-292.8
448.228,224.48,-356.972
445.056,218.136,-473.116
554.124,223.26,-576.084
661.484,206.18,-653.92
628.788,157.624,-619.516
470.432,125.66,-587.796
472.628,152.744,-682.712
590.48,173.24,-753.716
754.692,215.696,-871.812
917.684,216.184,-944.28
941.108,183.244,-938.18
982.344,195.688,-962.336
1053.592,200.812,-896.7
1067.5,155.672,-768.6
1214.144,198.616,-752.252
1169.736,185.44,-667.828
958.676,135.908,-489.464
858.88,139.568,-318.664
921.832,163.724,-158.844
963.8,158.112,-23.912
905.24,74.42,37.576
704.428,-19.276,140.788
694.912,-4.148,270.596
820.328,21.96,345.504
703.208,-33.916,458.476
659.044,-88.816,536.8
796.172,-91.256,508.496
947.696,-64.66,426.024
1066.28,-59.78,348.432
966.728,-106.384,442.372
911.584,-183.244,525.82
895.968,-270.352,558.76
961.604,-345.504,540.948
1013.332,-411.14,493.856
1018.456,-483.364,512.156
1064.572,-520.94,503.616
1146.556,-565.348,445.056
1236.104,-603.168,371.612
1231.956,-592.676,291.58
1296.86,-543.632,213.012
1400.56,-478.972,96.136
1383.968,-447.252,18.056
1344.928,-437.736,22.692
1363.472,-391.864,-25.376
1404.952,-374.296,-86.864
1296.86,-380.396,-22.204
1160.22,-422.12,-2.928
962.336,-432.368,-23.912
938.668,-325.252,-48.8
1053.592,-146.4,-181.78
979.904,-56.852,-229.604
900.36,-29.524,-282.796
980.88,23.18,-303.292
1004.792,77.592,-330.62
964.044,75.152,-277.672
979.904,81.984,-214.476
971.852,81.984,-132.492
927.444,57.828,-56.364
935.496,64.66,-47.58
979.904,73.688,-59.292
1017.968,103.456,-55.388
1038.952,110.288,-29.28
1039.684,160.064,-15.86
1023.58,153.964,-20.984
968.924,81.496,-1.464
1042.124,244.732,10.004
1044.32,187.636,46.848
1045.784,194.224,55.144
980.636,149.816,55.632
955.016,190.076,56.364
988.2,184.952,28.548
1047.248,211.304,12.2
1116.544,237.9,20.496
1006.744,207.4,58.316
956.724,246.44,50.752
1019.676,280.356,-6.1
1005.28,318.664,-22.448
1007.72,316.468,-10.004
1041.88,348.92,-5.612
1021.14,348.188,-38.552
919.636,313.54,15.128
822.28,328.424,14.884
775.676,447.252,23.668
788.364,511.668,-49.776
808.616,546.804,-53.924
726.632,627.324,-23.668
676.368,705.648,-47.824
609.024,752.496,-86.376
566.08,827.404,-145.18
499.712,894.016,-183.976
470.92,963.556,-175.192
442.616,983.076,-124.44
453.84,982.344,-109.556
359.656,972.096,-89.06
253.272,958.432,-56.12
211.792,947.696,-44.164
152.5,910.608,-55.144
113.46,930.86,-60.268
78.324,924.028,-36.6
64.172,949.404,-75.396
45.14,990.396,-90.036
4.88,988.688,-51.24
14.152,1000.644,-63.44
3.172,1004.792,-85.156
-7.564,1013.82,-86.864
-7.808,1009.672,-80.764
-5.124,1020.896,-101.504
-7.564,1031.876,-106.384
-16.348,1019.92,-86.864
13.42,1029.68,-95.892
-1.464,1015.772,-69.54
-9.272,1010.404,-70.028
-8.54,993.568,-62.952
25.376,990.396,-73.688
29.768,996.496,-81.252
11.224,985.028,-69.296
12.688,985.028,-76.128
1.952,1009.184,-102.724
-7.076,1026.264,-108.336
6.344,1041.392,-123.464
8.54,1071.404,-157.38
8.54,1087.752,-180.804
-28.792,1104.832,-193.98
-74.664,1148.752,-254.248
-110.532,1179.496,-284.748
-133.224,1187.792,-296.948
-102.236,1195.6,-285.236
-69.296,1178.764,-253.76
-88.572,1150.46,-209.352
-17.08,1171.688,-227.164
6.588,1158.024,-184.708
12.688,1132.648,-146.4
37.82,1135.82,-129.076
52.46,1135.332,-104.92
85.4,1141.676,-78.324
83.936,1145.336,-60.512
77.592,1147.532,-51.484
50.752,1117.52,-32.452
67.344,1092.144,3.904
79.544,1084.336,18.544
84.424,1097.512,16.348
131.272,1090.192,14.152
160.064,1066.524,46.848
132.492,1048.712,72.956
114.436,1017.48,94.428
171.776,1028.704,34.16
169.58,1025.044,-22.204
110.288,981.124,44.652
80.52,942.816,81.74
28.304,917.44,67.1
-8.784,887.184,60.512
-54.168,874.008,54.656
-6.1,900.116,25.132
82.96,912.316,4.88
83.448,905.728,16.836
21.472,883.28,32.94
-55.876,849.852,60.756
-81.008,840.336,47.336
-52.704,842.044,30.012
-76.372,842.044,37.576
-135.664,847.9,25.376
-154.94,834.48,4.392
-122.244,834.724,-14.884
-81.984,846.192,-16.592
-107.36,855.952,-17.568
-116.144,853.756,4.636
-87.84,836.432,17.568
-79.3,819.596,34.404
-21.472,812.032,50.264
25.376,815.936,46.604
40.504,836.432,27.328
0.976,834.48,43.676
-70.76,831.064,73.688
-108.336,852.048,76.372
-94.184,863.516,48.556
-48.312,878.888,25.376
-62.22,897.188,13.42
-80.52,922.32,-9.272
-120.536,960.384,-27.572
-117.608,981.612,-46.116
-139.324,1003.572,-61.0
-153.72,1014.552,-69.54
-140.3,1015.528,-73.2
-90.524,1019.92,-74.908
-97.112,1026.508,-65.148
-120.78,1023.58,-100.528
-168.604,1039.196,-135.176
-79.056,1083.848,-115.656
-154.208,1090.192,-53.192
-121.756,1064.328,-10.004
-49.776,944.036,-5.368
82.472,836.188,1.952
435.052,716.14,50.508
510.204,640.256,78.324
588.04,556.076,118.584
576.328,549.244,258.884
797.88,291.336,128.1
949.892,320.86,237.9
923.052,311.1,212.28
1028.948,415.288,262.788
1167.784,344.284,92.476
1255.624,316.712,173.24
1150.948,308.904,262.544
1213.656,292.068,328.912
1163.636,268.4,368.44
1142.896,240.584,424.072
1169.736,189.344,484.584
1144.848,141.032,535.092
1169.98,105.408,592.92
1197.796,80.276,603.412
1030.9,29.768,601.948
817.156,47.336,601.46
829.844,61.488,589.26
762.744,112.24,486.78
659.776,198.86,323.788
583.892,223.992,230.824
524.356,216.672,127.612
452.62,225.7,-19.52
397.72,275.72,-163.48
328.912,292.8,-289.628
277.672,274.5,-411.14
296.216,306.22,-604.632
401.136,335.988,-790.072
469.944,350.14,-872.3
550.708,296.704,-906.216
564.86,239.852,-951.356
558.272,219.356,-996.252
543.388,231.068,-1014.064
577.548,276.94,-1071.16
640.988,245.464,-1041.392
728.34,217.404,-1038.952
739.076,208.132,-1017.48
696.376,201.3,-928.176
722.24,242.78,-869.128
771.772,278.404,-842.044
798.612,286.944,-766.16
873.52,288.896,-725.9
939.156,338.672,-677.832
893.04,340.868,-567.788
775.432,291.092,-372.588
796.416,270.108,-216.184
777.14,227.896,-43.676
723.948,120.536,107.116
776.408,100.772,277.428
841.068,121.756,344.528
679.784,135.664,394.792
631.228,98.088,507.032
724.924,43.188,573.644
823.744,2.928,600.972
822.28,-16.348,577.548
736.88,-50.264,635.376
748.348,-122.0,700.768
877.424,-188.124,715.164
871.812,-274.988,708.332
836.188,-346.236,721.264
889.136,-415.288,690.764
931.348,-470.432,645.136
933.544,-498.736,625.616
1083.604,-487.268,434.564
1427.4,-358.436,180.316
1345.66,-321.104,201.3
1161.196,-339.892,271.816
1239.032,-340.868,233.02
1351.76,-339.404,172.264
1513.044,-360.388,113.704
1485.228,-391.376,158.356
1293.688,-431.636,230.58
1152.168,-389.18,159.82
1193.892,-320.616,44.408
1304.424,-242.78,7.076
1129.964,-178.852,-90.28
973.316,-48.312,-132.736
961.116,2.196,-152.744
1058.228,40.504,-216.672
1088.24,99.796,-264.74
951.6,111.752,-224.724
820.572,125.904,-110.288
854.976,118.096,-78.812
927.688,118.584,-53.192
955.016,101.016,-35.624
929.64,125.172,-45.628
1006.5,141.032,-26.596
1034.804,142.008,-9.272
1073.356,142.496,11.712
1045.54,125.172,52.216
1011.868,126.392,52.216
1039.928,145.912,41.48
1048.468,158.844,38.796
1065.304,165.188,46.848
1010.16,136.64,57.828
989.176,142.496,27.328
1040.904,186.904,-12.688
1047.492,217.648,-31.964
1067.012,210.816,-29.036
972.828,208.864,9.516
880.108,192.516,56.12
941.108,182.268,48.312
997.96,243.024,64.416
963.8,320.616,58.56
940.132,299.144,66.856
951.112,319.64,21.228
997.472,431.636,-9.028
935.252,466.04,-0.244
884.5,509.716,10.248
946.232,557.052,-12.444
943.06,544.12,-0.488
862.784,574.62,-4.392
753.472,656.604,-40.504
698.816,706.38,-71.004
665.632,730.048,-87.352
597.556,857.66,-97.844
541.924,842.044,-113.948
474.336,848.144,-109.556
386.252,921.1,-112.24
270.352,946.964,-132.248
190.564,949.16,-61.244
181.536,971.608,-62.708
137.616,965.508,-39.04
152.256,985.76,-54.9
95.404,975.268,-71.736
61.976,968.924,-63.196
71.736,980.148,-73.932
78.324,1001.864,-84.668
42.7,994.3,-91.012
2.684,985.516,-86.376
7.32,1018.212,-122.732
20.252,1050.42,-161.284
53.192,1049.444,-183.732
58.316,1043.1,-186.904
25.864,1046.028,-183.0
20.984,1068.72,-177.144
91.744,1059.936,-156.648
122.976,1059.692,-140.3
65.392,1074.82,-185.196
27.328,1092.144,-224.48
16.836,1131.916,-241.316
1.708,1163.392,-231.556
3.66,1169.248,-212.768
-17.812,1160.464,-212.036
-44.408,1138.26,-204.228
1.952,1132.648,-190.076
7.076,1111.176,-160.552
-2.44,1082.872,-120.78
17.08,1063.596,-111.264
2.196,1042.856,-100.284
-14.152,1034.56,-76.128
29.524,1038.22,-76.616
43.676,1037.244,-71.492
43.676,1039.928,-82.472
33.672,1031.144,-60.512
40.748,1019.676,-38.796
37.576,1020.164,-34.404
54.168,1028.216,-52.704
45.872,1035.048,-29.524
5.124,1023.824,-24.156
-1.708,1014.064,-33.672
-40.504,1002.596,-14.396
-69.784,992.348,-3.416
17.08,1004.548,-17.812
61.0,1023.336,-16.104
31.232,1035.048,22.448
-25.132,1040.172,48.8
12.932,1061.4,33.672
69.296,1056.52,27.816
128.1,1041.392,7.564
117.608,1016.748,45.628
119.316,973.316,78.08
63.196,924.028,93.94
-43.432,903.288,93.696
-13.664,890.6,48.556
-34.16,893.04,112.484
78.08,891.576,106.384
94.184,855.952,91.256
96.38,782.02,58.316
92.476,758.596,61.976
3.416,786.168,119.072
20.252,772.504,108.092
15.616,764.94,104.432
-17.324,788.364,84.668
-35.624,824.72,48.312
-40.26,856.44,33.428
-20.008,866.444,16.592
-49.044,869.616,1.708
-106.14,881.328,7.32
-95.892,898.408,-13.908
-98.82,917.928,-38.796
-103.212,936.472,-13.664
-111.264,951.6,-22.204
-115.412,964.044,-12.688
-108.336,963.068,7.564
-103.212,964.288,1.708
-18.056,981.124,-55.144
60.024,984.052,-80.032
-42.944,968.436,-21.472
-75.64,986.736,-4.392
-102.48,1019.188,-42.456
-79.544,1061.644,-68.564
-63.196,1065.548,-40.016
-75.396,1079.212,-15.372
-45.872,1047.248,11.956
12.688,1017.236,33.184
161.04,934.52,23.424
431.88,850.096,-0.732
416.02,784.216,51.728
415.288,707.6,175.436
378.2,611.952,236.924
443.104,548.512,175.192
705.892,532.896,75.884
672.22,562.664,15.128
620.492,561.932,144.692
696.864,497.516,178.12
885.72,445.544,129.564
1163.88,405.04,38.552
985.272,414.556,93.696
928.908,346.236,251.564
1014.308,326.716,278.404
1097.268,294.996,322.568
1114.836,287.188,319.152
1179.252,246.44,363.804
1177.056,193.492,408.944
1183.4,164.212,459.696
1250.988,165.676,458.72
1180.716,153.232,510.204
1201.944,133.224,567.544
1204.384,66.612,581.452
1175.836,20.74,626.836
1164.856,-31.476,612.684
1037.244,-47.092,596.824
861.564,-19.032,530.944
692.96,-6.832,450.424
668.56,50.996,356.24
589.504,71.248,151.036
408.212,152.5,-15.86
417.972,187.636,-154.696
464.576,204.472,-333.548
411.628,221.552,-436.272
415.288,213.744,-530.212
315.492,152.012,-618.784
390.156,104.92,-667.096
526.308,97.6,-768.844
692.716,128.344,-859.124
773.236,174.948,-965.264
762.988,219.112,-1051.396
763.232,227.164,-1040.172
827.892,264.008,-983.808
937.204,327.204,-934.276
1072.868,349.164,-866.444
1055.788,268.4,-713.456
870.592,246.684,-637.816
817.644,302.804,-533.384
916.708,344.284,-397.232
923.296,248.392,-247.172
675.392,148.596,31.72
568.276,64.904,328.912
664.412,32.94,447.496
739.32,-69.296,449.692
707.112,-90.768,588.04
632.448,-74.42,711.748
781.288,-13.908,663.68
1013.088,47.336,503.86
1004.792,27.084,514.596
912.072,-91.988,661.484
942.328,-209.108,711.26
996.008,-277.916,691.496
1035.536,-337.94,643.184
1057.74,-377.712,599.996
1041.392,-439.2,610.976
1103.124,-475.556,553.88
1210.728,-505.324,441.396
1284.66,-534.116,348.188
1268.556,-540.216,355.02
1305.4,-620.98,324.52
1347.612,-630.74,227.652
1545.74,-570.96,113.216
1444.236,-529.968,104.432
1150.216,-462.868,71.492
987.956,-273.28,-137.372
1041.88,-98.82,-269.864
1106.296,15.616,-299.144
1202.432,10.004,-249.124
1155.34,-31.476,-215.452
963.312,-71.736,-202.276
926.468,-61.732,-182.024
973.072,-7.808,-145.424
1086.044,29.28,-123.708
1085.556,43.92,-77.836
1011.624,-6.832,-7.564
1001.132,-24.156,4.392
998.448,-36.112,25.864
1020.896,3.904,43.92
1041.392,23.912,73.2
1024.312,54.656,80.764
1042.368,66.368,91.012
1066.768,70.76,95.404
1047.736,43.676,117.608
1040.66,34.16,112.484
1026.996,34.892,137.616
986.736,41.968,157.868
987.224,63.684,126.148
1010.404,115.168,64.416
999.668,141.52,61.976
1007.72,165.676,69.784
1033.096,167.628,62.708
1045.54,158.112,49.044
1014.796,160.064,48.556
931.592,169.092,63.44
884.256,177.388,68.564
941.352,205.936,49.532
1007.476,254.492,21.472
981.124,269.132,14.152
980.148,303.292,2.928
1024.068,360.388,-48.312
1005.036,394.548,-44.896
989.176,427.0,-35.38
956.48,451.888,-39.772
999.912,463.112,-28.548
984.296,481.656,-26.596
904.508,504.348,-16.836
906.216,542.412,-50.508
879.62,576.328,-34.16
808.86,593.652,4.88
749.324,607.804,20.74
745.664,634.156,-24.644
738.832,667.34,-38.308
641.476,697.352,-40.992
622.444,737.856,-55.632
579.744,769.332,-48.556
558.272,798.124,-49.532
554.612,832.528,-79.056
534.36,763.476,-133.468
331.84,973.804,40.748
337.94,945.256,45.14
345.504,951.356,1.464
184.22,952.576,59.048
199.104,975.268,-5.124
191.052,1000.644,-27.328
158.844,1011.624,-43.92
129.32,1025.532,-62.22
106.14,1018.7,-57.096
67.832,1014.064,-56.608
47.336,1018.456,-55.876
37.332,999.668,-46.116
13.908,981.368,-49.044
15.86,986.98,-77.348
17.08,988.2,-64.172
18.788,998.448,-70.516
1.708,984.296,-68.808
36.844,974.292,-66.612
53.192,979.904,-69.296
53.436,988.932,-75.152
52.704,982.832,-66.124
57.584,982.1,-67.1
59.78,976.244,-64.416
77.348,981.368,-77.592
61.488,984.052,-68.076
58.804,988.444,-65.636
44.652,987.712,-65.88
67.1,1002.352,-94.184
59.292,1018.7,-109.8
43.188,1024.556,-99.552
43.432,1025.288,-81.74
32.452,1044.564,-106.628
18.544,1063.108,-148.84
21.96,1087.508,-178.12
19.032,1109.468,-203.008
3.416,1113.372,-210.816
-17.812,1125.328,-213.5
-27.572,1134.112,-195.688
-5.124,1158.024,-198.616
-3.172,1168.76,-181.78
19.52,1175.348,-180.072
3.172,1138.26,-158.844
-78.812,1098.976,-106.14
-43.92,1109.712,-97.112
-18.3,1147.288,-109.312
-37.576,1157.292,-106.628
-10.736,1145.824,-93.452
-51.728,1117.032,-75.396
-61.0,1109.956,-63.684
-50.996,1111.176,-39.528
-8.54,1106.052,-22.448
35.868,1112.396,-33.184
31.476,1134.6,-38.552
41.48,1128.988,6.588
27.572,1120.692,32.452
-30.5,1108.98,41.48
-50.508,1091.412,46.36
19.276,1104.1,-2.196
55.388,1105.564,-31.964
70.272,1076.772,-10.736
-3.172,1021.14,60.756
-14.152,964.776,70.76
56.608,929.64,61.976
-0.976,899.14,131.272
59.78,867.664,119.316
59.048,827.892,112.972
61.488,818.376,93.452
137.128,816.668,41.48
167.872,801.54,15.372
23.18,734.684,77.836
-107.604,679.296,120.78
7.808,687.592,38.796
114.192,730.048,-19.276
42.212,751.764,9.76
-10.736,768.112,13.176
-85.4,752.496,23.424
-115.168,755.912,22.448
-104.92,778.36,0.244
-50.02,823.012,-13.664
-96.136,865.468,-25.132
-91.744,883.524,-18.056
-70.76,895.968,-18.788
-121.512,913.78,-21.228
-148.84,916.952,-4.392
-148.108,918.904,-1.464
-159.332,938.18,0.976
-116.632,966.24,-20.984
-93.208,1002.596,-36.356
-83.448,1015.772,-50.996
-90.036,1018.456,-56.12
-91.012,999.912,-23.424
-108.336,988.932,-6.588
-113.46,982.1,-15.372
-112.972,987.468,-10.736
-125.66,996.984,-19.52
-133.224,1009.428,-27.084
-62.708,1017.236,-28.06
-71.004,1029.68,-28.06
-98.088,1033.096,-40.504
-136.152,1045.784,-31.72
-192.76,1058.228,-10.004
-174.46,1064.328,-4.392
-90.28,1078.724,-35.624
-81.252,1050.908,-49.288
-53.436,1020.896,-50.752
33.916,996.008,-65.148
115.656,964.776,-41.968
184.952,923.54,5.124
224.724,858.148,2.196
411.14,812.764,-26.596
429.684,723.704,-17.568
451.644,632.448,15.616
608.78,576.084,74.908
762.744,520.696,77.348
844.728,500.444,149.084
797.148,574.864,219.112
803.004,421.876,149.084
864.248,339.404,146.644
1041.88,244.0,136.64
1118.496,339.892,116.632
1166.808,372.1,131.028
1093.608,345.992,202.276
1077.016,319.884,277.916
1078.48,282.796,333.06
1063.596,273.524,364.292
1079.212,265.472,387.96
1132.892,233.752,436.028
1267.092,205.692,445.056
1291.004,153.232,474.824
1240.984,104.188,521.672
1212.924,40.748,586.332
1093.852,-56.608,659.776
930.128,-121.268,694.668
728.34,-94.916,579.988
536.312,-10.492,432.856
462.136,4.88,329.644
468.236,12.932,202.764
309.148,88.816,-38.552
237.168,124.928,-293.532
267.912,172.264,-474.092
225.456,199.592,-658.312
322.324,237.412,-871.08
478.484,231.312,-944.524
491.416,180.804,-951.112
437.736,116.632,-899.14
532.652,159.332,-963.068
666.852,210.084,-987.712
664.168,179.096,-916.952
678.564,125.172,-944.524
751.52,138.592,-1036.268
819.352,187.148,-1015.528
840.58,174.948,-913.78
918.172,143.472,-871.568
1053.104,171.532,-887.672
1084.336,205.204,-807.152
1071.16,271.328,-721.02
1091.412,292.312,-585.112
990.64,210.572,-344.284
912.804,82.472,-157.868
1008.696,119.316,-46.604
1022.36,118.584,5.856
731.756,27.572,232.776
726.388,38.064,376.98
921.1,61.244,440.176
833.748,51.728,445.544
772.504,-44.164,492.636
684.176,-97.112,569.008
642.696,-150.792,615.124
688.08,-166.652,625.616
635.62,-210.084,644.404
704.916,-231.556,587.064
864.98,-241.56,518.988
961.604,-253.76,472.14
962.58,-304.024,525.576
1002.352,-391.376,562.908
1081.896,-490.196,510.692
1168.76,-564.86,414.8
1186.816,-641.964,371.856
1232.2,-691.008,365.024
1434.72,-672.952,215.94
1563.308,-660.508,166.896
1447.164,-658.556,204.228
1351.516,-654.896,254.248
1321.992,-599.996,171.288
1438.38,-378.444,-169.336
1304.912,-146.644,-353.068
1058.716,-73.932,-157.136
961.604,-60.512,-201.788
1113.86,43.432,-289.14
996.008,113.46,-303.048
826.428,151.524,-239.12
832.528,129.564,-162.504
859.612,116.876,-92.476
895.724,150.304,-139.08
887.916,215.208,-171.776
923.052,292.312,-153.72
858.148,277.184,-58.072
960.14,236.68,-47.336
1047.492,207.644,-27.572
994.788,190.32,27.084
1001.864,218.868,-3.66
1034.56,254.248,-12.444
1043.1,267.912,-2.684
1044.564,251.564,9.516
1001.864,233.996,35.136
1007.476,229.36,19.52
981.612,233.02,21.228
996.984,235.216,26.108
1001.376,239.852,39.772
980.392,241.804,30.744
991.128,253.028,-1.22
1025.288,243.512,-17.08
967.46,224.968,-1.464
969.168,220.088,5.612
992.836,249.856,9.516
1016.504,195.444,-29.28
1000.156,345.748,73.688
941.84,253.272,35.136
975.268,297.192,11.956
1070.916,306.708,-35.868
1031.388,323.544,-9.272
978.928,364.292,15.128
1009.428,397.964,-15.616
1007.964,423.584,-21.716
987.956,410.896,-27.572
966.24,498.98,0.488
944.768,596.092,-27.328
852.536,591.7,-60.756
782.508,610.732,-32.208
789.096,632.204,-55.388
673.684,654.408,-95.16
528.992,682.712,-95.404
441.152,783.484,-71.98
419.924,809.104,-96.38
383.812,853.024,-91.256
314.272,876.936,-92.476
292.8,930.128,-142.008
219.844,957.212,-149.084
132.248,964.776,-95.648
133.712,971.364,-98.576
121.512,973.56,-111.02
114.192,994.3,-134.688
166.896,1019.432,-157.624
103.212,993.08,-101.26
72.712,998.204,-109.068
44.896,994.544,-118.828
22.692,987.712,-112.972
-6.588,994.3,-114.924
2.196,997.228,-116.632
27.572,990.396,-101.992
44.408,1005.036,-126.392
49.776,1022.116,-151.524
55.876,1024.312,-129.32
45.14,1016.504,-109.8
24.888,999.18,-102.236
37.82,997.716,-121.024
59.78,1011.38,-123.952
62.708,1019.92,-97.844
59.292,1006.012,-71.248
54.656,996.984,-77.348
51.972,1002.596,-89.06
60.756,1019.188,-100.284
62.464,1017.968,-101.992
64.172,1023.336,-100.528
63.44,1032.852,-105.408
63.684,1024.068,-82.716
43.188,1000.156,-37.332
77.104,1004.06,-36.844
105.408,1005.524,-37.332
103.7,1010.892,-47.092
66.124,1005.036,-23.424
61.976,998.204,-5.612
80.764,1004.792,-25.376
91.5,1008.696,-49.776
73.2,1008.94,-38.796
61.732,1004.548,3.416
87.352,1017.724,-22.936
85.4,1020.652,-49.776
69.784,1019.188,-67.1
52.216,1010.648,-55.388
50.264,986.248,-17.568
54.412,969.168,0.976
56.852,952.576,4.392
52.46,950.38,-13.664
41.724,948.672,-35.624
41.236,961.604,-41.724
78.568,982.344,-60.268
62.22,983.32,-59.048
53.924,976.0,-48.556
29.768,969.9,-32.696
-2.196,967.216,-18.788
10.248,959.896,18.788
17.812,963.556,31.476
41.968,975.756,29.036
94.672,979.172,22.936
80.764,962.092,49.288
67.1,941.84,73.2
86.376,942.816,57.096
62.464,930.616,68.564
54.168,918.66,82.716
81.008,932.568,65.88
75.64,944.036,68.32
60.024,952.088,64.66
65.148,970.388,27.328
68.564,996.74,11.956
71.248,985.516,45.384
64.416,962.824,87.352
102.968,962.336,73.688
86.132,955.504,54.168
54.9,940.376,68.076
