acc_x[mg],acc_y[mg],acc_z[mg]
51.728,978.44,23.18
36.844,979.172,34.16
46.848,991.128,25.376
54.412,994.3,9.272
29.768,994.788,25.132
22.692,992.592,27.572
43.188,1004.304,13.176
66.368,1016.992,-1.464
50.996,1013.088,8.784
40.26,999.424,24.4
26.596,986.492,34.648
19.52,982.832,35.136
40.992,996.252,18.544
53.68,1007.964,3.416
68.564,1014.552,-2.44
66.368,1004.792,-4.148
35.624,994.3,16.592
30.5,982.832,19.764
33.184,979.66,26.596
39.528,974.78,25.62
45.872,985.76,17.812
58.316,994.544,4.636
38.308,992.104,9.028
50.264,991.128,1.22
52.704,993.324,9.76
46.116,984.052,8.052
26.596,978.684,17.812
14.396,966.972,47.336
28.06,974.536,46.116
60.756,984.784,25.864
57.096,1007.476,23.912
112.972,1028.46,-52.704
23.18,1012.356,24.156
9.516,988.932,37.332
60.024,991.86,2.44
46.848,993.812,15.128
61.244,990.64,-17.812
22.692,980.392,20.008
30.012,969.9,0.488
50.02,970.388,4.88
42.7,977.952,8.784
82.228,1005.768,-45.872
25.864,1001.376,13.176
18.788,976.488,37.576
66.368,984.784,31.72
44.164,989.664,27.328
40.504,999.668,10.492
48.8,1004.06,0.244
59.78,1004.548,-9.028
56.364,1007.72,1.952
57.584,1000.644,16.104
48.8,989.908,24.888
44.896,983.076,27.816
46.604,993.568,21.96
62.952,999.18,14.64
47.336,1012.112,29.768
64.904,1016.992,24.4
81.984,1012.112,1.464
80.032,991.616,-2.196
59.048,969.656,10.736
47.824,958.188,14.64
40.504,965.02,23.424
60.268,982.832,-19.52
59.78,983.564,-57.096
-18.788,945.012,-18.3
-27.328,955.26,-30.5
25.376,959.408,-31.964
-9.272,928.176,-5.856
-38.552,926.956,13.42
-14.396,968.436,-63.684
5.368,1004.304,-54.168
-75.152,992.348,-36.112
-84.912,1038.464,-20.008
-69.052,1077.26,-62.952
7.076,1120.204,-109.312
-2.928,1118.496,-88.816
-176.9,989.908,-56.608
56.852,1094.34,-142.252
148.84,1046.76,-125.66
72.224,988.2,16.348
69.54,978.684,84.424
248.148,934.764,44.164
320.372,917.196,32.696
198.372,882.06,162.26
163.968,860.1,192.76
196.664,881.328,168.848
215.208,911.34,113.216
179.34,926.468,86.62
161.528,963.556,65.148
170.068,974.048,75.64
155.672,975.024,94.916
148.352,1002.108,65.148
130.296,1019.676,40.992
112.728,1036.756,4.636
81.984,1043.1,-1.22
53.436,1037.0,55.876
81.496,1046.272,32.696
105.164,1055.3,28.548
132.492,1039.196,7.564
94.428,1016.992,17.08
75.64,1027.24,-17.324
76.86,1006.5,-23.668
36.844,983.808,3.416
43.432,987.712,-4.636
53.192,998.692,-41.724
63.684,1005.768,-53.192
70.272,1008.696,-66.368
108.336,1002.108,-66.612
134.688,974.048,-43.432
116.876,935.008,2.928
79.544,894.504,46.604
74.664,899.872,66.368
87.596,926.468,60.024
101.748,954.772,60.268
138.348,978.44,67.588
183.244,1000.156,68.076
199.836,1023.824,75.884
199.104,1044.808,65.392
193.248,1062.132,39.772
159.576,1059.204,29.768
160.308,1052.372,-6.832
147.864,1040.172,-46.848
84.424,1003.328,-4.392
54.656,952.576,18.3
54.9,939.4,48.8
73.932,939.156,30.012
116.632,960.14,3.172
102.968,976.244,-8.784
138.348,989.42,-30.744
102.236,993.08,47.58
105.408,968.68,58.56
147.62,993.568,40.26
142.252,1009.184,-8.54
116.388,1012.356,-12.688
113.704,1011.868,-14.64
113.46,996.252,-30.988
106.384,995.032,-10.248
104.676,970.388,-2.44
111.752,964.532,4.392
101.748,963.068,20.74
102.48,974.536,30.988
124.44,977.22,17.568
152.012,986.248,9.76
147.376,990.64,-7.808
114.924,998.692,13.42
127.124,988.688,-17.08
117.852,991.372,15.86
112.728,979.416,-7.564
116.388,974.048,22.692
105.408,986.736,16.836
103.7,989.176,16.104
115.656,1008.94,13.908
124.684,1010.404,-11.712
133.468,1007.72,2.684
133.224,996.74,-10.248
142.008,987.468,-0.976
116.632,963.068,18.788
120.536,965.996,31.232
149.328,978.196,-10.248
144.204,995.52,-6.344
123.708,988.2,-10.736
108.58,992.592,7.076
114.436,996.74,-0.244
128.588,1005.768,-4.88
113.216,998.936,0.0
114.436,991.372,-4.392
105.164,983.076,20.984
103.7,979.66,20.252
131.516,984.052,8.784
123.952,993.812,10.248
112.728,976.976,9.76
116.876,966.972,38.064
128.588,965.02,28.06
110.776,979.416,20.252
120.536,998.692,-17.812
142.496,1019.92,-19.764
128.832,992.592,2.44
114.192,973.316,40.504
147.864,962.336,40.992
109.8,959.164,34.16
98.332,983.32,-15.372
65.88,1001.62,-20.74
95.404,1024.556,-33.428
83.204,1014.064,-36.844
54.9,985.028,9.028
97.112,979.172,2.196
137.372,1000.644,-32.94
132.98,1011.136,-19.276
114.68,996.008,16.104
139.08,979.66,29.768
137.372,974.048,39.528
92.72,962.092,40.748
108.092,986.248,-7.808
97.844,986.98,-31.232
111.02,985.76,-33.672
93.208,994.056,-5.368
87.596,971.852,-9.516
77.104,986.492,-9.028
47.092,1008.696,-4.392
47.824,996.252,-13.908
70.272,1004.548,-12.2
120.78,1003.084,-38.308
138.592,991.86,-21.228
156.648,975.024,-19.276
94.428,960.384,11.224
49.288,957.456,29.036
15.86,971.12,42.7
64.172,1001.62,21.716
122.732,1017.968,-10.736
142.984,1045.54,-35.38
131.028,1056.764,-67.1
64.172,1054.324,-62.708
29.28,1047.736,-59.048
25.376,1045.052,-37.088
66.124,1046.76,-27.328
95.648,1050.664,-6.832
88.084,1031.144,5.856
75.884,1030.9,-1.952
58.072,1035.78,-19.52
42.7,1038.708,-12.2
47.336,1035.78,-26.352
41.236,1042.856,-21.96
52.948,1046.76,-52.948
29.768,1048.956,-47.824
-4.392,1070.428,-32.94
-11.468,1104.832,-55.144
-25.62,1116.544,-27.328
-10.98,1064.328,-14.152
44.896,1036.756,34.892
73.444,999.18,55.876
33.916,1019.92,72.956
-14.64,1099.708,23.668
-31.476,1186.572,-66.368
-12.2,1179.74,-64.66
27.572,1156.804,-3.172
-84.912,1217.56,90.524
-265.716,1408.612,108.092
-414.8,1722.64,-1.464
-576.084,1926.136,-141.276
-480.192,1961.76,-217.892
-238.632,1997.384,-226.188
-52.216,1817.556,-97.356
76.372,1502.552,210.816
125.904,1250.5,481.412
189.588,1115.812,482.144
436.76,1016.748,230.58
637.084,839.604,34.16
586.576,606.096,-50.508
396.988,403.82,-46.116
134.932,201.788,73.444
-111.508,28.548,314.76
-118.34,101.992,385.52
86.864,239.364,123.952
260.836,441.884,-59.292
314.76,511.424,-191.052
136.396,479.704,-133.712
-133.956,471.652,100.04
-231.312,492.636,145.912
-252.052,607.072,146.644
-234.484,674.66,125.172
-266.448,745.664,95.892
-325.74,763.232,42.212
-413.58,817.644,6.1
-447.008,782.264,-3.66
-428.464,503.86,-204.716
-455.548,480.924,-305.732
432.124,1049.688,-224.968
1669.936,357.46,657.58
1365.912,272.06,-133.468
1238.544,930.372,-931.348
923.54,880.352,-553.392
877.912,418.216,-65.392
1068.964,-12.688,437.736
1196.82,-59.78,580.72
1083.36,175.436,431.148
901.092,419.68,235.704
1101.904,426.268,253.76
1212.436,287.92,530.7
1209.02,208.864,762.5
1282.952,247.172,778.116
1203.164,364.536,791.048
1220.732,456.036,940.376
1331.02,189.832,1197.796
1114.592,-41.236,1341.268
1027.972,113.46,1127.524
983.564,296.216,999.912
876.204,114.68,1004.304
775.92,-169.58,713.212
773.236,-101.504,269.132
710.04,-18.544,3.172
645.868,-93.208,-166.896
485.316,-335.988,-376.004
460.428,-367.22,-710.284
422.852,-335.744,-807.152
242.536,-355.02,-697.596
183.976,-432.124,-772.016
273.768,-584.38,-1195.844
421.388,-440.664,-1454.972
454.084,-266.692,-1496.696
426.512,-150.06,-1403.0
509.96,-150.304,-1465.952
643.672,-143.228,-1581.608
776.164,-80.276,-1648.22
769.332,-56.364,-1616.256
827.16,12.2,-1699.216
995.764,7.076,-1744.844
1053.104,-36.112,-1652.368
999.18,-122.488,-1450.336
1030.168,-228.384,-1333.948
1060.668,-326.716,-1231.224
1026.264,-399.672,-1121.912
905.728,-355.752,-965.752
863.028,-392.84,-808.128
824.72,-395.524,-679.784
729.072,-548.024,-412.848
753.472,-543.876,-112.972
1011.868,-507.276,-139.812
1074.088,-569.008,-91.988
856.196,-684.908,128.1
628.788,-684.42,375.516
740.052,-474.092,517.036
905.24,-451.4,598.532
1027.728,-604.388,780.312
1019.676,-656.36,908.9
844.24,-413.336,968.192
949.648,-249.856,911.096
952.088,-306.952,1158.756
898.896,-466.04,1384.7
1068.72,-615.368,1453.02
1169.248,-469.7,1334.924
1356.64,-335.012,1046.76
1380.552,-396.744,1056.276
1382.016,-585.6,1022.604
1285.148,-535.092,1096.048
1234.152,-465.796,1001.132
1468.148,-444.812,807.396
1700.924,-521.184,712.48
1708.488,-670.024,676.124
1584.78,-789.828,738.1
1720.688,-826.916,803.004
1930.772,-882.304,624.884
1831.464,-996.74,424.56
1563.064,-925.248,253.516
1450.092,-863.76,145.668
1427.156,-919.636,-37.82
1217.072,-823.744,-451.4
923.052,-587.796,-965.264
945.256,-494.1,-1124.352
900.848,-423.34,-1174.86
868.64,-308.904,-1328.58
831.308,-384.788,-1228.296
504.104,-396.012,-1043.1
842.288,-487.512,-941.84
946.72,-557.54,-848.876
719.556,-373.808,-889.624
604.144,-293.044,-745.664
590.236,-253.272,-590.48
628.056,-217.404,-539.728
630.252,-128.588,-580.232
583.648,0.488,-600.972
636.352,79.056,-460.916
809.104,23.424,-311.588
1007.476,-19.764,-254.248
1072.624,-45.14,-195.2
1179.252,-32.208,-176.656
1444.236,-20.252,-204.716
1439.112,82.96,-274.744
1290.516,61.0,-20.74
1316.868,7.32,445.3
1485.96,334.768,346.236
1076.772,571.448,-276.452
65.392,627.324,296.46
353.8,972.828,996.008
392.352,525.576,339.16
-643.428,628.788,-201.056
-662.46,1283.196,-340.624
185.928,1349.076,-683.932
-372.588,830.332,-66.612
-490.196,733.708,226.188
-365.268,839.36,23.424
-411.872,922.564,-112.972
-279.624,1002.84,-288.652
-217.404,881.572,-321.348
-145.668,863.272,-323.3
-183.732,1044.32,-419.436
-149.816,1108.98,-562.176
-181.536,1094.34,-552.416
-79.3,1032.608,-604.144
-44.652,967.704,-502.152
-10.98,941.108,-463.844
107.36,1082.872,-585.6
-44.408,1155.828,-662.704
-26.108,1193.648,-758.108
60.756,1085.556,-680.028
217.892,1021.14,-521.916
256.932,974.048,-449.936
172.752,1021.14,-417.728
173.728,1043.832,-486.78
133.956,973.56,-360.144
256.2,862.052,-192.516
257.664,858.88,-33.916
370.392,970.876,-41.968
252.54,938.18,58.804
157.136,817.888,216.184
304.268,670.512,441.396
424.56,687.592,583.16
228.872,781.288,736.392
174.948,899.14,761.28
312.808,923.052,748.348
435.54,950.38,822.768
345.016,925.492,812.52
112.972,914.512,850.34
33.428,986.736,741.272
-9.272,1094.096,615.124
53.192,1181.936,503.128
200.08,1193.16,332.084
57.34,1125.572,305.976
-57.34,1092.388,405.528
-103.944,1122.888,427.976
16.348,1344.928,190.32
53.924,1582.584,-41.236
-5.368,1622.6,-48.8
127.856,1760.948,60.268
390.888,1821.216,181.536
384.056,1718.492,183.732
52.704,1547.692,211.792
122.0,1509.628,41.48
170.8,1486.692,-67.588
57.828,1299.3,214.476
53.192,1090.436,200.08
543.144,1180.96,-25.864
680.76,1181.692,-437.004
43.188,805.444,-123.22
-278.892,374.052,587.064
-312.32,158.6,664.168
46.116,356.24,219.844
577.548,689.3,-283.284
583.648,702.72,-363.56
28.06,326.96,62.708
-466.04,34.404,418.704
-555.1,127.368,487.756
-257.176,472.628,208.864
1.952,748.836,-52.216
-4.148,778.116,-230.336
-289.14,709.308,40.504
-461.892,597.312,213.988
-500.932,703.452,197.64
-437.736,858.392,58.072
-325.74,939.888,25.132
-78.08,976.244,-51.24
-178.12,963.8,-13.664
-280.6,937.936,53.192
-271.328,969.656,13.664
-436.028,948.916,7.564
-475.556,944.28,-31.964
-437.98,849.852,94.184
-281.576,800.076,329.644
63.44,887.916,227.652
206.668,956.48,76.86
111.264,979.66,101.504
-86.864,948.916,158.844
-278.404,969.9,139.568
-316.468,1098.488,73.444
-149.572,1063.352,-18.3
-35.136,940.132,21.472
10.98,876.692,5.612
-54.9,908.656,31.964
-126.88,914.268,32.452
-254.004,913.292,-35.868
-250.344,715.652,-323.3
-193.98,523.136,-390.156
125.66,577.06,-205.936
472.14,589.504,-6.588
1033.096,605.608,403.332
1123.864,743.712,299.144
1800.964,610.976,-888.892
1188.524,666.608,3.172
910.364,473.116,-76.616
553.392,447.252,166.896
668.316,435.54,117.608
933.3,453.352,53.68
1010.648,387.472,129.808
848.876,400.404,150.792
776.896,475.556,-4.88
841.556,497.516,-23.424
1024.068,422.12,4.148
1123.62,378.444,111.752
1065.792,297.924,198.128
894.748,399.672,282.064
917.44,518.5,217.16
981.856,481.656,333.548
1011.136,473.848,430.172
1078.724,454.328,530.456
1025.532,420.656,683.932
875.96,465.796,787.388
915.732,487.512,860.832
1087.264,377.224,843.264
1150.46,296.46,781.288
1083.36,317.688,837.652
1052.86,297.436,806.42
979.416,219.356,829.844
948.672,154.94,861.076
1042.124,209.352,827.892
1046.516,223.016,671.488
864.98,145.912,640.012
700.768,-14.152,613.66
602.68,-221.308,550.464
499.468,-375.272,504.836
436.272,-449.448,351.848
413.336,-471.408,-26.596
542.412,-527.284,-462.136
589.016,-630.74,-733.464
383.08,-676.612,-889.624
295.728,-577.792,-971.852
477.752,-481.412,-1163.392
504.592,-436.272,-1363.716
670.756,-269.864,-1613.084
637.816,-99.308,-1606.252
602.68,-55.876,-1759.728
711.992,-44.408,-1708.488
912.804,7.564,-1761.436
773.48,84.18,-1690.188
802.516,-6.588,-1589.904
913.536,-136.64,-1416.176
949.16,-225.7,-1242.692
937.448,-274.988,-1073.6
973.56,-268.156,-1086.288
971.12,-336.476,-1099.464
798.856,-357.948,-982.588
771.772,-456.036,-745.176
953.552,-534.848,-545.828
846.68,-620.248,-377.224
475.068,-574.132,-134.932
275.964,-278.16,-25.376
613.904,-314.272,73.444
964.044,-564.128,322.568
1067.988,-874.008,453.84
747.86,-686.128,658.068
508.74,-266.448,765.916
844.484,-437.98,885.72
1226.832,-767.868,1271.484
1305.4,-889.38,1408.124
941.352,-625.86,1429.352
1033.828,-488.0,1421.3
1310.768,-593.164,1446.92
1508.652,-723.948,1456.924
1685.552,-781.532,1277.096
1645.536,-713.212,1081.896
1629.676,-642.452,966.24
1741.184,-674.904,859.612
1826.828,-784.948,770.308
1690.188,-804.712,588.772
1521.584,-691.74,398.696
1567.944,-587.796,183.244
1726.788,-560.712,-27.084
1747.772,-634.156,-167.384
1515.728,-706.136,-205.692
1017.968,-633.668,-193.98
978.684,-601.216,-200.568
1111.176,-587.064,-380.884
1255.136,-394.548,-666.608
1193.648,-395.768,-893.772
946.964,-420.9,-814.472
794.464,-453.108,-557.296
1001.62,-427.488,-392.352
1222.684,-417.484,-511.668
879.62,-368.928,-536.068
451.156,-366.976,-384.056
596.092,-382.348,-169.092
1062.132,-331.84,-327.692
1134.356,-270.352,-570.716
857.416,-160.308,-364.78
703.94,-142.74,-201.544
764.94,-77.592,-117.364
936.228,-69.784,-175.436
1090.192,-88.572,-193.004
1145.092,-135.664,-24.4
1208.776,118.34,98.576
1516.704,346.236,171.044
1767.536,89.792,-24.644
1382.26,118.584,-204.716
969.412,367.952,-254.98
840.58,193.736,37.82
395.524,342.332,197.396
-34.892,615.856,86.864
-446.764,918.904,-33.672
-206.18,1056.276,-283.04
299.144,1142.896,-707.356
-16.348,948.428,-472.384
-458.476,820.572,-0.488
-301.584,876.692,6.588
-115.168,959.652,-118.34
-107.848,931.592,-173.24
-306.22,925.004,-123.952
-373.32,888.648,-74.42
-227.164,897.432,-151.524
-87.352,1013.332,-257.664
-92.964,1042.612,-279.868
-189.1,1038.22,-288.164
-159.82,1019.676,-345.748
-140.788,975.268,-341.6
-111.752,990.64,-341.356
-27.572,975.756,-296.704
49.532,968.436,-319.64
10.98,933.056,-322.812
-73.444,922.32,-314.272
-11.956,1052.128,-449.692
29.28,1092.632,-494.832
46.36,1034.56,-479.948
61.976,941.352,-381.372
16.348,916.464,-265.96
20.008,981.612,-325.496
85.156,1098.244,-402.844
176.656,1089.704,-494.1
82.96,1000.888,-352.58
121.756,961.116,-208.62
183.0,941.596,-180.316
99.552,910.364,-184.464
101.016,867.664,-153.476
167.872,919.88,-70.76
156.892,970.388,-51.728
151.768,990.884,-8.54
180.072,957.944,198.372
358.436,911.828,367.952
349.164,838.14,417.24
255.224,880.596,358.192
225.944,1009.428,345.992
317.2,1021.872,414.556
262.3,933.3,619.028
256.932,901.824,666.12
258.396,941.596,568.032
134.932,971.12,505.568
83.692,963.312,473.604
128.588,1019.92,422.12
112.24,1066.28,358.68
201.788,1116.3,263.764
138.104,1097.756,263.032
65.148,1009.184,351.604
104.92,965.752,334.768
130.784,1007.72,243.268
172.264,1104.832,101.26
65.636,1084.336,82.96
32.696,1004.304,81.74
39.772,887.672,193.98
77.348,885.964,155.916
59.292,950.624,81.74
-16.836,972.584,35.868
7.564,995.276,-29.524
-8.54,986.004,-5.124
19.764,1001.132,17.08
26.108,971.852,-3.416
-26.84,932.568,37.332
78.568,924.76,59.536
48.8,926.956,90.524
3.172,941.596,79.056
-10.736,994.544,11.468
30.012,1007.72,-15.372
-30.012,973.072,2.928
18.544,934.52,50.996
98.088,942.084,-13.664
-9.76,930.86,110.776
101.748,1024.068,-21.716
-11.712,1027.484,48.312
18.056,1037.244,19.276
57.828,1026.996,0.976
2.196,956.724,63.44
11.224,901.336,114.436
100.04,957.944,99.308
14.64,965.752,66.124
3.66,1007.476,34.404
56.364,1048.956,-20.008
33.428,1024.556,2.196
-25.132,957.456,47.336
27.572,961.116,34.892
41.724,985.028,-14.884
16.348,994.3,-11.224
38.308,981.368,23.912
10.98,969.656,30.012
33.916,1019.92,6.832
60.756,1042.368,34.648
31.232,994.544,70.76
0.244,951.844,145.18
48.312,948.916,103.7
34.16,958.92,118.34
63.684,1008.94,39.772
53.924,1036.268,-0.244
9.516,1037.244,18.3
51.728,1020.164,-2.684
-29.768,970.388,97.6
-16.592,924.516,120.536
35.624,930.86,147.376
5.612,956.48,119.56
59.78,1036.268,-0.732
74.908,1071.16,10.492
21.472,1040.66,13.908
0.488,992.592,79.3
13.664,978.684,80.52
4.148,1005.28,73.444
-2.684,1031.144,18.056
-7.564,1005.28,47.824
16.104,978.928,27.816
-4.148,972.584,58.56
-34.892,953.796,58.316
8.54,978.928,51.728
19.032,981.856,36.844
-17.08,975.512,52.46
31.72,1002.84,27.816
42.212,1013.82,-3.172
18.056,979.66,88.084
36.844,978.928,46.848
0.0,981.612,61.976
-3.416,980.636,54.168
9.76,980.88,19.032
-31.232,966.484,62.952
-12.932,968.924,50.02
17.324,980.88,22.692
56.608,1008.452,16.104
24.888,1016.748,-16.104
20.74,1013.332,41.48
29.768,987.956,54.9
19.276,982.588,62.22
14.64,982.1,33.428
-5.612,973.804,24.644
21.228,992.348,18.3
9.272,1005.036,36.356
6.1,1028.704,31.232
3.172,1056.276,47.092
-9.516,1050.176,65.88
12.444,1062.132,66.856
35.136,1062.62,54.656
7.32,1065.304,67.588
-2.196,1093.608,36.6
-34.892,1152.168,17.324
-44.408,1207.068,-17.324
-39.772,1201.456,-0.976
-79.544,1153.876,82.228
-138.836,1168.516,131.028
-146.156,1285.392,88.084
-280.112,1372.744,18.544
-348.188,1428.864,-45.872
-111.264,1514.752,-95.892
-6.832,1462.048,-31.476
-7.32,1418.128,-1.22
-99.308,1416.908,-50.752
-342.82,1431.792,-168.36
-389.18,1360.056,-111.264
-83.448,1295.64,52.46
63.44,1239.276,69.052
-18.3,1145.824,36.356
-162.748,1018.7,92.476
-136.64,957.212,175.192
14.396,962.58,201.544
198.372,900.116,156.892
36.112,762.5,207.888
-144.936,679.54,185.44
-209.108,660.02,105.164
-187.392,597.068,128.344
-71.492,569.74,77.836
-64.904,475.8,126.636
-115.9,404.064,206.912
-145.668,393.328,169.824
-75.152,469.7,81.984
-75.64,527.04,53.436
-174.704,549.976,57.828
-191.784,612.44,21.716
-237.656,616.1,8.54
-329.156,632.204,-0.244
-421.632,649.04,0.244
-415.288,691.984,51.24
-319.152,819.352,62.952
-299.632,859.856,79.3
-447.984,838.872,37.088
-430.172,783.24,7.808
-186.904,665.144,-153.476
50.996,401.38,-352.092
497.028,762.012,-455.548
563.64,1921.5,300.364
152.5,1159.244,393.328
349.652,450.668,845.216
219.844,694.18,312.32
897.188,870.592,-128.1
1438.868,470.432,120.048
1071.16,433.588,362.096
507.276,508.252,355.996
447.252,662.704,335.012
874.74,560.712,340.38
1046.76,515.084,420.656
806.908,546.072,618.54
765.672,609.512,832.528
932.812,606.34,918.172
1077.504,409.92,957.456
929.64,347.212,998.204
1069.94,497.272,971.12
1346.392,481.656,919.636
1079.944,326.96,1008.452
837.652,263.52,816.424
763.964,254.248,616.1
823.744,285.724,439.444
802.76,295.484,360.632
708.088,188.856,301.096
628.788,84.668,43.432
461.892,-47.824,-222.528
507.276,-89.792,-540.216
615.856,-153.72,-817.156
491.904,-155.916,-870.592
379.176,-201.3,-941.108
437.004,-151.036,-1079.456
557.784,-151.036,-1218.78
698.328,-189.1,-1251.72
804.224,-31.232,-1499.868
805.2,125.416,-1633.824
855.708,196.908,-1628.456
967.704,111.752,-1485.228
1011.868,38.064,-1265.14
1019.188,79.544,-1161.684
1031.632,161.772,-1158.756
992.104,141.032,-1178.276
903.776,95.892,-1114.592
932.568,6.1,-919.148
1106.052,-39.04,-719.312
1094.828,-123.464,-577.792
892.064,-292.068,-394.548
903.288,-269.62,-130.784
1127.524,-250.588,-14.396
1129.964,-396.256,313.54
1018.7,-580.232,655.384
697.108,-501.664,858.392
434.564,-77.104,1212.68
757.376,-179.096,1371.036
919.392,-379.908,1579.412
918.66,-414.556,1633.336
954.284,-321.836,1591.368
1192.184,-137.616,1509.872
1281.976,-132.98,1408.368
1243.912,-175.192,1332.484
1234.396,-81.008,1213.9
1281.0,0.732,1091.412
1358.104,-106.384,983.32
1518.168,-243.024,902.8
1619.672,-289.628,710.772
1533.296,-402.356,416.752
1360.544,-241.804,477.752
1439.844,-298.168,396.256
1484.252,-340.868,371.856
1374.208,-417.728,339.404
1240.984,-446.764,204.228
1067.744,-503.372,5.856
1014.064,-476.532,-217.16
975.024,-355.752,-412.604
1159.976,-198.86,-551.928
1069.696,-127.368,-710.04
801.54,-142.008,-581.452
839.604,-232.776,-538.752
1026.996,-196.908,-531.92
1375.916,-30.256,-670.024
1386.896,-3.904,-943.792
1080.676,-60.024,-614.88
943.304,-57.828,-309.392
946.72,33.428,-263.52
1015.528,166.652,-285.968
1264.408,43.676,-391.864
1471.564,48.556,-457.256
1155.584,301.34,-139.568
910.852,414.556,58.316
1123.62,610.488,-154.696
835.7,825.452,-42.212
1059.692,852.78,403.332
1233.664,288.164,-249.124
654.652,203.008,-700.036
-518.988,1185.108,-316.956
-368.928,1282.708,-233.02
506.056,1304.668,-354.776
220.332,758.84,-174.948
-759.816,323.3,146.4
-540.46,697.84,-145.18
-410.164,889.624,-286.456
-324.032,881.328,-256.2
-186.416,826.184,-123.22
-305.976,717.36,-164.944
-436.76,785.68,-192.028
-183.976,1073.112,-239.608
-159.82,1113.86,-192.76
-150.548,1026.264,-175.68
-210.084,926.224,-121.268
-195.932,992.348,-204.472
-135.42,1041.392,-277.428
-99.796,1107.272,-238.388
-206.668,1084.58,-143.228
-122.732,1037.976,-137.128
48.068,1040.172,-162.26
79.056,1113.616,-214.964
55.144,1174.86,-279.136
-27.572,1083.848,-299.144
-99.064,940.132,-232.288
-19.032,861.32,-190.32
144.936,926.224,-241.804
222.772,978.928,-357.704
83.936,1026.508,-263.276
-7.32,1008.452,-134.932
38.064,900.848,9.272
191.052,906.216,-20.496
201.544,926.956,-59.292
188.612,970.388,-92.964
127.856,882.304,39.04
131.272,784.704,216.184
210.572,774.212,365.268
135.664,804.224,507.032
76.616,750.056,716.384
154.452,753.716,773.968
335.5,915.244,496.784
244.732,1121.912,304.268
175.436,1227.076,268.888
45.872,1194.624,301.584
-39.528,1095.804,506.544
53.192,977.464,560.468
204.472,990.396,402.356
241.316,1028.216,249.124
248.148,1139.48,197.64
260.592,1104.1,136.884
140.056,1037.0,256.2
110.288,999.912,337.696
280.6,1016.748,179.828
292.068,1006.744,-40.748
232.044,1028.704,-62.708
109.068,1041.88,26.84
168.36,977.708,54.168
235.216,938.668,24.156
243.268,943.548,-7.076
186.66,990.64,-45.628
122.732,999.912,-45.872
225.212,970.876,-31.964
278.648,948.428,-52.46
184.952,928.664,26.352
181.048,898.408,32.208
164.212,936.716,16.348
148.352,970.632,-43.188
134.932,965.264,-61.0
168.36,947.696,-75.64
185.44,938.424,-79.788
183.0,917.196,-5.612
180.804,959.164,19.764
176.656,1026.996,-10.736
146.644,1059.936,1.22
186.66,1066.28,-28.06
196.176,1080.188,-17.568
221.064,1142.652,-35.624
272.06,1196.82,-46.116
158.844,1294.908,27.328
101.748,1420.324,72.712
218.136,1542.324,28.06
260.348,1625.772,-70.028
178.12,1619.916,-29.036
99.064,1640.656,62.22
112.972,1549.888,90.28
144.204,1514.752,135.42
398.208,1405.928,57.096
506.3,1204.628,-103.456
195.688,1113.372,-99.308
35.38,1003.084,-74.42
213.988,788.852,18.056
283.284,622.2,66.124
40.992,464.82,213.5
-59.292,383.568,82.472
135.908,274.256,239.12
525.332,248.392,215.208
524.844,315.98,-162.748
277.184,418.704,-271.816
165.432,505.568,164.944
547.292,260.592,558.028
645.868,183.488,481.9
622.688,507.52,-43.188
719.312,496.052,-315.736
807.396,561.932,-228.872
802.028,486.292,42.212
784.948,670.756,149.328
1046.516,675.636,-40.26
1212.192,609.512,-78.08
1148.02,600.972,-183.732
795.196,333.792,-109.312
625.128,369.904,295.728
796.904,269.132,355.508
931.592,423.828,48.312
678.564,647.332,-249.612
421.144,744.688,-619.76
1013.088,325.984,-170.312
1839.76,-401.136,627.568
1545.252,-436.76,862.54
812.52,-46.848,513.864
595.36,177.144,161.284
816.668,152.988,27.084
848.144,112.24,122.732
993.812,113.46,138.348
1134.844,141.52,91.256
1134.844,48.068,29.768
1202.676,36.112,106.628
1360.788,-50.508,178.852
1329.068,-15.616,361.852
1304.912,74.176,450.912
1210.484,70.76,614.636
1218.536,66.124,713.7
1128.256,140.3,915.488
1076.772,196.908,979.66
1252.696,221.308,940.864
1311.012,75.152,832.528
1204.628,-7.564,786.168
1123.376,99.308,674.904
1049.2,110.288,677.1
803.492,-158.112,712.48
440.664,-377.712,653.676
433.344,-456.524,249.368
395.28,-378.932,-111.752
156.16,-448.96,-356.972
87.352,-553.148,-817.4
-18.3,-488.732,-1278.072
-111.508,-202.764,-1599.42
-10.004,-16.104,-1735.816
319.396,-99.552,-1928.332
422.608,-95.648,-2050.088
267.668,26.352,-2053.26
262.3,112.972,-1915.644
610.976,92.72,-1891.244
812.52,7.32,-1727.764
671.488,-129.808,-1423.984
554.124,-214.476,-1303.936
818.132,-170.556,-1464.976
1122.156,-211.548,-1593.564
1066.524,-253.516,-1545.984
897.432,-324.032,-1167.052
932.324,-491.66,-823.5
877.18,-625.86,-597.8
585.356,-624.64,-270.596
642.696,-429.196,-140.3
889.868,-460.184,-56.12
989.42,-732.0,183.0
962.58,-985.028,481.412
647.576,-738.832,818.62
583.892,-464.332,947.452
824.964,-555.832,1028.46
1085.068,-725.412,1140.456
1245.864,-917.928,1149.484
1162.904,-693.936,1386.408
1308.328,-585.844,1369.572
1346.636,-657.824,1460.828
1537.444,-806.42,1444.236
1696.044,-792.268,1307.108
1698.728,-684.176,1074.088
1556.232,-681.736,863.76
1576.484,-625.86,858.392
1725.568,-705.892,748.104
1563.796,-708.088,645.136
1288.564,-631.228,406.748
1465.22,-557.784,133.712
1835.368,-579.256,-71.736
1959.564,-636.84,-25.62
1694.092,-781.044,45.872
1213.168,-851.316,54.656
924.028,-675.392,223.504
1197.796,-548.268,-107.36
1497.916,-518.5,-302.072
1424.472,-421.876,-319.152
936.716,-337.94,-360.144
534.848,-399.916,-140.544
834.236,-267.912,-267.18
1432.524,-165.188,-859.856
1441.064,-345.992,-1059.936
840.58,-300.12,-721.996
550.952,-155.916,-533.14
391.62,-233.264,-381.86
576.572,-323.3,-293.044
1017.724,-372.1,-464.576
1049.688,-345.748,-575.84
776.164,-213.5,-499.956
761.524,-137.128,-453.596
891.088,-43.188,-437.736
1003.084,15.86,-446.032
1053.592,-59.536,-417.972
1191.452,-91.5,-203.74
1403.732,-10.736,-64.904
1630.408,126.636,-9.76
1617.72,39.528,31.476
1339.804,73.2,83.936
461.648,380.64,-52.948
680.272,531.92,-117.364
276.452,337.94,-355.508
-74.42,875.716,-182.268
-381.128,997.716,-122.732
-188.612,698.084,-68.808
-977.952,539.484,-180.56
-667.828,857.172,-388.204
-301.34,880.352,-527.04
-269.376,857.904,-197.152
55.876,915.732,-295.728
35.624,928.42,-419.68
-324.276,851.804,-397.232
-486.78,926.468,-385.52
-371.612,961.848,-448.96
-45.628,1043.832,-499.468
166.896,974.048,-546.56
-23.912,933.056,-428.22
-72.224,1026.264,-514.84
18.3,1109.468,-558.272
45.628,1092.388,-546.56
53.924,1002.108,-463.356
-98.088,900.604,-286.212
-139.08,997.472,-374.052
33.428,1118.496,-523.624
123.952,1111.908,-494.832
87.352,959.896,-383.08
17.08,1008.452,-201.544
-43.92,1061.156,-178.852
94.916,1140.212,-353.068
274.256,1039.44,-420.412
371.856,969.9,-166.408
277.428,912.56,300.852
133.712,933.788,499.712
108.336,981.368,358.436
189.1,995.52,236.68
262.544,969.168,206.18
288.652,932.812,364.536
101.748,895.724,598.044
18.3,876.448,708.088
94.916,896.944,609.512
323.056,907.68,481.168
396.012,731.024,666.608
204.228,601.704,851.072
188.124,758.352,699.792
66.368,945.744,479.704
125.66,1083.36,335.744
169.336,1024.556,290.36
93.696,838.14,420.412
181.78,869.616,425.292
226.188,1024.8,220.332
194.468,1152.168,28.304
152.988,1133.624,0.0
116.144,1032.608,39.528
72.712,895.236,145.424
83.936,904.264,228.14
111.996,945.5,101.504
100.772,990.396,15.86
89.06,1025.288,17.08
110.288,984.784,3.416
87.352,925.004,32.94
56.364,947.696,106.872
156.892,1051.396,-17.812
132.492,1089.216,-34.16
51.972,1037.732,43.676
105.652,1007.232,22.936
81.252,1074.576,72.956
135.176,1134.6,45.14
43.676,1148.02,90.036
-3.416,1203.164,154.696
197.396,1218.048,135.176
200.324,1157.292,164.7
340.868,1134.356,185.44
255.712,1113.372,201.3
87.84,1025.044,105.652
3.66,1040.66,30.256
-152.256,936.228,-75.64
-172.996,888.648,34.404
469.212,1050.176,115.168
794.22,1052.86,-91.5
640.5,1197.064,-23.18
346.236,1295.884,-50.996
7.808,1208.776,40.016
293.288,1047.736,497.76
931.836,1016.992,528.992
1081.164,1145.336,375.76
886.452,1127.28,60.512
603.168,1091.168,-329.4
776.164,1090.924,-176.412
1596.492,1041.392,254.004
1978.84,872.056,220.576
1492.06,893.284,-8.296
721.752,581.696,-131.516
239.852,482.632,465.552
145.424,660.264,825.452
582.916,782.02,215.208
876.448,616.344,40.26
775.188,475.8,91.256
236.924,416.752,138.592
-172.02,323.788,367.464
-235.948,418.948,400.16
-52.46,474.092,132.98
462.624,449.692,38.064
570.716,202.764,78.324
108.824,305.244,178.364
-122.0,403.82,167.872
-35.136,494.1,91.012
351.604,409.188,65.392
865.956,347.456,107.604
920.124,505.568,-39.04
600.484,696.132,-19.032
587.064,744.2,-84.668
801.296,611.708,-39.04
833.016,455.304,100.528
628.056,467.748,299.876
669.536,627.324,177.632
973.56,703.208,16.592
1049.688,702.964,11.468
925.98,553.636,166.652
710.04,546.804,259.372
648.796,569.496,252.784
748.592,597.312,210.084
925.248,585.6,182.512
927.2,492.392,258.64
758.596,530.212,337.208
713.212,547.292,363.56
733.464,616.588,341.112
763.72,596.092,332.084
888.16,588.772,334.768
1011.136,558.76,404.064
871.08,565.592,467.748
643.184,628.3,564.616
632.936,620.492,606.828
758.108,503.372,715.408
664.412,485.316,881.816
599.264,567.544,830.332
599.508,592.676,802.028
650.26,533.628,749.568
842.044,331.108,653.432
1020.652,327.448,522.404
987.224,436.028,522.404
900.604,371.368,543.144
856.196,181.292,496.052
883.28,107.36,311.832
908.9,137.616,228.384
926.712,165.92,141.764
789.828,106.14,91.256
570.96,-64.66,168.848
586.576,-183.488,-31.72
719.068,-255.956,-328.424
662.46,-402.112,-506.056
650.992,-419.436,-763.964
734.44,-373.808,-936.228
938.18,-346.724,-1274.412
996.252,-332.084,-1352.736
960.872,-247.904,-1396.412
885.232,-124.928,-1384.212
867.42,-28.548,-1322.968
859.124,21.716,-1319.064
959.164,12.2,-1306.62
906.948,-46.36,-1146.556
755.912,-22.692,-928.908
813.984,-43.188,-829.6
904.996,-54.656,-880.108
898.896,-57.584,-847.656
1023.824,-49.532,-898.652
1206.58,-100.528,-924.516
1269.532,-307.196,-868.152
1114.348,-480.68,-655.872
968.924,-332.572,-420.9
1036.756,-276.94,-508.008
1061.4,-475.312,-382.104
867.664,-686.616,-123.708
622.2,-696.376,333.06
571.936,-594.872,648.308
640.5,-646.6,954.772
748.592,-855.708,1112.64
743.468,-745.664,1193.404
645.38,-626.592,1366.156
727.608,-503.616,1687.504
918.172,-716.384,1924.672
902.556,-724.436,2122.556
889.624,-553.392,2004.216
1057.008,-507.032,1832.928
1304.424,-560.224,1735.572
1468.636,-717.848,1566.236
1325.164,-739.076,1420.568
1203.652,-618.54,1228.54
1236.104,-549.976,908.412
1428.62,-467.748,728.828
1644.316,-546.804,447.984
1654.808,-616.344,301.096
1534.028,-686.616,282.064
1406.172,-706.136,259.86
1270.508,-703.452,203.496
1217.072,-621.956,13.908
1290.516,-496.052,-257.42
1181.204,-491.172,-424.072
951.844,-447.496,-357.46
1039.928,-410.164,-426.756
1085.068,-259.86,-470.432
914.024,-220.332,-512.4
854.244,-141.032,-510.204
918.66,-77.348,-583.648
881.816,-20.252,-619.76
944.768,-77.836,-718.092
1169.492,-32.94,-571.936
1160.952,95.404,-626.592
1077.26,124.684,-599.752
903.532,-36.844,-335.988
736.148,-68.564,-2.196
771.284,18.544,55.632
915.976,166.164,-114.436
1056.764,234.24,-210.328
1111.908,197.884,-154.94
1076.04,182.512,-62.464
1107.028,159.576,9.516
1230.492,158.844,-25.864
1274.412,289.872,-69.54
1247.328,379.664,-101.504
1358.104,303.048,-63.196
1563.796,190.32,-73.2
1779.492,262.056,-149.816
1626.992,226.188,-225.212
1086.288,147.376,-111.264
450.18,354.776,115.9
235.46,528.016,112.484
-126.636,517.036,-52.948
-412.116,612.928,-140.3
-575.84,929.64,-63.684
-396.988,1053.348,-158.6
-101.26,950.624,-182.756
-3.172,794.952,-35.624
-139.812,718.092,22.692
-226.432,936.228,-63.196
-230.58,1095.316,-246.44
-164.944,1140.7,-295.24
7.808,1106.052,-277.916
46.36,1020.652,-235.216
-159.82,935.74,-50.508
-210.328,928.664,-23.912
-79.544,1014.552,-179.34
21.472,1051.396,-291.336
25.864,1005.28,-288.652
28.06,932.324,-138.836
80.032,966.972,-144.936
24.888,977.464,-162.748
-31.232,986.98,-182.024
-34.404,1037.732,-185.196
137.372,1076.528,-209.596
52.704,1045.784,-140.056
-48.556,990.396,-81.984
51.972,999.668,-76.86
58.804,979.172,21.228
129.076,980.148,121.512
144.448,985.272,72.956
56.364,1006.012,65.636
96.624,959.408,9.272
95.648,932.324,49.288
70.76,959.164,85.4
63.44,946.232,34.404
40.992,970.144,68.564
63.684,996.984,19.032
83.936,1004.304,-29.28
40.504,948.428,16.104
74.176,928.664,57.828
77.348,993.812,27.084
68.32,1056.52,-66.124
91.012,1072.868,-86.132
67.344,988.688,-4.636
108.58,930.128,40.504
87.596,928.664,-10.492
9.272,1016.016,21.472
-33.428,1044.564,-73.932
13.908,1031.876,-55.144
74.176,996.74,-30.988
68.076,911.34,51.728
44.164,894.26,105.896
35.136,940.62,58.804
27.816,1006.744,77.348
47.58,1022.36,12.932
78.812,1007.964,90.28
120.292,999.18,109.556
112.484,1030.9,85.4
51.484,1076.772,45.384
63.196,1135.82,4.148
95.16,1169.736,5.612
117.12,1138.016,13.908
83.692,1086.776,85.888
52.704,1008.208,122.0
53.436,978.928,89.304
99.064,1039.684,17.812
200.324,1093.608,-52.948
132.492,1048.224,-9.516
43.188,972.828,112.728
44.652,942.084,106.14
60.512,958.188,29.036
-15.616,961.604,17.812
-10.004,922.564,60.268
50.02,909.632,60.512
-21.472,890.844,98.332
-104.92,884.256,152.988
-73.688,867.908,92.232
-71.492,883.28,84.18
-26.108,926.712,34.648
16.348,987.712,-14.396
-53.68,1027.24,-12.2
-170.068,1017.724,92.964
-176.168,951.6,162.992
-1.708,949.648,148.84
120.78,983.564,74.664
-7.076,987.224,54.168
-110.044,971.608,48.312
-124.196,953.552,49.532
-90.036,915.488,65.148
-56.608,890.112,88.084
-61.488,896.212,100.284
-74.42,931.104,80.52
-81.252,948.916,91.012
-68.564,938.424,113.948
-26.108,940.864,129.32
-31.476,916.708,137.372
29.036,945.256,118.096
-8.784,993.08,26.596
-71.248,1024.312,61.244
-85.644,1036.756,8.784
-92.476,1033.828,99.552
-56.12,1010.648,102.236
35.624,1020.164,69.052
72.468,1038.464,10.98
-21.228,1029.68,74.176
-0.976,1009.672,37.332
25.864,987.712,31.964
-26.352,935.74,6.344
-121.512,881.816,53.924
-185.44,877.18,30.256
-166.164,904.996,34.404
-122.976,935.008,28.304
-29.524,960.384,41.724
-45.384,955.992,114.436
-45.384,947.452,183.732
67.832,987.224,187.636
146.888,1050.908,127.612
102.48,1114.592,71.004
71.492,1139.968,17.08
-25.132,1117.276,40.992
-70.272,1084.092,75.884
-21.228,1073.844,90.036
47.58,1072.38,77.348
32.696,1120.204,66.124
-46.848,1232.688,66.612
-97.112,1305.156,20.74
-87.108,1280.024,53.68
31.964,1242.692,94.428
21.472,1228.54,168.36
-35.868,1282.22,165.432
-145.668,1350.296,137.372
-166.652,1469.124,113.46
-154.94,1518.412,169.824
-96.868,1535.004,246.196
12.2,1531.344,191.54
101.26,1450.58,187.88
19.032,1327.848,220.576
-193.492,1174.128,335.744
-182.512,1172.908,352.336
-36.6,1112.396,314.272
199.836,1021.384,234.972
305.244,905.484,153.232
192.272,622.2,126.148
6.1,420.412,284.504
-32.94,345.992,340.38
-52.704,348.188,221.308
-69.296,477.752,54.9
92.476,535.092,-123.708
77.836,497.272,-109.068
-18.788,416.264,36.356
-113.704,380.64,169.58
-148.84,477.264,230.336
1.22,635.376,68.564
103.7,774.212,-58.804
51.972,781.044,-55.388
-146.4,767.38,95.16
-297.68,749.812,233.02
-300.852,786.412,203.496
-210.328,903.288,61.244
-55.144,1047.492,-13.908
44.408,1092.632,-55.632
-78.08,1001.132,79.544
-283.772,945.744,295.728
-322.568,982.832,272.06
-310.368,1020.652,184.22
-244.244,1082.14,101.016
-101.992,1103.368,19.032
-65.88,1077.748,59.048
-76.616,1049.688,86.376
-171.288,979.172,201.3
-188.124,962.336,187.392
-169.824,964.532,149.572
-162.016,991.616,123.708
-171.044,993.568,116.632
-203.984,1005.768,117.12
-209.352,996.496,93.94
-215.452,990.152,104.92
-209.596,988.2,109.312
-240.096,996.496,117.852
-296.46,1016.748,103.456
-323.544,1001.62,80.032
-324.764,923.54,80.764
-352.092,702.964,-66.856
-414.8,332.816,-399.672
-236.68,1009.184,-73.444
-1008.696,1663.348,89.792
-30.256,374.052,117.608
963.068,-292.068,675.392
2076.196,729.316,-850.584
1734.84,1064.816,-557.784
745.42,782.02,-145.912
327.692,492.636,101.016
528.748,324.276,213.5
933.788,239.12,213.5
983.564,276.452,173.728
864.98,423.828,45.628
779.336,520.696,6.832
787.632,512.888,75.884
894.016,438.224,123.708
904.752,376.492,145.668
831.308,384.3,182.512
869.616,472.628,124.196
949.892,518.5,117.364
1083.36,392.108,256.444
1095.316,308.416,449.692
1067.5,319.396,588.284
1016.748,325.496,726.388
970.144,350.384,777.14
980.392,262.056,850.096
1137.284,198.86,916.952
1232.688,256.932,874.74
1194.136,308.172,799.1
1143.628,320.616,626.592
1089.216,350.14,659.288
1115.08,329.156,806.908
984.54,91.744,825.696
763.232,-38.064,648.064
792.268,49.776,407.48
965.02,77.104,229.604
979.416,9.516,-15.616
726.144,-158.356,-80.276
528.748,-124.44,-146.644
597.312,-53.924,-335.256
691.496,-55.632,-582.184
703.696,-119.316,-719.556
501.664,-299.388,-704.184
203.984,-398.452,-702.72
281.088,-380.152,-1019.188
598.532,-186.172,-1297.348
650.26,-149.572,-1255.136
617.564,-142.008,-1373.72
529.724,-38.796,-1470.1
578.036,67.1,-1458.388
674.904,133.712,-1419.592
704.672,103.7,-1369.084
774.456,72.712,-1361.764
838.872,77.104,-1362.984
823.012,55.876,-1319.796
828.38,-72.224,-1260.016
975.512,-155.184,-1182.18
1161.44,-193.004,-1132.648
1167.784,-223.016,-1103.612
997.716,-286.944,-964.044
869.616,-313.784,-766.648
924.76,-262.788,-646.112
1108.248,-261.08,-650.016
1198.528,-412.604,-568.276
960.384,-538.508,-394.06
748.592,-547.292,-83.204
818.62,-475.8,168.604
938.424,-502.396,377.468
932.08,-616.344,603.656
780.8,-640.744,809.104
755.424,-438.956,1056.276
970.388,-409.432,1087.508
934.764,-500.2,1159.244
791.292,-518.5,1297.592
782.264,-381.616,1413.98
1007.964,-308.904,1405.44
1285.636,-362.096,1285.636
1243.912,-461.404,1356.396
1195.844,-541.192,1449.116
1225.856,-494.344,1368.352
1299.3,-432.856,1281.976
1415.444,-491.172,1167.296
1419.104,-600.24,1063.596
1317.112,-626.836,970.876
1411.54,-643.428,851.072
1594.54,-669.536,645.868
1530.124,-729.56,572.912
1460.584,-781.532,471.408
1308.572,-773.968,319.396
1391.044,-704.916,134.2
1517.436,-628.544,-35.868
1505.236,-596.092,-145.912
1429.596,-566.08,-206.668
1168.516,-439.444,-167.872
1336.632,-427.244,-758.108
1131.672,-228.628,-628.3
990.152,-248.636,-571.936
869.616,-296.46,-433.832
920.856,-325.74,-387.228
966.728,-344.528,-431.392
980.392,-252.784,-425.048
977.952,-51.972,-466.528
940.62,53.192,-422.852
822.524,32.452,-328.912
718.58,72.224,-204.228
927.688,88.084,-107.116
1229.516,63.44,-214.476
1177.544,123.22,-283.284
894.016,127.856,-125.172
730.048,193.248,-20.984
709.308,283.04,-14.396
819.352,361.12,-44.652
1108.004,445.3,-118.34
1263.92,381.86,-96.868
1399.34,271.084,288.896
1555.256,389.668,422.852
1532.076,761.768,55.388
1622.6,544.608,104.188
1044.076,61.0,123.22
35.38,307.928,69.784
-539.972,1062.376,-497.516
-204.96,1534.028,-304.024
-8.052,1220.244,-227.164
-149.572,924.76,-37.332
-199.104,902.556,-96.136
-206.424,940.132,-229.848
8.54,1068.72,-360.876
-13.42,942.328,-362.34
-228.14,772.016,-217.892
-185.196,851.804,-287.92
-90.524,941.352,-337.94
-67.1,945.744,-335.988
-118.34,847.168,-256.688
-290.36,832.284,-174.216
-171.044,949.892,-209.596
18.3,1069.696,-281.088
121.024,1140.456,-324.032
-22.936,1068.232,-326.228
-218.136,925.736,-214.232
-176.656,977.22,-226.676
-57.584,1098.244,-250.588
12.444,1148.264,-320.128
-96.136,1075.552,-240.584
-125.416,995.032,-95.648
-14.884,1024.556,-133.224
8.052,1128.012,-149.084
-39.772,1151.436,-123.464
53.436,1052.128,-147.62
172.508,971.852,-109.312
255.956,957.944,-85.888
177.632,868.64,155.672
103.456,876.692,262.3
178.364,789.584,276.452
100.284,751.52,373.076
46.848,803.248,445.3
106.872,874.984,423.828
167.872,990.884,378.932
138.104,879.864,447.984
78.324,699.792,733.708
59.536,646.112,714.92
161.284,729.072,582.916
166.896,785.68,482.876
-81.984,774.456,433.1
-40.016,850.096,437.492
70.516,958.432,477.996
120.536,937.448,438.956
158.112,965.02,330.864
154.452,1027.728,250.588
177.876,1074.82,168.848
44.408,1066.28,202.764
6.832,1037.0,286.7
114.924,1040.172,197.64
238.388,1078.724,94.916
253.516,1079.456,86.62
173.484,1057.984,57.34
50.508,1050.176,107.848
21.716,976.976,131.76
125.66,947.208,47.092
135.176,954.04,6.1
91.012,1011.868,-4.392
68.076,1025.044,-0.488
64.66,1004.548,46.604
111.264,983.076,66.124
146.156,980.636,67.344
146.156,993.08,63.44
50.264,970.632,111.02
18.3,974.78,102.724
98.088,1049.444,45.14
154.452,1065.792,-16.836
153.964,1067.256,14.396
91.988,1037.244,53.192
21.96,1023.824,82.716
16.836,1022.36,87.84
96.38,1054.08,40.504
101.992,1097.512,-16.104
59.536,1132.404,-57.828
35.868,1155.096,6.832
10.492,1151.68,28.06
9.028,1214.632,47.092
-9.272,1256.356,83.692
-79.544,1299.788,137.372
64.416,1464.244,95.404
184.22,1574.776,19.764
98.576,1646.024,77.104
53.924,1538.42,224.968
191.784,1449.848,312.076
222.284,1392.264,181.292
165.432,1348.832,-36.6
42.212,1341.024,-92.232
126.636,1288.564,-38.308
141.032,1103.856,43.676
139.324,999.424,64.66
51.24,904.752,8.784
-195.444,674.416,92.232
-282.308,543.388,274.988
-24.156,579.012,315.004
101.992,585.6,94.428
-97.844,529.724,11.224
-292.8,457.012,26.84
-365.024,357.216,93.452
-285.968,315.736,184.22
-63.684,369.66,100.772
-76.616,465.796,-14.152
-204.472,547.292,-55.388
-304.024,553.88,-41.968
-346.236,604.388,-33.672
-301.584,682.956,17.324
-306.22,735.66,53.192
-398.452,767.624,136.64
-428.22,840.824,81.496
-436.76,901.58,-16.348
-457.256,962.336,-20.984
-617.32,969.412,10.004
-510.204,1081.408,-53.68
-94.428,1218.292,-361.852
71.98,875.716,-389.912
81.984,553.636,-222.528
-108.092,731.268,6.1
-377.224,755.668,837.408
1058.96,18.544,805.688
1803.648,360.632,-776.652
1395.924,1187.792,-844.484
844.728,1471.32,-848.632
703.208,864.98,-371.612
732.0,334.28,230.58
905.484,94.428,458.72
797.148,260.104,344.04
726.388,518.988,142.008
926.224,574.376,-30.5
962.58,436.76,62.22
984.54,198.616,308.172
945.5,154.208,395.036
873.52,323.544,369.904
898.164,486.292,265.716
988.2,533.384,233.02
1040.172,372.832,388.204
1070.184,255.712,540.216
998.204,346.724,656.604
1087.508,506.056,670.268
1220.0,515.816,820.084
1112.396,441.64,963.556
964.044,445.544,1057.74
1050.908,390.888,1039.684
1034.316,340.38,996.252
1057.496,345.016,829.112
951.112,294.996,700.036
800.076,268.156,629.032
751.276,202.032,486.536
866.932,316.224,306.952
827.16,337.94,221.552
671.0,183.732,154.208
547.292,12.688,-107.36
426.268,-100.772,-327.448
570.96,-17.324,-488.0
694.668,44.408,-571.448
541.924,-85.156,-604.144
271.328,-302.56,-774.944
233.996,-286.944,-818.62
352.092,-225.7,-915.488
472.14,-164.212,-1194.136
393.572,-99.552,-1293.2
307.196,-79.056,-1287.344
415.044,-71.004,-1221.464
773.724,-119.072,-1240.496
832.04,-86.132,-1227.564
601.46,60.024,-1204.14
552.172,162.748,-1261.48
751.764,85.888,-1371.036
1062.132,-36.112,-1433.012
1113.86,-160.552,-1269.532
917.196,-99.552,-1126.548
813.984,-7.564,-1141.92
857.172,-24.4,-1139.48
896.212,-133.712,-948.428
1022.36,-327.448,-803.736
982.832,-437.736,-621.224
832.284,-269.864,-413.58
818.62,-215.452,-381.128
984.784,-374.54,-196.664
967.948,-607.072,11.224
807.396,-659.776,269.864
625.372,-374.296,453.108
698.084,-135.664,586.332
988.932,-341.112,805.444
1016.016,-550.464,1030.168
754.204,-525.576,1173.884
922.076,-336.964,1241.96
1113.86,-272.792,1287.832
1170.956,-318.176,1348.832
1336.144,-454.572,1389.092
1330.532,-425.292,1356.396
1149.24,-418.704,1373.476
1102.636,-372.832,1360.788
1217.316,-439.2,1196.82
1362.496,-469.456,1019.188
1537.932,-454.816,767.868
1533.052,-475.068,689.056
1545.984,-554.124,702.476
1590.636,-732.488,669.048
1412.516,-792.756,660.508
1270.264,-707.112,563.152
1536.224,-646.844,254.98
1704.34,-605.608,-21.472
1461.804,-628.3,-9.76
1307.352,-738.1,-276.452
1114.104,-538.752,-230.824
1189.5,-517.28,-465.064
1064.328,-394.548,-582.672
886.94,-265.472,-590.968
858.88,-364.292,-645.38
1193.892,-416.508,-677.832
1417.152,-353.068,-765.672
1196.088,-209.352,-726.144
952.332,-162.748,-540.216
871.324,-263.52,-422.364
959.896,-242.048,-318.42
1312.72,-149.084,-398.452
1404.708,-33.184,-470.432
1077.016,-39.04,-188.612
1038.952,-210.328,209.352
1413.98,56.364,-44.652
1272.948,469.456,-539.24
505.08,612.684,-204.96
-136.396,861.564,-48.068
433.588,1061.4,53.68
527.772,950.624,-481.656
48.556,623.176,-278.892
-337.696,696.864,-287.92
-200.324,941.352,-599.264
-454.816,996.252,-483.608
-293.532,1019.188,-235.216
-160.796,676.856,-281.576
-354.288,485.56,-74.664
-489.464,602.924,-105.164
-528.016,795.196,-88.328
-410.896,1023.824,-220.576
-208.376,1140.456,-320.616
-92.72,1032.364,-260.348
-70.272,917.196,-127.612
-177.388,926.956,-73.444
-165.432,1056.032,-244.0
-143.716,1150.46,-366.732
-128.832,1160.952,-378.932
-60.512,1121.912,-405.528
-12.444,1032.12,-354.288
-88.328,904.02,-276.94
-8.296,905.484,-295.24
27.084,974.048,-361.608
-68.076,1023.824,-334.28
19.764,1046.76,-371.124
57.584,1007.72,-330.132
-17.812,941.596,-286.7
-72.956,936.716,-317.2
-112.484,957.456,-359.656
-98.332,971.12,-404.064
46.604,1075.308,-322.812
115.168,1098.0,-287.432
50.02,996.496,-184.22
66.368,871.568,-57.828
143.228,887.184,59.78
123.708,852.048,71.98
96.868,941.352,113.46
-36.356,965.508,189.832
16.104,1028.46,172.752
227.896,1024.312,54.412
250.1,892.796,203.74
262.056,897.432,545.828
160.552,924.272,637.328
75.396,987.956,640.012
81.984,1006.5,548.512
171.288,963.556,478.24
171.288,955.992,477.02
92.476,949.648,540.948
27.816,885.72,575.596
-4.392,908.168,498.98
-43.188,986.736,338.916
50.508,1059.448,193.004
48.312,1037.0,164.212
82.228,956.968,216.184
26.596,870.836,403.576
98.332,950.868,283.284
210.328,1062.62,74.42
44.164,1045.052,91.988
80.276,944.036,68.076
91.5,938.424,73.688
12.444,880.84,113.216
-9.272,931.348,96.624
77.348,979.66,-22.692
85.156,1017.48,-24.156
53.924,973.072,-65.636
50.508,981.612,-15.128
5.612,968.924,49.776
72.712,991.128,58.072
80.276,1072.38,57.584
42.456,1161.684,10.736
56.608,1217.072,-4.148
102.236,1207.068,56.608
156.16,1165.588,112.484
76.86,1172.664,135.664
-1.952,1253.184,90.036
-73.688,1279.048,88.572
-70.516,1291.248,93.452
24.888,1354.444,14.64
-29.524,1377.624,-12.444
32.452,1514.508,-58.072
-8.784,1515.484,-61.244
-204.472,1388.36,127.612
-212.524,1288.808,231.8
103.944,1312.476,199.836
103.212,1275.632,171.044
-108.336,1288.564,224.724
-167.384,1273.192,241.56
-246.684,1209.752,355.996
-293.776,1197.796,363.56
-20.984,1127.524,179.584
177.632,877.18,-59.536
-77.836,796.172,80.764
-329.644,624.64,212.28
-358.436,530.456,363.072
-15.616,502.396,190.32
259.616,533.872,-100.284
203.008,388.936,-243.512
76.86,283.04,7.564
-79.056,275.72,277.916
-153.476,316.712,371.124
-74.664,376.736,170.8
-91.256,557.052,42.7
3.66,655.872,-13.664
50.752,756.888,-63.684
-75.884,760.548,-28.304
-208.132,811.544,76.616
-322.324,886.208,157.136
-287.432,844.484,136.64
-293.532,682.468,86.62
-428.708,610.0,-194.712
-203.74,1271.728,-439.932
239.364,863.272,55.876
774.456,-35.624,805.444
1758.02,809.104,-405.284
2093.52,894.016,-874.252
605.852,1116.544,-253.516
45.628,992.592,13.176
517.524,656.604,169.58
1001.376,378.932,309.88
915.976,423.828,311.832
685.64,593.896,209.108
701.256,703.452,129.076
757.376,703.452,120.292
883.768,589.504,214.476
929.396,449.692,411.872
786.9,466.528,534.604
717.848,643.672,575.596
736.148,732.732,611.22
936.472,530.7,819.352
1021.14,341.6,932.812
846.192,415.044,966.728
802.516,514.596,853.268
888.404,499.224,704.916
999.18,489.708,504.836
1017.236,541.68,385.764
842.044,500.688,470.188
821.792,476.776,402.356
778.116,416.264,380.152
791.78,414.8,384.056
826.428,386.984,356.972
826.672,353.8,284.016
772.26,281.576,230.336
688.812,252.784,162.504
601.704,128.1,142.008
636.596,43.92,4.88
631.472,-2.928,-138.836
605.12,39.284,-320.372
358.436,-127.856,-367.708
284.26,-261.812,-586.088
623.176,-315.004,-844.24
779.58,-265.716,-1039.44
695.156,-107.36,-1163.636
488.0,-89.06,-1211.704
449.936,-54.412,-1247.816
729.072,-47.824,-1323.944
918.416,-25.62,-1264.164
774.456,96.136,-1300.276
740.052,173.24,-1455.46
773.724,148.108,-1450.824
791.292,74.908,-1214.632
941.596,-57.828,-1002.352
1009.428,-119.316,-973.804
915.976,-102.968,-994.056
721.02,3.66,-916.464
856.928,-66.612,-823.012
1146.8,-244.244,-757.376
1127.768,-480.192,-630.496
888.404,-543.388,-282.552
697.596,-278.648,-37.332
821.548,-275.72,-38.796
1036.024,-492.148,26.108
1182.18,-725.656,225.456
1097.512,-624.152,557.784
945.012,-371.124,838.14
670.756,-416.508,1010.16
913.536,-639.28,1220.0
1638.216,-912.804,1331.996
1599.664,-824.964,1475.468
1179.252,-591.944,1777.54
1180.716,-480.192,1767.536
1533.784,-614.148,1582.34
1735.328,-638.304,1493.768
1633.58,-607.072,1252.452
1466.684,-515.572,1072.868
1610.156,-561.932,899.872
1700.192,-580.72,720.532
1626.016,-546.804,630.984
1613.572,-471.164,560.712
1661.64,-549.0,521.428
1611.376,-763.964,466.04
1448.384,-820.816,423.096
1231.956,-796.416,254.004
1207.312,-650.016,-2.196
1406.172,-491.416,-373.076
1461.56,-510.692,-612.44
1161.684,-584.624,-603.168
816.668,-521.916,-441.152
750.788,-373.076,-511.18
1022.848,-98.82,-925.98
986.98,25.132,-1010.404
890.356,-167.384,-833.504
721.264,-228.384,-498.004
733.952,-219.356,-411.384
972.828,-176.412,-558.76
1176.568,-152.256,-586.332
1130.94,-130.54,-481.412
858.392,-16.104,-267.424
800.808,69.784,-276.208
784.948,214.476,-276.208
805.688,219.6,-203.74
952.332,221.796,-140.788
1084.58,126.636,-71.004
1147.044,73.688,134.2
1374.452,113.948,276.94
1766.072,166.408,233.264
1935.896,122.488,178.852
1561.6,376.004,188.124
1169.98,564.616,-71.248
489.22,702.964,-186.66
-135.176,980.148,-145.18
-294.996,789.828,-74.908
-280.356,826.428,-84.912
-371.612,603.412,-126.88
-495.808,481.412,-261.812
-682.224,699.304,-358.68
-677.344,744.688,-384.3
-576.328,709.552,-295.972
-357.46,658.556,-241.316
-351.604,671.244,-212.28
-383.324,799.1,-236.436
-370.636,875.228,-355.508
-358.192,898.652,-363.56
-240.34,862.784,-292.8
-161.284,859.612,-299.632
-115.412,907.924,-373.32
-196.176,962.336,-472.384
-235.216,980.392,-517.036
-190.808,998.204,-571.204
-132.248,941.352,-565.836
-90.524,907.436,-568.032
85.644,925.98,-638.304
121.268,867.176,-655.384
-18.544,858.636,-576.328
-58.804,844.728,-523.868
44.164,835.456,-517.524
57.096,811.3,-520.94
76.616,928.664,-564.86
-40.26,1120.692,-565.348
-47.824,1067.988,-471.164
103.212,826.428,-224.236
137.372,701.744,-61.0
43.188,868.64,15.616
63.44,1051.396,-39.772
173.728,1115.568,-183.732
63.196,1051.884,-27.328
154.94,1004.304,74.664
318.908,1073.356,150.792
322.812,1122.4,220.088
386.008,1033.584,316.712
440.908,1023.58,515.572
590.48,1034.072,587.308
610.976,1012.844,608.536
388.692,952.82,713.944
228.872,932.08,711.504
197.884,944.768,551.928
158.112,970.144,439.932
106.628,968.68,413.58
96.38,932.812,392.596
149.572,895.968,318.176
170.068,981.368,247.66
136.884,1090.436,157.38
189.1,1111.176,76.616
122.244,1105.808,72.712
107.848,1077.748,83.692
104.676,1046.76,127.368
162.016,1054.324,113.704
174.704,1093.12,89.304
155.916,1145.58,25.376
155.672,1156.316,-49.532
168.848,1159.732,-94.672
-3.416,1106.784,42.456
72.712,1073.112,10.98
44.652,1122.4,-36.356
-11.224,1187.06,-124.684
-72.712,1271.972,-116.876
-38.064,1322.48,-120.292
-49.776,1315.648,10.98
-101.992,1358.104,76.128
-149.084,1444.48,64.904
-127.368,1425.936,18.544
35.136,1350.052,83.204
81.008,1239.276,111.264
-5.612,1181.204,108.092
12.2,1059.692,66.612
137.86,817.4,4.636
123.952,593.408,120.536
292.556,522.16,149.572
182.024,575.84,125.416
-186.904,616.588,233.508
-260.348,611.952,162.992
81.008,581.208,0.488
311.344,581.452,-53.192
205.936,524.844,-6.344
-67.832,553.392,145.424
-288.652,606.34,244.244
-246.44,671.244,162.992
-31.476,770.796,64.904
98.82,839.848,-4.392
72.468,841.068,-10.492
-31.72,827.892,103.944
-194.712,887.184,189.344
-274.012,961.848,211.06
-235.216,988.2,134.932
-96.136,929.152,48.068
136.152,847.656,-22.204
82.96,865.956,-87.84
-9.516,741.76,-185.928
-598.532,1691.408,-45.628
152.988,1292.224,-41.724
760.548,91.744,156.16
1072.38,56.852,707.112
1343.22,430.416,168.604
1336.876,825.94,-367.22
888.892,977.22,-293.532
677.588,706.868,-143.472
819.108,266.448,210.572
1018.456,163.968,346.48
905.484,249.856,400.892
734.928,526.796,205.204
695.644,640.988,89.06
864.736,529.48,137.86
917.684,381.128,255.224
922.564,339.16,303.048
823.012,447.252,351.848
703.452,529.48,386.74
782.02,493.124,447.984
932.08,361.12,547.292
1077.748,221.308,679.54
1064.084,243.268,788.608
1016.016,358.924,752.008
958.92,408.456,707.844
975.756,346.236,703.452
996.496,299.876,658.556
1098.488,395.524,591.212
1138.992,533.14,416.264
1037.732,555.344,363.804
1032.12,410.408,418.216
966.24,233.752,470.188
778.36,168.116,329.888
743.712,261.324,117.364
861.076,350.872,-69.784
884.256,255.224,-159.088
737.612,4.392,-157.624
474.824,-274.988,-106.14
311.1,-355.752,-231.8
384.788,-319.884,-436.028
575.108,-297.924,-698.572
774.7,-466.528,-946.232
630.008,-437.736,-1053.104
485.804,-406.016,-923.052
587.308,-393.084,-925.248
884.744,-283.04,-1235.616
1003.816,-123.952,-1505.724
994.056,-7.076,-1578.436
912.316,56.608,-1548.668
943.304,61.732,-1446.188
923.052,18.788,-1263.188
913.78,-2.928,-1138.748
831.064,-79.788,-1111.176
738.832,-93.452,-1016.26
902.556,-133.224,-1058.472
1067.5,-172.996,-1044.32
953.552,-269.376,-822.768
822.28,-393.816,-617.564
820.328,-468.236,-424.072
832.284,-431.392,-234.24
935.984,-390.4,-115.412
1072.624,-525.82,-54.9
1132.16,-776.652,114.192
1039.196,-752.74,234.728
868.396,-477.02,426.756
955.748,-499.956,511.424
1228.784,-712.48,754.204
1281.732,-860.344,1044.32
1161.928,-683.932,1250.744
1323.7,-486.292,1246.352
1284.172,-625.128,1373.476
1173.884,-759.084,1632.116
1230.98,-650.504,1600.152
1584.78,-563.152,1345.172
1730.448,-501.176,1104.344
1537.2,-481.9,1067.744
1405.684,-472.384,1018.456
1426.912,-494.1,931.104
1356.884,-511.668,851.072
1473.028,-553.88,743.468
1638.704,-608.292,513.376
1562.332,-696.376,452.376
1337.364,-793.732,535.58
1462.048,-808.372,456.036
1792.18,-811.544,148.352
1604.788,-788.852,93.696
1297.836,-867.176,-49.288
1328.092,-630.008,-276.208
1329.312,-488.488,-503.372
1223.66,-341.356,-753.716
1112.396,-210.816,-909.632
865.468,-327.204,-752.74
617.076,-319.884,-580.964
670.756,-241.072,-753.472
503.372,-149.328,-786.656
370.88,19.276,-719.068
491.66,-23.912,-669.048
670.512,-207.4,-575.108
1017.968,-374.296,-646.112
1287.588,-363.804,-846.192
1005.28,-215.452,-749.568
815.204,-234.972,-521.916
685.152,-189.588,-263.764
696.864,-100.04,-219.112
797.636,25.376,-291.824
947.94,21.96,-238.144
1086.776,28.304,-222.772
1015.772,86.62,-187.636
938.424,16.836,-16.592
979.904,-13.664,118.096
1100.684,12.2,134.688
1273.192,28.792,116.876
1525.732,125.416,2.196
1782.42,207.156,-133.468
1841.224,-16.592,-264.252
1916.376,100.04,-118.828
1514.996,178.12,-100.772
935.008,489.952,35.868
513.62,826.916,-48.312
869.128,875.472,-100.528
185.44,35.38,-228.384
-701.5,579.988,172.996
-916.952,727.852,26.84
-825.208,680.76,-200.812
-654.896,631.96,-236.436
-521.428,504.592,-79.3
-569.984,480.924,74.664
-517.28,683.444,-33.916
-437.248,899.872,-271.816
-420.9,908.656,-359.412
-548.268,779.824,-148.352
-582.916,745.908,-21.472
-469.7,768.844,-16.348
-308.66,887.672,-108.092
-178.12,990.396,-261.568
-190.32,1002.84,-252.296
-297.192,942.572,-194.712
-346.724,944.28,-247.416
-279.868,993.812,-265.96
-203.008,1005.036,-260.104
-61.244,1067.256,-332.084
6.588,1069.696,-394.06
-78.324,1003.084,-452.864
-157.624,995.032,-404.552
-183.488,979.66,-305.244
55.876,1114.836,-425.292
125.416,1175.836,-497.028
11.956,1171.444,-475.8
-125.904,1135.82,-344.284
-239.852,1145.58,-144.936
-136.884,1160.952,-145.912
79.788,1190.964,-285.236
207.888,1185.352,-317.2
179.096,1164.368,-288.652
97.6,1153.144,-74.176
60.756,1019.676,47.58
139.812,954.528,148.108
231.312,830.088,270.352
181.536,838.14,387.716
321.348,913.78,396.256
364.048,914.512,421.144
310.856,899.14,525.576
244.244,797.392,574.864
339.648,726.144,717.848
336.232,682.224,794.464
215.696,797.88,792.512
154.94,889.624,636.352
168.36,871.812,525.82
144.448,843.264,495.808
133.712,833.748,457.988
160.552,843.264,472.628
161.04,872.056,492.148
140.3,892.552,390.888
90.768,879.376,351.604
99.796,916.708,281.82
216.916,1015.772,116.388
334.036,1006.744,-107.604
320.616,1004.792,-165.188
270.352,1099.708,-112.728
132.98,1129.72,51.972
101.26,1138.992,72.712
169.092,1295.152,-3.66
339.16,1408.368,-65.636
423.584,1444.724,-202.032
448.716,1465.952,-288.164
474.58,1411.296,-233.508
543.876,1328.092,-136.884
560.956,1196.576,0.244
596.58,1008.94,163.236
430.172,944.524,190.808
426.756,1003.572,47.58
421.876,910.608,-86.132
410.652,752.984,76.616
494.832,563.152,246.684
572.18,399.672,412.604
475.312,434.32,171.532
570.228,447.984,-406.992
690.276,638.792,-283.528
734.684,517.036,-87.596
512.644,276.208,206.912
350.14,264.984,337.452
422.364,300.608,276.94
643.672,404.552,68.32
851.316,447.984,-78.08
1003.328,364.536,41.724
818.132,329.4,196.908
606.584,398.94,293.044
574.62,494.1,275.72
755.424,630.252,179.096
997.716,757.132,11.224
951.112,720.532,-25.864
800.32,650.992,127.612
724.68,639.036,280.112
758.84,660.508,398.94
674.66,627.812,489.22
515.572,606.828,696.376
501.176,730.048,837.652
584.38,550.952,976.976
687.348,478.972,1089.948
719.068,520.696,901.092
813.74,686.372,662.46
993.812,676.124,544.852
1327.848,271.328,785.192
1163.636,77.592,925.736
895.236,81.252,862.54
869.86,146.888,780.556
867.42,130.784,774.456
794.708,-55.632,705.404
785.68,-184.952,588.772
813.74,-155.916,385.52
826.184,-84.18,201.788
807.884,-66.124,130.54
852.78,-102.236,34.892
700.524,-168.36,-23.424
637.816,-276.696,-180.56
756.888,-253.028,-306.952
975.024,-201.788,-689.056
692.716,-124.928,-514.84
552.904,-334.28,-553.392
551.684,-530.7,-671.244
747.86,-360.632,-974.292
776.164,-208.864,-1084.336
724.68,-183.488,-1116.788
534.848,-169.58,-977.464
516.06,-232.532,-965.02
762.256,-255.956,-995.764
1058.472,-189.588,-1167.296
952.82,-84.18,-1298.568
757.132,-137.128,-1121.668
966.24,-212.768,-1019.676
1320.284,-262.056,-1074.576
1289.296,-234.24,-1075.064
1084.092,-137.86,-1083.116
949.404,-184.464,-973.804
1138.016,-284.992,-941.84
1146.556,-394.792,-791.536
1066.524,-377.712,-639.28
1158.024,-322.812,-530.212
1144.116,-408.456,-432.612
980.392,-609.756,-173.24
851.804,-772.26,90.28
749.324,-623.908,289.14
847.656,-583.16,411.872
891.332,-634.156,515.572
677.588,-692.228,748.104
664.412,-687.348,1028.948
719.068,-598.776,1282.22
841.556,-508.74,1390.312
814.716,-541.924,1559.404
797.636,-573.888,1642.852
986.736,-569.74,1718.248
1109.712,-628.056,1803.648
1198.284,-633.18,1737.768
1264.652,-606.096,1562.332
1360.056,-489.464,1364.936
1493.036,-429.44,1215.12
1619.672,-472.872,992.104
1656.272,-732.732,746.884
1323.7,-721.752,861.564
1307.84,-697.352,801.54
1582.34,-594.628,526.308
1520.852,-554.856,355.996
1270.996,-666.852,217.404
926.468,-606.828,218.38
1164.124,-608.78,49.044
1290.516,-518.988,-229.36
1143.384,-426.268,-391.376
1008.208,-409.432,-436.272
906.704,-407.968,-461.648
886.696,-356.728,-468.236
993.812,-265.228,-513.376
932.568,-174.704,-557.784
721.508,-250.588,-509.96
637.328,-245.708,-454.816
824.476,-260.104,-495.32
1244.888,-246.44,-625.616
1284.904,-277.916,-546.56
985.516,-237.412,-316.224
788.12,-34.16,-244.0
806.176,162.504,-281.576
818.62,211.304,-240.828
849.608,118.096,-99.796
944.28,187.392,86.62
1120.692,249.368,-54.656
1166.564,250.344,35.868
1153.388,174.216,113.948
1226.344,66.612,105.408
1365.424,-77.836,232.044
1426.18,-10.98,258.152
1656.272,163.236,90.28
2053.992,106.384,-144.448
1991.04,-28.792,158.6
1802.428,98.82,284.504
1421.788,635.62,129.32
1377.136,807.64,213.744
1452.044,417.972,-74.42
1139.236,-249.368,-156.648
-557.784,-7.564,442.616
-1312.476,251.564,266.448
-909.388,567.788,-208.376
-944.768,586.088,-37.82
-890.112,526.552,-24.644
-604.632,485.316,-134.688
-348.676,453.596,-114.192
-397.232,619.516,-79.3
-430.66,772.504,-91.5
-524.844,749.812,-91.988
-614.88,801.052,-119.804
-551.196,881.328,-126.636
-330.62,1007.72,-226.188
-216.916,986.248,-263.276
-184.464,869.86,-279.868
-244.976,827.16,-134.932
-244.0,864.736,-168.848
-236.436,863.76,-258.884
-326.716,850.584,-285.236
-305.976,884.744,-350.628
-200.812,889.38,-393.816
-184.952,730.536,-276.696
-34.892,607.804,-104.92
93.696,598.776,-56.852
20.74,637.816,-4.636
63.928,660.508,-10.248
128.1,733.464,22.936
178.12,762.988,67.588
218.868,787.876,123.952
210.816,713.944,235.46
286.7,682.224,283.772
365.268,674.904,262.3
271.328,642.452,277.916
252.296,625.86,324.52
328.668,641.232,301.828
407.724,695.888,263.032
386.252,698.084,189.344
249.368,663.436,294.996
299.144,637.572,341.112
414.312,719.556,305.976
433.588,764.208,234.484
280.6,895.724,264.496
274.012,1033.34,265.228
508.008,1169.248,137.86
512.644,1160.708,113.46
376.98,1003.572,274.5
427.976,942.328,331.84
478.484,974.048,273.28
423.828,1016.504,149.816
366.732,1051.64,81.252
419.192,987.956,72.468
465.796,974.292,164.7
449.204,992.836,183.244
464.576,1084.58,123.464
570.228,1221.22,38.796
592.676,1193.648,76.128
528.748,1105.32,204.228
690.52,1139.968,120.78
762.988,1073.6,50.996
662.948,1000.644,222.772
612.928,1034.072,246.684
716.628,1098.244,182.756
884.5,1084.58,125.904
991.86,1056.032,36.6
788.12,961.116,77.836
640.5,995.52,60.512
498.492,985.272,41.968
304.268,929.152,185.196
328.668,927.932,257.664
500.688,920.612,236.436
445.544,919.88,209.352
440.908,940.62,185.928
430.172,915.732,288.652
380.884,798.124,460.184
620.004,810.08,489.708
740.54,890.6,245.464
559.98,1065.304,141.764
428.22,1155.828,66.856
228.384,1100.196,244.244
305.244,1025.776,459.94
653.92,1057.984,389.912
714.432,1094.34,336.72
522.404,1072.136,347.944
424.072,1115.08,288.896
261.08,1087.996,242.536
242.78,1028.46,254.492
316.468,807.884,352.824
331.84,785.68,617.564
284.26,899.14,548.268
255.956,1036.268,335.5
276.94,1279.536,217.16
279.136,1242.204,103.7
141.52,1035.536,291.092
90.768,864.736,438.712
129.32,774.456,408.456
230.58,742.004,273.524
184.708,815.692,150.792
46.848,813.74,116.876
75.396,905.972,60.512
137.616,833.748,94.672
137.372,771.284,182.756
122.976,719.312,42.7
32.94,952.332,193.248
6.1,912.56,181.78
12.444,829.112,84.18
125.172,872.056,64.66
111.508,817.156,176.412
73.2,716.872,171.288
-3.904,796.416,182.024
-11.224,899.628,79.544
3.416,848.632,39.528
-53.924,856.684,89.792
-86.376,879.62,137.86
40.26,922.32,89.548
105.652,911.34,49.532
-32.696,862.784,88.328
-124.928,900.116,145.912
-20.496,987.468,117.608
-5.124,997.228,108.824
-50.752,1030.412,127.368
40.016,1049.688,254.492
233.508,1190.232,328.912
349.408,1220.976,317.2
282.064,1238.056,263.276
145.912,1268.8,212.28
95.16,1248.304,157.624
81.496,1208.776,176.168
122.732,1129.964,188.124
186.904,1023.824,230.092
195.932,947.696,288.164
