acc_x[mg],acc_y[mg],acc_z[mg]
-23.912,997.96,-19.764
-21.228,990.396,-11.956
-20.496,988.444,-14.64
-16.836,991.86,-17.324
-18.056,994.544,-12.932
-16.592,987.468,-14.152
-23.912,978.928,-12.444
-13.664,983.564,-12.688
-11.712,996.008,-22.204
-17.08,992.592,-28.304
-17.568,989.908,-23.912
-25.62,975.756,-10.736
-15.616,973.072,-10.492
-9.76,984.54,-12.444
-7.808,993.568,-9.516
-12.932,993.08,-1.22
-16.836,996.008,-12.688
-20.252,1003.328,-11.224
-20.252,997.96,-18.056
-28.548,988.2,-18.056
-32.452,988.932,-22.936
-27.328,996.984,-23.668
-25.62,1004.792,-22.936
-21.472,1011.136,-15.86
-19.52,996.984,-3.172
-20.74,978.684,-0.488
-24.4,984.784,-3.416
-16.836,987.712,-5.856
-11.712,994.056,-12.688
-17.324,996.984,-17.812
-18.3,990.64,-20.008
-25.132,982.344,-14.884
-24.888,987.712,-15.128
-32.94,982.344,-19.276
-23.424,978.928,-11.468
-31.476,983.564,-14.396
-21.716,1002.108,-14.884
-22.692,1004.792,-13.176
-18.056,997.228,-15.616
-28.792,997.96,-2.196
-26.352,980.392,-20.252
-28.304,981.856,-9.516
-31.964,986.248,-21.96
-29.036,983.564,-17.324
-29.768,983.564,-18.3
-40.26,979.904,-22.936
-41.48,986.004,-26.352
-41.48,979.66,-22.936
-27.572,992.592,-25.62
-32.94,994.544,-23.668
-32.208,986.004,-18.3
-27.084,988.688,-16.348
-35.38,993.324,-19.276
-38.308,990.64,-26.84
-33.428,990.64,-13.42
-33.184,989.664,-17.324
-42.212,979.416,-19.764
-39.04,975.512,-8.052
-40.26,980.148,-15.128
-36.6,984.784,-10.492
-29.768,997.228,-9.516
-26.352,999.668,-12.932
-39.284,988.688,-15.372
-41.48,992.348,-10.248
-48.068,998.936,-27.572
-49.776,994.3,-28.548
-36.844,1002.84,-26.352
-36.6,1000.644,-19.52
-33.672,1009.672,-29.524
-36.844,1002.596,-32.452
-29.28,987.468,-27.816
-30.5,989.176,-25.132
-30.5,983.808,-25.132
-23.912,986.492,-18.056
-22.448,985.028,-18.544
-23.668,984.052,-20.252
-20.252,993.08,-23.668
-20.74,980.636,-26.596
-25.132,974.536,-15.372
-23.18,976.488,-23.912
-23.18,980.148,-21.228
-16.592,996.252,-30.744
-28.304,999.668,-27.816
-28.792,998.692,-26.352
-35.38,991.128,-22.936
-25.62,994.544,-15.128
-27.572,996.984,-16.104
-15.128,995.52,-27.328
-30.256,997.228,-10.736
-30.5,984.54,-13.42
-33.428,990.64,-15.372
-23.668,1004.548,-10.98
-11.468,1011.136,-25.132
-17.08,1006.012,-7.808
-23.912,988.932,-2.44
-30.012,982.344,2.196
-26.352,980.88,-4.148
-16.592,985.76,-3.904
-19.276,984.296,-13.176
-12.932,996.74,-9.516
-14.152,995.764,-2.196
-19.032,985.516,-10.004
-15.86,984.296,-5.612
-5.124,987.956,-5.856
-5.612,990.64,-14.64
-7.808,980.148,-10.492
-15.128,963.312,-13.176
-19.276,959.896,-12.932
-27.328,961.116,-9.76
-28.548,973.804,2.684
-27.816,996.252,-6.588
-26.352,1006.744,-13.908
-10.248,1025.532,-24.4
-10.004,1028.704,-28.06
-9.272,1032.852,-41.236
-22.448,1011.38,-28.06
-24.156,986.248,-21.472
-32.696,968.192,-17.08
-23.668,976.244,-8.784
-19.276,987.468,-7.564
-13.664,1012.112,-10.004
-20.252,1017.968,-19.764
-28.548,1027.972,-24.156
-29.524,1031.388,-24.888
-38.308,1027.24,-23.912
-36.356,1051.64,-25.864
-28.548,1067.256,-33.672
-19.276,1123.376,-30.5
-42.212,1143.14,-39.284
-48.068,1146.068,-32.452
-52.948,1151.192,-30.988
-87.84,1150.216,-46.848
-138.836,1190.476,-57.584
-102.236,1272.948,-72.956
-44.164,1263.432,-71.736
-72.712,1198.772,-32.94
-100.284,1171.688,-32.452
-107.36,1162.416,-63.196
-70.76,1177.544,-79.788
-72.712,1160.464,-70.028
-79.056,1100.928,-37.576
-71.248,1042.368,-24.156
-41.48,1028.216,11.956
9.272,1037.0,29.036
4.392,990.396,35.624
-24.4,950.624,33.672
-61.976,904.508,38.064
-64.172,879.864,36.356
26.108,984.54,21.96
43.432,991.128,-2.44
29.28,1003.084,39.04
-22.204,958.676,45.628
-109.312,891.576,40.504
-95.648,843.752,27.328
-46.36,802.028,35.868
17.08,840.336,64.66
14.884,828.38,128.832
-55.876,779.336,157.136
-54.168,745.664,167.872
3.66,715.896,162.26
117.852,801.784,141.032
101.504,899.628,158.356
29.036,852.292,154.452
2.928,810.812,130.296
-42.7,782.02,136.884
31.72,841.556,147.132
45.628,862.784,173.24
59.536,899.14,173.24
79.544,938.18,158.112
79.056,938.18,146.644
113.948,946.476,138.348
74.664,936.472,130.296
56.12,950.136,151.524
141.764,949.648,183.244
154.452,967.216,220.088
211.792,1034.072,257.176
243.512,1095.56,294.508
187.88,1052.128,304.024
179.584,1042.856,296.216
307.44,969.168,318.908
322.568,968.68,407.724
326.472,973.316,467.992
383.812,981.612,571.692
247.66,953.796,589.016
215.208,784.216,591.7
278.404,716.384,649.772
354.288,666.852,761.036
562.42,610.488,731.024
507.52,613.416,750.3
295.728,513.864,720.288
409.676,406.26,780.8
629.764,289.14,815.936
751.032,316.224,675.636
753.96,316.224,566.08
685.884,364.78,543.144
647.088,365.024,536.068
627.08,319.396,485.56
618.052,216.672,429.196
710.528,239.852,292.8
754.936,289.14,187.88
669.048,295.728,135.42
750.788,295.484,28.792
740.052,305.244,-18.056
806.176,292.068,-80.52
832.528,298.656,-106.14
768.356,301.096,-129.564
816.18,317.444,-180.56
838.628,340.624,-203.008
873.276,316.712,-262.3
876.204,301.828,-282.796
898.896,270.596,-271.816
954.04,282.308,-237.656
1045.052,351.116,-244.732
1032.12,376.492,-293.044
1027.728,361.608,-304.024
1068.476,317.444,-243.512
1115.08,226.432,-225.7
1014.796,189.1,-170.8
1089.948,308.904,-247.416
1099.22,370.392,-279.868
1119.96,384.3,-279.136
1225.124,310.124,-236.68
1136.308,199.348,-161.772
1047.248,169.336,-151.036
1050.664,200.08,-111.508
1118.984,202.276,-74.664
1113.616,183.732,-12.2
1075.308,120.048,21.96
991.616,113.216,25.132
970.876,122.0,71.98
1007.964,158.356,86.376
1056.764,172.508,101.748
1011.624,113.948,166.164
986.248,75.396,185.196
986.736,96.38,239.852
978.928,134.688,289.628
937.692,129.564,302.072
940.864,108.336,288.164
932.812,44.896,324.276
898.408,19.276,339.404
905.24,39.528,368.196
961.604,91.5,384.544
1021.872,112.972,372.1
991.128,79.544,332.328
987.712,65.392,326.228
1056.52,40.26,309.88
1067.256,49.044,332.816
1029.68,64.416,342.82
1023.092,46.848,347.456
1069.452,20.74,366.244
1107.516,11.468,345.016
1061.888,-10.492,326.472
1075.064,-2.684,306.22
1116.788,-18.544,299.144
1133.868,-43.188,279.38
1114.592,-13.664,236.436
1161.928,-2.928,203.74
1155.828,-24.888,212.036
1150.948,-53.436,212.28
1160.22,-56.364,177.144
1117.764,-65.636,134.688
1076.284,-70.028,107.604
1132.648,-46.36,47.824
1201.944,16.592,52.216
1186.816,-4.636,19.276
1023.824,-81.496,-87.352
948.916,24.888,-118.096
987.712,87.108,-143.96
1094.096,153.476,-137.128
1145.824,188.612,-127.124
1053.348,122.976,-143.716
955.26,128.832,-237.412
946.72,213.012,-227.652
1025.044,244.732,-207.644
1014.796,281.088,-159.088
1002.596,250.832,-146.644
942.816,298.656,-137.616
931.104,361.12,-160.064
981.124,435.784,-193.736
1054.568,469.212,-205.692
1105.076,496.54,-216.428
1022.116,665.876,-146.156
895.724,667.584,-144.448
884.744,644.648,-134.688
891.82,619.516,-211.548
864.98,550.952,-195.688
850.096,622.2,-119.316
968.436,735.172,-152.988
942.328,748.592,-120.78
931.348,695.644,-61.0
754.692,801.54,-8.052
618.784,729.316,-5.612
664.168,770.064,-54.168
640.744,858.148,-50.508
523.136,928.176,6.1
525.332,1032.12,78.08
567.544,1032.852,32.452
419.192,1012.356,77.836
311.588,1001.864,10.98
242.292,932.324,2.44
141.52,849.608,-18.788
174.216,888.16,27.084
95.648,850.096,110.044
-7.076,819.596,160.308
-9.76,837.652,119.56
-87.596,819.84,89.304
-15.86,864.736,55.876
21.228,882.304,73.932
-41.236,934.032,146.888
-93.208,922.076,139.812
-127.612,904.508,102.724
-89.304,943.304,80.032
-28.548,958.432,76.86
-26.596,944.524,110.776
-78.08,931.104,121.756
-68.32,942.816,67.1
-32.452,979.904,67.1
-66.124,972.584,71.248
-55.388,977.464,64.416
-79.788,941.352,64.66
-59.048,957.944,79.544
11.468,1005.768,48.8
-47.336,976.976,61.244
-40.992,979.66,14.64
-36.844,996.984,29.768
-67.1,960.14,31.964
-19.276,1005.036,-15.86
-25.62,996.984,18.3
-19.276,996.008,56.12
-28.304,977.708,39.528
-63.928,955.26,30.256
-65.636,969.9,33.184
-56.364,976.0,38.064
-15.86,1027.24,-28.304
-47.58,1000.888,10.004
-53.924,967.948,10.004
-63.44,929.396,23.18
-40.748,954.04,26.352
-32.208,998.448,-12.932
-14.64,1048.224,-11.712
-38.552,1040.416,-10.492
-44.652,1012.112,0.732
-35.624,992.836,13.908
-50.996,967.704,1.708
-50.996,976.488,-3.66
-53.68,981.124,5.368
-42.212,995.032,-9.76
-56.852,991.372,-11.468
-55.632,985.516,-6.832
-50.752,984.784,-7.32
-46.604,981.124,12.688
-40.748,976.732,17.324
-16.104,1003.816,13.42
-37.576,994.544,21.716
-33.428,1005.28,15.372
-46.36,985.516,26.352
-51.972,973.804,16.592
-59.292,965.264,22.936
-23.912,994.3,24.4
-28.792,992.348,25.132
-37.088,999.18,12.688
-58.072,996.252,21.472
-51.24,993.324,20.252
-51.24,985.028,18.056
-54.656,979.66,15.372
-48.068,985.76,22.448
-48.8,990.64,14.884
-43.676,989.908,17.08
-15.86,1025.532,7.808
-56.608,1004.548,14.64
-51.484,1002.84,6.1
-68.076,980.636,14.396
-58.56,992.104,0.732
-50.264,1015.772,3.416
-42.456,1037.732,-11.712
-60.756,1037.732,-12.932
-59.536,1039.44,-7.564
-79.056,1022.36,-2.44
-71.736,1011.38,0.976
-63.44,1007.964,10.004
-40.748,1010.404,2.684
-67.832,994.056,7.808
-61.488,968.68,17.08
-63.44,945.012,38.064
-62.22,936.472,39.528
-52.216,953.308,36.112
-31.232,963.556,18.788
-43.432,948.672,27.328
-56.608,931.836,28.792
-47.58,943.304,28.304
-51.484,962.58,32.94
-37.332,991.128,15.86
-48.312,989.908,24.4
-40.016,998.692,23.424
-54.168,999.424,17.324
-59.048,1000.644,18.056
-61.244,1001.864,21.228
-71.248,986.248,32.696
-71.248,971.12,31.72
-70.028,974.536,35.868
-68.564,983.808,36.844
-55.388,988.688,23.424
-64.66,990.64,23.18
-71.004,981.612,30.744
-64.66,991.616,31.476
-60.024,1015.528,23.912
-54.168,1027.728,16.348
-60.512,1033.584,33.916
-77.836,1027.484,30.988
-83.204,1035.536,33.672
-76.86,1075.552,22.204
-69.784,1117.032,7.808
-82.96,1140.212,-9.272
-116.876,1161.928,-26.596
-186.416,1188.28,-31.476
-140.788,1275.632,-60.756
-53.68,1376.404,-69.54
-72.712,1405.928,-42.7
47.58,1339.56,65.392
52.948,1226.588,166.408
-65.88,1064.328,283.04
-160.552,881.084,369.904
110.044,942.328,319.152
345.016,1027.728,341.6
462.136,1055.544,311.344
361.12,877.912,282.308
385.764,818.132,280.112
445.056,741.028,379.42
457.256,720.532,373.564
589.748,798.124,261.812
660.996,785.924,233.264
622.444,736.636,228.384
451.888,472.384,290.848
433.344,442.128,406.992
841.312,494.832,320.616
958.188,463.6,253.028
519.232,377.956,425.78
458.964,329.4,416.996
645.38,385.276,420.656
773.48,377.956,465.064
785.436,382.104,484.34
748.348,407.48,424.316
652.456,386.984,381.372
657.336,342.088,487.268
778.604,291.336,487.268
840.092,298.9,495.32
776.408,312.32,472.872
779.824,395.28,455.792
795.928,423.584,379.664
779.58,470.676,347.7
800.564,428.708,291.824
759.816,375.76,254.004
845.704,357.704,271.572
783.972,354.044,331.596
779.092,374.784,306.708
806.664,363.56,255.224
783.484,354.288,228.384
790.316,312.076,184.952
793.976,300.12,146.888
820.328,301.34,104.188
831.308,355.02,-30.5
785.436,412.604,-144.936
713.212,409.188,-176.9
795.928,357.46,-216.184
847.168,282.796,-222.04
849.852,311.832,-243.512
838.628,368.928,-350.872
768.6,406.016,-412.116
735.904,412.604,-440.42
776.408,373.32,-444.812
871.568,322.08,-408.456
984.296,305.488,-361.364
987.224,318.42,-343.796
887.916,352.824,-353.312
837.896,344.772,-390.888
979.416,335.256,-381.616
1124.108,303.536,-399.184
1109.468,306.464,-398.208
996.74,336.72,-403.332
965.264,352.824,-380.884
1032.852,339.892,-376.98
1092.144,330.62,-385.032
1116.544,278.404,-346.48
1142.408,258.152,-277.672
1070.428,258.884,-223.504
978.928,223.26,-180.56
998.204,186.172,-130.54
1103.368,123.952,-49.288
1151.924,35.38,2.928
1081.408,22.692,111.264
1064.328,28.304,137.86
1037.244,52.216,147.62
1088.24,92.72,186.416
1054.812,124.928,198.616
984.784,105.652,210.572
895.48,76.372,226.188
857.172,58.316,224.724
921.832,80.032,264.496
980.392,92.232,334.28
986.004,58.56,353.068
981.368,26.84,340.624
1009.916,58.072,332.328
1095.56,96.136,315.004
1145.336,105.164,317.932
1185.352,101.504,282.308
1192.184,71.98,269.132
1158.756,50.752,259.616
1159.0,5.856,268.4
1227.564,40.26,245.952
1189.744,23.424,172.752
1128.012,30.988,95.648
1134.6,64.172,53.924
1163.636,40.748,40.992
1177.544,30.256,-19.52
1159.732,37.576,-80.032
1100.928,28.304,-128.588
1043.1,29.768,-187.148
1061.156,63.928,-235.216
1101.172,51.484,-265.716
1107.516,30.256,-308.416
1100.928,80.276,-354.776
1036.268,135.908,-344.284
978.684,140.3,-336.72
982.588,92.476,-386.008
955.748,20.252,-453.84
939.644,61.732,-415.288
980.392,133.224,-380.396
1056.276,201.544,-400.404
1006.744,213.744,-384.788
988.932,184.952,-399.184
972.34,148.108,-370.636
967.948,113.46,-319.64
989.664,143.96,-309.148
941.108,250.344,-276.94
973.316,315.98,-312.808
965.02,356.728,-285.968
984.296,269.62,-281.332
883.036,377.468,-206.668
889.624,496.54,-215.94
880.108,552.904,-228.872
1033.34,583.404,-317.444
1218.536,655.384,-290.604
978.196,709.064,-193.736
920.612,741.76,-168.36
927.444,822.036,-203.496
776.164,811.056,-79.788
694.912,811.544,-110.532
647.82,755.668,14.64
737.368,774.944,-8.784
684.42,837.896,-23.912
514.108,918.66,-5.856
402.844,991.86,38.064
173.24,906.704,84.18
107.116,997.96,4.88
-14.884,878.156,11.956
21.472,843.508,59.78
127.124,933.3,8.784
27.328,925.736,32.452
-55.144,905.972,51.972
-105.652,850.584,76.86
-111.508,863.76,85.888
-162.504,853.268,97.356
-133.956,868.64,67.344
-126.392,892.064,44.896
-167.14,895.724,-9.272
-188.856,904.996,16.836
-144.448,894.26,51.728
-152.5,881.328,87.352
-89.792,967.216,40.016
-114.68,984.784,9.028
-136.396,961.36,23.424
-153.72,929.396,28.06
-142.74,927.2,49.776
-127.856,957.7,46.604
-97.356,972.34,39.528
-87.596,1021.872,-12.444
-117.852,1006.744,-3.172
-124.928,984.784,20.008
-132.98,989.42,0.244
-157.136,927.444,23.912
-96.136,981.612,4.392
-105.164,980.636,6.832
-129.564,992.592,-5.124
-141.764,992.104,-6.832
-113.46,990.152,-2.196
-118.34,978.44,4.148
-132.248,970.632,-6.588
-126.392,956.968,-5.612
-123.708,975.024,-14.884
-139.812,955.504,-21.228
-152.744,962.824,-27.084
-128.832,985.272,-21.472
-94.428,1002.84,-5.612
-81.496,1021.872,20.008
-110.776,1000.888,-7.076
-132.492,1001.62,-7.076
-118.34,998.936,-5.368
-117.852,1001.376,3.416
-123.952,975.268,-8.54
-116.144,973.316,-14.884
-136.884,965.752,-14.884
-127.368,963.312,-29.768
-137.372,954.04,-16.592
-106.872,964.288,-20.496
-128.1,936.472,-7.808
-124.684,989.176,-50.508
-129.32,996.984,-40.26
-136.64,974.292,-21.228
-148.84,944.28,-8.54
-125.66,941.84,-4.88
-114.924,960.628,-12.444
-120.536,998.692,-16.592
-115.412,1018.944,-38.308
-133.468,1001.864,-15.86
-131.516,972.828,-20.252
-139.08,971.852,5.612
-131.516,983.32,-9.516
-129.32,976.244,-14.64
-133.468,983.808,-17.568
-129.564,988.932,-23.18
-129.564,996.496,-25.62
-135.664,983.564,-10.004
-133.956,975.268,-5.612
-123.22,971.12,-13.42
-130.052,965.264,-12.2
-121.512,982.1,-24.4
-132.004,981.124,-26.352
-124.44,984.54,-18.3
-120.292,973.56,-14.884
-120.292,969.9,-19.52
-124.196,967.704,-10.492
-125.172,981.368,-4.148
-133.468,971.364,-14.884
-117.364,996.252,-22.204
-116.388,987.468,-23.18
-120.292,981.368,-7.32
-137.128,962.092,-16.592
-133.712,956.236,-21.472
-124.196,983.808,-15.86
-135.908,998.448,-28.06
-119.56,1005.524,-46.604
-135.664,1003.328,-23.912
-139.324,983.808,-18.056
-130.784,969.9,-3.172
-133.224,976.488,-9.516
-122.976,1006.256,-30.012
-131.272,1013.332,-32.94
-130.296,1010.404,-30.744
-141.764,1001.132,-19.52
-137.128,1000.156,-28.792
-147.62,1021.628,-17.568
-115.656,1046.516,-28.548
-106.872,1062.132,-16.348
-109.068,1090.436,-14.64
-109.312,1125.084,-30.256
-110.776,1139.724,-53.436
-62.952,1164.856,-60.756
-7.32,1241.716,-46.116
-122.488,1289.296,-29.28
-176.412,1282.22,-23.18
-59.292,1374.94,-71.736
-51.484,1395.68,-70.028
-93.94,1387.14,43.432
-24.4,1318.332,-49.776
86.864,1408.368,-84.18
-13.908,1331.264,-5.124
6.344,1186.328,-60.512
-3.904,968.68,90.768
-26.108,839.604,322.324
594.384,1082.872,5.856
639.036,1025.288,-329.888
257.664,773.236,115.9
94.184,692.96,410.164
160.308,721.752,211.06
620.004,890.6,-53.436
458.72,794.22,5.368
195.932,725.656,55.388
186.904,548.512,183.488
340.136,461.404,220.82
542.9,574.132,85.156
691.496,716.384,-0.732
576.816,624.64,53.68
414.556,560.224,337.94
552.904,409.676,265.96
680.028,439.688,195.2
631.472,500.688,259.616
628.3,571.204,264.496
612.44,513.132,292.068
609.756,449.204,345.748
641.232,446.032,351.604
726.876,467.748,368.684
760.304,499.956,379.176
700.036,528.26,405.04
774.212,544.364,333.548
747.372,506.544,381.616
752.496,532.164,405.284
770.308,533.384,388.204
743.712,514.352,363.072
847.412,565.592,290.604
871.08,586.576,256.932
759.328,521.184,265.96
808.86,528.016,212.28
765.428,541.68,183.244
711.26,553.636,122.244
819.84,527.04,-53.192
876.692,569.008,-98.332
663.436,492.392,18.056
714.432,502.884,-68.32
744.444,431.148,-202.276
661.972,413.824,-176.9
745.176,399.916,-302.316
700.036,376.736,-328.424
612.196,331.596,-370.148
589.748,317.932,-426.268
684.908,375.76,-520.94
700.768,409.188,-580.232
582.428,370.88,-536.068
626.348,351.116,-568.764
617.32,295.24,-544.364
708.332,334.524,-554.124
851.072,371.612,-607.316
864.492,397.72,-630.252
823.256,403.088,-630.252
789.34,339.16,-610.488
823.012,322.324,-574.864
981.856,351.848,-673.684
854.0,328.424,-635.132
859.856,326.228,-681.736
869.372,218.624,-578.28
926.956,231.8,-474.58
982.832,240.096,-498.004
916.708,217.648,-525.82
859.856,199.836,-485.804
979.66,144.448,-413.336
1026.508,110.288,-327.936
999.668,132.492,-338.184
929.152,179.096,-398.208
904.508,200.568,-429.928
1099.22,117.852,-372.832
1134.112,83.448,-267.424
1039.44,50.264,-244.0
986.248,75.396,-278.16
969.168,92.964,-270.596
1057.74,103.456,-296.948
1095.804,7.32,-230.824
1057.252,-53.192,-142.252
1066.768,-69.052,-126.392
1086.044,-43.432,-68.076
1095.56,-4.88,10.492
1026.996,-34.16,-2.196
1059.448,-69.296,27.328
1126.548,-155.916,129.076
1193.404,-146.4,200.568
1123.62,-146.156,193.004
1026.752,-108.336,184.464
1013.82,-96.624,180.316
1013.088,-141.52,217.404
1124.596,-182.024,242.048
1159.976,-197.396,227.896
1058.96,-217.16,199.592
1039.44,-176.412,187.392
1087.508,-130.052,159.088
1017.236,-184.464,172.508
1021.872,-202.764,167.628
1139.236,-197.396,160.308
1155.096,-219.844,150.06
1144.604,-203.74,53.68
1107.272,-183.0,-8.784
1064.328,-197.884,-66.856
1083.848,-201.788,-69.052
1189.012,-210.572,-119.316
1256.356,-211.548,-86.132
1189.256,-268.4,-89.06
1092.876,-257.664,-137.616
1035.048,-232.044,-271.328
978.196,-198.372,-302.56
921.832,-125.904,-276.208
995.764,-89.792,-319.64
975.268,-67.832,-315.736
1007.232,-130.296,-310.612
990.152,-102.236,-425.536
963.068,38.552,-367.708
974.78,147.62,-226.188
958.92,71.492,-112.728
917.684,158.356,-151.28
1177.056,81.984,-174.704
1365.424,256.932,-220.576
1074.82,159.576,-210.328
864.248,479.46,-116.632
786.9,601.704,-15.86
1138.26,493.856,-118.34
927.2,541.192,-64.66
1023.092,641.72,-268.644
851.56,489.708,-62.464
820.816,495.808,32.696
917.684,764.208,-19.52
880.352,884.744,48.312
789.096,776.408,54.168
760.06,766.16,14.396
808.372,760.792,-36.356
685.884,811.544,64.66
618.784,846.192,114.192
512.644,901.58,94.184
463.6,877.668,43.676
483.364,788.12,20.496
651.48,1063.352,-30.988
758.108,1018.456,4.88
352.336,907.436,177.144
310.368,888.16,177.144
347.7,951.356,120.78
312.564,874.252,61.732
283.284,805.2,78.812
264.252,808.128,83.692
256.932,921.1,41.48
226.676,951.6,53.68
161.772,978.928,58.56
166.652,934.032,33.184
202.764,851.072,23.912
174.948,812.764,31.72
97.356,915.0,5.612
104.432,957.944,-70.516
130.784,949.404,8.052
170.068,896.944,86.376
177.632,904.752,-2.44
151.768,976.488,-28.304
79.544,915.976,-7.564
42.944,932.08,20.984
95.648,912.804,-6.588
121.024,945.012,-22.448
126.392,984.784,-74.908
91.012,1008.452,-52.948
64.904,1011.624,-44.896
21.472,1006.012,-53.192
47.092,985.028,-61.732
92.964,964.288,-77.592
58.56,944.768,-51.24
52.948,913.292,-6.1
79.544,972.34,-17.568
56.12,986.248,-109.312
-24.888,981.368,-87.596
28.304,951.844,-133.224
14.396,931.348,-34.404
137.128,1005.28,-51.728
135.176,1047.98,-21.472
14.396,1015.772,-105.896
-41.236,968.68,-76.616
12.688,951.844,-22.448
52.948,952.332,-14.884
141.764,1096.292,-23.912
55.388,1108.248,-96.38
34.892,1016.748,-9.76
-14.64,963.312,-14.396
-28.792,1009.184,-59.78
70.516,987.224,-62.708
23.912,936.228,130.54
-20.984,1012.6,54.412
54.168,1032.608,-45.872
82.228,1012.112,-9.272
49.532,921.588,40.992
32.696,918.66,30.744
28.304,944.524,47.824
70.76,917.44,35.868
133.956,1037.976,42.212
61.244,1008.452,118.584
99.308,990.396,71.248
74.176,962.336,35.624
80.276,986.98,36.844
112.24,1006.256,-5.368
112.728,1013.088,11.468
43.188,989.42,44.896
-4.392,1133.136,52.948
-2.44,1019.188,44.164
97.356,1067.5,-3.416
56.608,1043.1,25.62
20.496,985.76,40.504
44.408,906.704,31.964
9.028,960.628,31.232
40.748,1031.144,-8.052
20.984,987.712,-10.736
-2.928,972.34,-17.568
-2.928,940.132,7.808
-2.684,924.516,-19.032
-5.124,940.132,-49.532
15.128,956.236,-99.064
13.664,972.584,-80.032
34.648,986.492,-62.708
11.224,1016.016,-74.908
-1.464,1029.68,-86.376
6.588,1047.004,-104.676
33.428,1066.768,-98.82
24.156,1051.884,-76.616
24.4,1046.272,-61.244
23.18,1012.112,-57.34
-27.084,949.648,-37.576
-32.208,927.688,-34.892
-55.388,926.224,-40.504
-32.94,968.436,-51.24
-15.128,1027.24,-58.804
-4.636,1052.128,-49.776
-19.764,1038.708,-58.316
-49.776,1047.736,-88.084
-102.48,979.172,-93.452
-45.872,1000.888,-86.132
-6.588,955.016,-72.468
-63.44,953.308,-43.92
-35.136,947.696,-52.704
-34.892,897.92,-18.544
-40.26,894.992,12.444
-4.392,922.076,7.808
-8.296,989.908,-1.22
0.244,1050.908,-38.308
-7.808,1059.448,-19.52
-9.76,1060.912,-10.492
-32.208,1026.264,4.88
-37.576,962.824,8.052
-51.728,924.272,-7.564
-75.396,860.588,-22.936
-40.748,906.948,-3.904
-35.136,972.828,-12.2
1.708,1073.112,-41.724
0.244,1134.112,-46.848
28.792,1159.488,-48.8
-13.908,1054.812,-20.008
-36.6,990.396,-13.42
-51.24,948.916,-18.544
-48.312,957.212,-26.352
-35.38,967.216,-30.256
-37.82,966.972,-25.62
-27.572,986.98,-36.112
-35.38,986.736,-25.864
-19.764,982.588,-14.152
3.416,1016.016,-20.984
-9.76,1043.344,-43.432
-6.344,1047.492,-44.408
21.716,1033.096,-35.868
40.016,1013.576,-7.808
21.228,1012.112,-8.54
1.952,1014.552,-11.224
12.688,1031.388,-28.792
-19.764,973.804,-29.036
8.784,950.868,-21.228
-7.076,965.752,-10.492
7.808,984.052,-27.572
0.244,969.412,-31.964
-6.344,969.656,-37.332
-2.928,952.332,-27.084
30.5,969.9,-17.568
16.836,971.364,-20.008
0.0,964.044,-22.692
2.44,958.432,-28.06
1.708,959.896,-19.276
13.664,971.608,-32.696
5.856,987.224,-28.548
15.128,1004.792,-36.112
-0.244,1016.504,-44.408
-7.564,1016.748,-44.408
-5.856,1029.436,-54.656
-15.86,1044.808,-63.196
-16.592,1024.312,-52.704
-16.836,1032.608,-40.26
-50.996,1018.944,-39.04
5.612,1061.156,-32.452
83.936,1174.616,-38.552
112.24,1270.996,-87.352
40.748,1283.44,-62.952
54.168,1271.484,-90.28
165.92,1383.236,-104.676
259.372,1529.148,-55.144
156.892,1431.792,3.416
359.412,1094.096,-100.04
236.436,923.54,13.176
227.896,972.828,122.732
480.924,1084.092,126.148
567.788,1053.592,-31.232
489.952,983.076,-58.804
605.608,870.592,-192.516
779.824,886.452,-162.992
715.408,660.508,-83.204
820.572,612.928,-10.736
1081.652,824.232,-247.172
714.188,434.808,-225.7
599.02,125.66,324.276
689.3,162.504,412.36
856.684,277.672,352.58
863.76,239.12,271.328
707.6,279.868,121.024
538.02,294.02,190.808
679.296,155.672,303.78
687.348,57.34,371.856
564.616,-7.808,386.008
522.648,107.116,416.264
630.74,134.444,373.076
691.252,110.288,475.068
778.848,95.648,427.0
779.824,104.92,434.808
817.888,134.932,466.528
924.272,85.4,551.44
892.552,3.416,558.516
846.436,53.924,529.968
928.664,83.204,509.96
890.844,125.66,550.22
927.444,147.132,538.02
914.268,108.336,449.204
852.536,57.096,402.844
834.236,16.348,388.204
874.74,-8.54,390.644
795.928,25.132,368.44
799.344,78.324,244.732
765.428,70.028,186.172
749.812,34.648,148.352
881.572,-48.312,14.64
974.292,-54.9,-12.688
960.628,-9.272,-65.392
845.948,25.864,-82.96
776.896,0.976,-81.496
809.836,-64.172,-78.324
927.444,-152.744,-121.268
1006.5,-115.168,-120.292
967.948,-52.46,-147.376
965.996,-4.148,-184.22
945.744,-25.62,-176.9
1072.38,-49.288,-222.528
1123.132,-45.872,-289.872
1119.96,-31.72,-301.096
1184.376,8.052,-299.632
1220.976,-38.308,-219.112
1234.884,-113.948,-221.308
1151.192,-124.684,-259.616
1106.54,-43.188,-289.628
1109.468,-13.664,-349.652
1170.468,-8.784,-360.876
1222.44,-82.228,-323.3
1095.56,-167.384,-261.568
952.82,-129.076,-167.628
947.94,-101.26,-149.572
1020.652,-109.068,-94.184
1099.22,-201.788,14.152
992.104,-303.78,79.788
813.008,-258.64,162.016
811.3,-219.6,190.808
942.328,-181.292,226.676
1030.9,-228.872,267.18
925.736,-254.004,319.884
867.42,-222.772,356.972
872.544,-205.448,404.064
913.78,-213.988,426.024
950.624,-197.884,456.524
1062.132,-278.16,487.024
1153.388,-316.468,500.2
1121.668,-325.008,506.544
1055.788,-323.3,508.74
1109.224,-272.792,457.744
1192.428,-270.84,406.748
1161.44,-298.9,375.272
1117.032,-321.348,308.416
1122.888,-334.524,254.736
1165.832,-299.632,216.184
1238.056,-317.932,200.812
1271.24,-288.408,129.076
1180.472,-305.488,33.428
1090.436,-278.648,-12.932
1082.384,-263.764,-62.22
1121.912,-259.128,-60.268
1124.596,-287.188,-103.212
1120.204,-256.444,-99.552
1073.6,-293.288,-121.756
1052.86,-240.584,-154.696
1053.104,-213.5,-258.884
992.592,-175.924,-290.848
1025.288,-210.572,-273.036
1063.84,-209.596,-286.944
1031.144,-137.128,-296.704
968.924,-119.804,-350.14
924.516,-108.58,-329.4
904.02,-136.396,-300.364
1001.62,-159.576,-292.556
1108.248,-206.424,-323.056
1066.036,-198.616,-327.936
977.464,-141.764,-331.596
985.272,-83.936,-345.504
961.36,-111.996,-295.484
961.116,-117.608,-234.484
1067.5,-124.928,-260.836
1121.18,-50.752,-285.236
1036.512,-53.68,-269.864
950.136,-56.12,-209.352
1023.336,-3.172,-250.1
1069.696,85.4,-229.604
1039.928,52.948,-183.976
1035.536,-14.64,-139.08
1004.792,117.12,-141.276
917.196,232.288,-210.084
879.376,295.728,-102.968
1015.772,244.976,-128.1
994.788,369.416,-100.772
863.76,472.384,-60.024
980.636,564.372,-139.568
1014.796,617.076,-237.656
940.376,550.952,-203.008
729.804,565.104,-37.82
623.176,628.544,-121.024
730.78,701.5,-211.548
959.652,828.38,-265.96
655.872,866.688,-77.836
491.66,801.052,10.492
547.78,998.692,-175.68
508.252,1006.256,-174.948
459.696,1062.62,-83.936
392.84,945.012,-82.228
223.26,844.728,-13.664
278.404,905.484,-93.452
273.524,959.652,-44.896
64.66,964.044,54.9
99.064,969.656,21.716
102.236,977.952,34.892
123.22,996.74,-19.032
55.876,922.808,-72.712
5.368,974.536,17.812
126.88,1042.124,-58.56
59.292,1026.264,27.084
50.264,983.076,36.6
-6.832,937.448,33.672
-49.288,902.8,46.848
-20.496,915.976,38.552
-17.08,928.664,83.692
18.544,947.696,73.2
17.812,985.516,12.932
-19.276,956.724,51.728
-5.612,948.184,46.116
-9.272,955.016,1.464
7.564,1029.436,-40.748
-55.876,971.608,9.272
0.976,992.348,12.2
-32.452,955.016,19.276
-5.612,989.908,-2.44
-27.084,1008.696,-10.736
-15.372,981.368,21.472
13.908,1006.5,-16.348
-40.26,933.056,-18.3
-13.176,963.556,26.84
40.992,992.836,5.124
-40.748,978.928,-2.684
-19.032,1000.156,-5.856
-20.252,988.444,-5.368
12.688,998.204,-33.672
-28.548,947.94,3.172
-24.156,969.9,11.224
10.248,952.088,-53.68
-35.38,955.748,14.152
-10.736,962.336,-0.732
-22.204,947.208,4.636
5.856,967.216,6.1
13.664,985.272,-19.52
-30.256,978.684,-14.396
-12.688,1009.428,-20.496
-36.6,978.44,-4.148
-36.356,975.268,-15.372
-7.076,1009.184,-41.724
-35.136,979.172,-28.548
-21.228,990.152,-12.2
-39.528,976.488,-10.248
-30.012,1005.036,-21.472
-30.5,1020.896,-27.816
-33.672,1014.064,-30.5
-40.748,996.984,-26.84
-34.16,980.636,-21.472
-24.4,1000.4,-20.252
-20.008,1026.264,-34.892
-26.108,1031.876,-31.232
-24.644,1026.264,-16.104
-28.792,981.612,-34.16
-25.864,983.076,-36.6
-26.108,1008.94,-47.58
-46.604,1022.848,-55.876
-44.652,1007.476,-45.628
-29.28,998.936,-39.284
-36.356,977.708,-42.456
-31.232,971.364,-45.628
-42.7,990.152,-32.208
-55.388,1002.352,-47.58
-50.508,1009.184,-41.968
-41.48,1010.404,-34.892
-47.336,985.516,-29.036
-40.992,959.164,-27.816
-48.312,981.368,-25.376
-59.536,1006.012,-27.572
-46.36,1031.144,-37.332
-55.144,1024.312,-36.356
-60.024,983.808,-22.448
-59.536,968.436,-22.204
-61.0,989.664,-26.596
-47.092,1015.772,-39.772
-52.216,1045.296,-50.508
-71.98,1035.292,-49.288
-79.544,1050.664,-38.308
-86.132,1087.752,-56.12
-100.772,1161.196,-67.588
-100.284,1225.124,-77.104
-51.484,1251.964,-60.024
-50.508,1234.64,-41.968
-91.5,1182.18,-62.464
-51.24,1199.992,-132.736
-135.664,1311.256,-124.684
-149.328,1373.476,0.488
-22.448,1356.396,-3.66
92.964,1304.424,11.224
88.816,1308.084,80.276
13.42,1242.204,196.908
62.708,1161.928,161.528
101.504,1097.756,193.004
261.812,1011.136,198.128
412.604,937.692,186.416
379.176,874.984,214.476
429.928,955.748,206.18
402.6,907.68,229.848
290.36,782.996,303.536
216.916,686.86,300.364
280.112,625.86,339.892
338.916,621.956,302.072
353.8,616.344,253.516
386.496,620.248,314.028
217.16,464.088,416.02
217.648,446.764,486.78
527.772,504.592,489.952
417.484,447.252,593.408
419.192,390.4,593.408
474.336,348.188,698.328
636.84,327.936,684.176
498.98,212.524,743.712
545.584,124.928,702.476
715.408,124.684,518.5
766.892,186.416,565.104
622.932,198.616,655.872
593.164,200.324,655.628
509.716,149.572,722.484
674.416,153.964,641.232
774.7,152.256,591.456
813.008,122.976,584.868
836.92,117.608,545.828
845.46,138.836,464.332
840.336,165.92,423.828
773.968,226.92,351.36
808.128,243.024,312.808
827.404,228.384,247.172
854.0,140.788,162.992
768.844,129.808,183.732
721.996,166.408,78.08
776.652,223.748,-95.16
824.964,178.12,-183.732
856.928,210.572,-180.316
942.084,198.128,-273.768
876.936,218.136,-305.732
807.64,261.812,-382.348
823.988,338.916,-476.532
908.656,366.976,-477.508
1037.488,263.764,-501.908
1079.456,227.652,-508.252
1028.46,293.288,-492.88
836.92,311.832,-393.328
1016.992,285.724,-385.52
1115.568,177.388,-335.744
1063.352,143.96,-351.116
909.388,152.012,-393.572
826.672,202.764,-388.448
1144.116,152.744,-294.264
1244.888,6.588,-131.028
1113.616,-80.764,-119.316
898.408,-21.96,-37.332
845.216,71.248,-91.988
963.556,136.396,-55.144
1138.016,55.632,96.624
1100.196,-90.524,177.388
915.488,-158.356,229.848
864.492,-103.7,146.888
984.052,0.976,133.468
1115.324,-37.576,317.444
1204.872,-139.08,418.46
1040.904,-297.68,479.948
869.86,-304.512,529.236
979.904,-229.604,581.696
1167.052,-244.732,680.028
1121.668,-276.696,676.612
1109.224,-306.708,612.928
1086.532,-336.476,594.628
1234.884,-276.452,545.828
1371.524,-177.388,470.676
1328.58,-152.744,381.616
1195.112,-145.424,291.336
1150.948,-116.876,206.18
1186.084,-94.428,154.208
1175.104,-161.04,158.844
1206.092,-170.312,136.884
1207.312,-120.292,58.316
1125.572,-108.58,-63.928
1024.8,-74.908,-113.704
1002.352,-50.996,-183.244
942.572,-134.932,-244.732
965.996,-129.564,-383.812
1077.504,-80.764,-440.42
1094.584,-12.444,-413.58
1075.796,116.876,-430.904
1000.4,122.0,-479.948
773.724,41.968,-450.424
774.212,-19.276,-460.916
949.16,-8.052,-463.6
1173.152,115.412,-449.448
1192.428,264.74,-404.064
1070.916,290.604,-424.072
922.32,213.988,-415.532
913.536,152.744,-389.18
953.064,130.052,-354.776
995.032,221.064,-312.564
1025.532,325.984,-319.396
1012.844,418.948,-364.292
887.672,386.984,-282.552
833.26,352.336,-242.536
942.572,395.036,-309.636
1059.936,525.332,-275.232
1089.948,657.824,-300.852
884.012,553.148,-105.896
795.196,632.936,-2.684
975.756,711.016,-151.036
1125.816,778.604,-86.132
950.136,779.336,15.616
823.744,691.74,4.392
771.528,599.996,-42.7
791.292,796.66,-125.904
721.508,757.132,-80.764
545.828,648.308,78.812
527.772,652.456,59.048
642.696,799.1,-65.636
624.396,847.168,8.296
647.332,861.564,57.828
573.644,825.696,40.016
427.488,830.332,81.008
411.872,948.428,28.548
333.792,874.496,90.768
257.664,874.252,77.592
352.824,914.024,61.976
440.42,956.968,-6.832
354.288,952.82,94.672
284.992,951.112,94.672
242.048,890.112,93.208
168.36,917.684,90.036
164.212,997.716,94.428
141.764,947.696,111.508
131.272,893.284,141.032
166.164,900.116,97.844
141.276,988.444,114.436
77.104,1000.156,104.676
60.024,963.068,73.932
72.712,887.916,112.728
41.48,864.004,111.752
91.744,932.324,28.304
34.404,945.256,1.22
-2.928,979.416,-17.568
25.132,962.336,-10.004
52.948,965.264,14.884
44.164,976.976,-40.748
22.692,989.664,-17.568
25.132,981.124,-44.408
67.832,973.072,-37.576
62.464,958.432,-24.644
36.844,961.36,-8.052
46.116,1000.644,-19.764
32.208,977.22,-39.04
51.484,1006.256,-49.532
69.296,1016.504,-34.648
72.712,1014.064,-28.304
61.488,973.072,-50.996
68.32,1010.404,-18.788
47.336,993.08,-18.544
46.848,976.488,-20.74
69.052,974.048,-16.592
63.44,969.168,-21.96
51.972,953.796,-38.064
46.604,955.992,-32.94
47.58,991.128,-20.984
44.652,1023.092,-34.892
45.14,1023.092,-51.484
43.676,1005.524,-59.048
57.584,983.564,-40.748
57.096,980.148,-27.328
62.952,982.344,-37.332
45.628,993.568,-39.528
44.408,1031.388,-40.26
35.136,1026.02,-47.336
50.02,993.08,-45.628
51.484,959.896,-38.308
50.508,959.652,-40.016
43.92,980.88,-45.628
35.136,997.716,-29.768
44.896,993.568,-27.328
43.676,986.98,-27.084
49.776,1004.548,-30.256
36.356,1011.38,-48.556
23.424,1033.584,-52.704
25.864,990.64,-45.14
35.624,978.196,-28.304
31.72,968.924,-39.04
37.088,988.932,-46.848
27.572,1006.012,-45.872
26.352,992.104,-33.184
39.528,976.976,-27.084
38.796,976.488,-36.356
29.28,996.008,-42.456
24.4,997.228,-42.456
24.4,994.788,-50.752
32.94,975.512,-35.868
44.164,975.512,-49.044
30.256,989.176,-50.264
28.792,1007.232,-45.384
21.472,1015.528,-49.288
18.788,996.496,-49.044
26.108,992.836,-50.264
21.96,987.224,-51.728
29.768,1023.092,-50.996
28.06,1036.268,-46.36
22.936,1047.004,-47.336
8.784,1049.2,-44.164
3.904,1074.332,-41.48
23.912,1126.792,-47.58
43.188,1185.596,-77.348
31.72,1194.624,-83.692
-35.624,1229.028,-64.172
-3.172,1223.172,-97.6
136.64,1290.272,-137.616
228.628,1424.96,-100.772
26.352,1335.9,-147.376
-1.708,1188.28,-145.424
131.516,1253.672,-74.664
185.196,1359.568,12.2
220.332,1366.644,103.944
271.816,1327.116,111.02
287.188,1243.424,109.8
351.848,1063.108,107.116
360.144,912.072,102.48
204.716,889.38,163.968
391.864,924.028,28.792
411.14,907.436,-116.388
210.084,715.652,20.008
194.712,665.632,251.564
209.352,619.76,392.352
234.484,495.076,327.204
347.212,397.232,293.288
422.608,462.624,325.008
564.616,486.536,335.012
549.244,477.02,658.312
577.304,388.936,759.328
605.364,307.44,666.608
571.692,269.864,572.424
816.424,323.3,432.612
944.036,314.272,318.908
756.156,300.12,423.096
662.704,253.028,631.472
681.492,202.276,740.784
729.072,167.872,646.112
903.776,239.364,523.868
881.572,291.336,539.972
742.98,290.36,477.264
724.924,247.66,410.652
849.12,216.184,328.18
877.424,269.62,268.644
826.672,296.704,192.76
668.56,246.684,156.892
706.624,200.568,10.004
822.768,189.344,-101.504
764.452,146.4,-48.312
789.828,199.348,-217.892
775.676,261.568,-316.712
678.076,268.888,-306.464
777.384,273.524,-404.064
964.288,225.456,-538.752
814.472,244.488,-555.588
772.26,327.204,-648.552
759.816,372.832,-644.16
899.384,363.56,-594.384
1059.692,231.8,-494.832
1044.076,252.54,-481.412
975.024,267.912,-545.584
1003.816,328.912,-568.52
1029.436,356.728,-535.336
1060.18,326.96,-529.48
1053.348,266.448,-512.4
995.764,229.604,-488.0
950.38,256.932,-458.964
1076.04,255.956,-413.092
1152.412,171.288,-266.448
1047.004,99.552,-191.784
882.548,42.944,-128.832
802.516,81.984,-163.724
711.992,105.164,-170.556
852.78,84.912,-126.392
1077.016,-22.448,72.956
976.244,-135.42,179.096
790.804,-54.9,174.46
694.424,47.58,171.776
756.888,90.524,185.684
1167.784,60.268,335.5
1214.876,-50.508,477.02
1061.644,-137.128,450.424
1006.012,-65.392,403.576
1056.764,12.688,326.716
1243.668,17.812,355.508
1352.736,-27.328,439.688
1360.3,-44.408,288.652
1221.708,-26.596,276.208
1223.66,56.364,231.312
1316.624,70.76,230.092
1325.164,20.008,244.244
1293.688,20.008,226.92
1254.648,-40.748,185.684
1238.788,-90.28,182.512
1302.96,-77.104,149.816
1289.784,-61.976,71.736
1188.036,-72.956,6.1
1105.564,-122.244,-86.376
1098.0,-122.244,-104.432
1138.26,-123.22,-95.404
1158.512,-154.94,-122.0
1108.004,-140.788,-180.316
1018.944,-138.104,-217.892
980.148,-155.428,-251.564
1052.86,-138.592,-220.576
1090.924,-162.992,-215.696
1077.748,-135.664,-279.38
1039.196,-134.688,-386.984
952.576,-95.648,-431.148
941.352,-55.388,-467.016
953.552,6.344,-444.568
947.452,-21.96,-439.444
904.752,-52.46,-467.016
863.76,-39.772,-458.232
843.752,-47.336,-427.0
877.912,-40.016,-446.276
933.3,33.428,-386.008
980.148,2.44,-364.292
939.644,-15.616,-396.012
915.976,14.396,-355.752
912.316,87.108,-326.96
961.604,220.82,-307.928
980.392,230.336,-292.068
1009.672,167.14,-273.28
1019.188,226.432,-255.712
1057.984,305.732,-339.404
995.52,236.192,-318.664
741.516,335.988,-110.288
985.516,418.704,-78.812
1239.276,410.408,-308.416
1069.208,730.536,-312.808
844.484,872.056,30.012
787.388,730.536,-80.52
905.728,648.796,-375.028
703.696,722.24,-125.172
790.804,659.776,-80.52
735.904,723.46,-166.652
682.224,771.04,-141.52
786.168,785.436,-132.736
740.54,816.912,-0.488
656.36,800.808,82.716
601.216,873.764,53.924
523.868,877.18,-72.224
426.268,881.816,-4.636
498.98,881.816,61.488
519.232,938.18,46.604
404.796,1040.172,-4.148
345.748,986.004,40.992
357.46,922.808,140.056
349.408,823.744,120.292
459.696,949.404,-109.312
221.552,927.2,31.476
230.58,939.156,135.42
179.828,898.652,135.176
189.344,924.272,143.228
192.272,1001.864,66.368
127.124,971.852,71.492
67.832,980.392,-28.548
76.616,980.88,-5.612
132.004,991.372,41.48
117.852,1001.132,74.42
92.964,959.896,86.132
112.484,918.172,57.828
58.316,948.916,80.276
117.852,944.768,30.744
107.604,925.98,53.436
19.52,969.9,174.216
97.6,927.688,54.412
54.656,895.48,76.616
95.16,871.568,101.748
89.304,880.84,61.488
70.028,947.696,32.208
78.568,1053.592,37.576
58.316,1091.168,30.256
51.728,1008.208,19.764
108.336,941.84,39.772
94.184,924.028,30.256
46.116,972.828,6.832
38.796,998.448,35.624
64.172,1009.916,47.824
110.532,988.2,56.608
94.184,979.904,45.384
25.132,1001.62,29.036
10.98,1015.772,10.248
43.432,1025.044,26.108
60.024,1000.4,35.868
56.852,974.78,27.084
61.976,980.148,16.592
16.104,994.3,13.908
37.088,1006.012,25.864
65.392,976.732,38.796
60.512,946.476,26.108
68.32,939.888,24.888
46.36,983.564,22.692
39.284,1007.232,17.568
45.628,1003.816,32.452
52.216,988.932,30.012
80.276,977.952,43.432
60.512,984.54,30.256
43.676,992.348,27.328
25.376,986.492,9.76
23.912,968.192,7.564
45.628,968.68,12.932
49.288,980.148,24.888
35.868,1008.94,6.832
22.692,988.932,5.612
30.256,986.492,20.252
43.432,990.396,19.52
36.356,972.828,17.568
44.896,978.684,18.056
38.552,994.544,26.352
46.604,1010.404,28.548
55.632,1015.04,36.844
49.044,995.032,11.712
30.988,990.884,18.788
17.324,976.0,1.22
37.088,966.728,2.684
20.74,981.856,-10.736
40.26,1033.584,19.276
39.772,1033.34,12.444
49.776,993.08,23.912
42.456,957.212,8.052
29.524,980.636,20.74
36.356,995.52,9.516
48.8,994.544,30.988
61.488,985.028,24.644
48.556,975.756,27.816
45.14,1003.572,8.784
25.864,1026.02,-3.66
29.28,1036.756,6.344
42.456,1014.552,-0.488
61.732,1002.352,10.736
50.02,978.196,19.276
46.116,1002.596,36.112
41.724,1059.448,11.712
45.384,1059.692,20.74
167.628,949.404,10.492
185.928,979.172,59.292
35.624,1029.68,84.18
110.044,1083.604,71.98
214.72,1232.2,57.584
42.212,1145.092,2.44
20.008,1045.784,-34.16
175.68,928.42,-22.692
187.392,1065.304,19.764
270.596,1302.228,99.308
308.416,1297.836,124.928
245.952,1179.74,129.32
191.052,1093.852,121.024
241.804,912.316,10.736
377.956,840.092,160.796
514.108,973.316,172.264
595.604,1218.78,77.592
447.008,1157.78,100.772
425.78,972.34,40.26
630.252,881.816,159.576
685.396,973.072,166.408
706.624,866.688,37.088
872.056,889.136,92.964
815.692,656.848,20.74
774.7,653.188,29.524
826.916,799.832,148.84
1027.24,801.052,180.56
599.752,449.692,-51.484
240.828,90.28,60.024
656.36,176.656,10.98
895.968,199.104,151.28
901.824,206.912,184.708
758.352,341.844,49.044
632.936,227.408,-2.196
777.384,160.796,-9.272
967.704,138.104,41.236
1004.548,132.736,121.024
985.272,209.596,71.98
811.788,212.036,8.784
783.972,242.536,14.884
963.556,336.232,-6.1
923.052,297.436,55.388
973.316,271.816,106.384
1012.356,261.08,128.1
968.68,260.104,168.116
946.964,275.232,160.064
946.72,276.452,210.816
1017.236,264.984,248.636
992.592,258.396,238.876
991.128,229.36,222.528
1004.792,186.172,226.676
953.064,206.668,187.392
910.608,256.688,162.016
860.832,244.0,127.856
876.692,185.44,91.988
898.652,91.744,58.56
863.76,116.632,50.508
833.504,121.024,-25.864
820.572,237.9,-125.172
784.46,285.236,-197.396
806.42,222.528,-202.52
847.412,148.108,-177.144
770.064,74.176,-194.712
745.176,52.46,-233.02
828.136,123.952,-308.66
799.832,196.42,-338.428
786.168,203.984,-270.84
846.68,92.232,-220.332
877.424,-42.7,-164.944
920.856,-125.172,-221.308
1053.104,-49.044,-307.928
1161.44,14.152,-302.316
1115.812,-53.436,-228.14
1032.608,-179.096,-225.7
1073.356,-199.348,-280.112
1159.0,-207.4,-299.876
1205.604,-223.26,-286.944
1143.14,-221.064,-261.324
1118.74,-186.904,-288.896
1191.696,-126.636,-363.804
1246.596,-39.04,-412.116
1197.796,-25.376,-425.78
1075.552,-63.684,-422.608
1043.588,-54.412,-391.864
1092.632,-38.064,-353.556
1114.836,-87.352,-288.164
1070.916,-173.728,-248.148
949.892,-214.72,-219.112
985.028,-122.732,-231.068
990.884,-94.428,-209.84
929.152,-142.74,-180.072
846.436,-280.112,-100.528
812.032,-344.528,5.612
842.044,-209.352,80.032
962.092,-202.032,167.628
1026.02,-244.0,253.516
981.124,-337.696,308.66
870.592,-380.396,360.144
851.316,-302.804,366.488
848.876,-242.536,407.968
967.948,-264.984,446.276
1112.152,-314.272,491.416
1181.692,-367.22,468.236
1142.896,-300.12,440.42
1136.552,-226.188,379.664
1107.028,-260.104,381.128
1185.596,-277.916,367.952
1294.664,-316.224,317.688
1282.464,-369.904,291.336
1252.452,-355.508,206.18
1191.452,-322.324,159.088
1118.496,-357.216,63.928
1137.04,-332.816,24.888
1185.108,-310.124,-12.932
1169.004,-356.484,-13.664
1152.656,-376.492,-61.976
1098.732,-358.436,-110.044
949.892,-404.064,-142.984
886.452,-403.82,-168.848
902.312,-343.796,-178.852
973.56,-290.36,-214.232
1058.228,-245.708,-239.12
1046.516,-284.504,-315.736
926.224,-321.836,-323.788
841.312,-306.22,-353.312
885.476,-250.588,-392.596
954.528,-268.888,-405.04
1002.352,-282.552,-392.596
1022.116,-175.924,-329.644
1052.616,-115.9,-343.064
1048.956,-40.748,-375.028
1011.136,-76.86,-362.828
974.048,-199.836,-336.72
996.496,-281.332,-319.884
990.64,-191.784,-259.86
937.936,9.516,-204.716
873.52,16.104,-207.644
1014.796,67.588,-312.808
1149.484,213.256,-222.528
1275.144,372.588,-192.272
1207.312,468.968,-227.896
879.864,358.924,-239.364
1041.636,212.28,-253.028
1259.284,165.188,6.832
1034.072,430.904,-138.104
780.556,588.528,6.1
656.848,518.012,133.224
920.856,809.348,-58.316
942.084,768.6,-69.54
911.34,471.896,-103.944
548.024,388.692,9.516
438.468,611.464,-58.072
622.688,901.092,12.932
993.568,1079.7,-92.232
585.844,1187.548,-44.164
373.564,962.58,43.188
472.628,1040.416,-15.128
461.404,1085.556,10.492
264.008,1066.524,66.612
228.628,1043.588,82.228
192.76,999.912,108.58
218.868,953.552,58.804
383.568,759.328,-62.22
136.152,757.132,26.108
47.092,833.748,50.508
53.68,834.236,39.528
215.208,934.764,-40.992
196.176,943.304,-70.272
65.148,980.88,2.928
34.404,961.116,-32.208
150.06,913.536,-83.204
97.112,917.44,-59.292
66.368,915.0,-40.992
126.636,909.876,-21.96
97.356,964.776,-28.06
99.552,947.208,-83.936
69.296,923.784,-15.128
150.792,990.152,-42.456
114.192,961.116,6.588
188.368,1068.476,0.732
116.388,1036.268,-69.784
65.636,985.76,-27.328
119.804,997.472,-38.796
94.184,927.932,-36.844
89.792,969.656,-50.752
90.524,986.004,-50.02
69.784,980.88,-84.424
67.344,970.388,-50.752
119.804,996.496,-42.7
68.808,956.48,-48.312
88.084,991.128,-48.312
80.764,1040.66,-97.112
16.836,999.668,-92.476
49.532,989.908,-71.98
61.732,940.62,-61.488
85.4,996.74,-60.024
59.78,986.004,-60.512
79.3,993.324,-41.48
72.712,999.668,-105.164
46.116,971.852,-50.02
53.436,976.976,-53.192
32.94,951.356,-67.588
60.756,966.484,-49.044
74.42,993.812,-57.34
24.156,958.188,-96.136
65.88,1000.156,-42.7
70.516,1018.7,-30.012
66.612,986.98,-32.452
52.216,973.072,-46.116
53.192,977.22,-40.26
31.964,956.48,-59.048
53.436,994.788,-59.048
38.064,968.436,-49.044
49.044,968.192,-46.116
71.004,980.88,-77.104
30.012,980.88,-36.112
41.724,1006.744,-44.896
43.676,988.2,-34.16
48.8,1005.768,-61.732
33.184,1007.964,-65.148
29.036,999.668,-63.44
38.308,989.42,-70.516
36.356,998.692,-67.832
26.84,987.712,-55.388
38.064,997.96,-53.192
24.156,970.144,-62.22
39.772,974.048,-72.712
19.52,977.708,-67.588
28.304,986.248,-63.196
47.336,1017.724,-70.76
18.3,990.396,-62.464
25.62,978.196,-61.976
43.676,990.884,-54.656
19.52,972.584,-47.092
20.252,976.488,-51.972
18.3,960.872,-59.292
34.892,987.712,-96.136
21.472,997.472,-70.028
22.204,1018.7,-75.64
31.232,1017.48,-58.56
33.672,1001.132,-65.148
20.74,980.88,-61.976
27.084,970.388,-59.536
16.348,974.536,-64.904
16.592,981.612,-84.424
20.252,978.196,-83.692
22.204,998.936,-77.836
22.448,996.252,-70.272
33.184,998.204,-65.88
26.108,977.708,-68.564
27.328,988.2,-75.152
22.448,981.124,-71.736
33.916,1004.548,-79.788
18.3,985.272,-63.684
22.448,969.656,-62.708
33.916,990.64,-86.864
13.664,975.024,-64.66
14.884,971.364,-71.004
20.496,974.048,-64.66
26.596,977.464,-70.028
38.064,1027.972,-67.344
32.208,1026.264,-81.984
30.744,1028.46,-71.492
19.52,1011.868,-81.496
12.932,996.252,-58.804
10.004,984.784,-65.392
19.032,995.032,-64.416
12.2,999.912,-68.32
16.836,1009.428,-64.172
14.396,1005.28,-55.144
6.832,997.716,-66.856
18.788,1018.456,-70.272
26.596,1035.048,-71.98
10.248,1041.636,-68.564
2.196,1036.756,-71.248
15.128,1048.468,-67.588
-55.876,1050.908,-58.072
-82.472,1131.916,-90.036
29.036,1158.268,-104.92
45.872,1177.788,-83.448
159.576,1265.14,-196.176
-213.5,1147.288,-165.432
-121.024,1096.048,-84.18
-50.508,1135.82,110.532
-18.788,1228.296,22.936
-26.108,1167.784,77.592
-27.328,1118.008,17.812
-39.528,1124.84,10.248
-54.9,1073.6,-14.152
170.556,1174.616,115.9
238.632,1299.788,88.816
228.384,1207.312,-57.34
228.872,1048.468,-104.432
25.62,933.544,149.816
139.812,872.3,80.764
322.812,927.2,30.988
457.988,976.976,32.452
313.052,841.312,37.332
367.22,850.584,56.364
594.872,826.428,200.568
456.768,830.576,120.536
455.06,767.624,86.376
576.328,760.792,236.68
573.4,665.388,283.284
834.968,819.84,214.72
979.416,830.82,89.06
561.2,496.54,144.448
385.764,270.352,415.044
460.428,250.832,659.288
751.764,294.02,384.056
996.74,454.816,87.108
821.792,314.272,364.536
761.28,236.436,758.84
726.876,240.828,762.5
749.568,267.912,548.268
922.808,311.344,410.408
927.688,369.66,357.216
638.792,199.836,529.236
698.572,165.676,590.724
779.092,135.176,496.052
865.712,88.572,376.98
980.148,122.976,167.628
864.004,138.836,4.392
738.588,280.844,-95.892
724.68,389.668,-176.168
569.252,342.088,-114.436
697.596,296.216,-200.812
797.392,231.556,-210.816
740.784,144.692,-171.532
686.86,190.32,-290.604
725.412,304.756,-440.176
670.024,291.58,-516.304
777.14,338.184,-596.336
855.22,374.052,-677.344
736.148,329.888,-677.1
654.164,343.308,-673.44
667.584,346.48,-693.448
685.152,315.248,-675.392
804.468,300.364,-676.612
912.56,282.552,-616.832
923.296,287.432,-642.696
880.84,298.168,-699.06
820.084,347.456,-716.628
741.272,397.232,-745.42
927.688,402.112,-748.348
1130.94,329.4,-653.92
1097.512,242.78,-623.176
851.316,214.232,-594.14
734.44,219.6,-504.104
770.552,215.94,-477.264
915.976,135.176,-393.572
1086.288,-21.472,-302.316
983.32,-70.516,-165.188
840.824,-70.028,-86.864
817.644,-39.284,40.26
1004.06,-46.36,181.048
1078.724,-101.26,290.604
1056.276,-141.52,297.68
1011.136,-109.068,306.464
1019.676,-81.008,321.836
1208.532,-41.968,402.112
1307.596,-54.412,424.072
1270.264,-100.04,376.492
1191.452,-83.448,293.532
1174.372,-39.772,260.592
1328.092,20.252,198.86
1437.16,67.832,140.056
1418.372,39.528,21.96
1276.364,-11.956,2.684
1261.968,5.612,-40.26
1274.656,23.668,-100.284
1307.352,58.316,-191.54
1265.872,48.312,-193.004
1195.356,-51.728,-276.208
1193.892,-67.832,-360.876
1169.004,-26.84,-366.976
1169.248,48.068,-439.688
1138.26,73.688,-541.192
1005.036,23.668,-596.58
915.488,-12.2,-630.74
895.724,-40.504,-655.628
864.492,-20.984,-564.86
895.724,10.736,-530.944
916.22,44.164,-553.148
831.308,23.912,-567.056
752.984,97.112,-586.576
711.26,149.084,-623.42
759.328,213.744,-476.532
862.296,302.804,-419.924
928.908,452.376,-562.664
889.868,427.488,-591.7
755.18,463.356,-464.332
794.708,477.508,-407.48
925.492,484.584,-409.432
969.9,537.044,-416.996
888.892,690.52,-334.036
825.208,724.924,-291.336
842.044,795.684,-315.98
811.788,914.268,-312.808
750.3,858.636,-238.876
673.928,731.024,-201.788
693.204,754.448,-272.548
624.884,713.456,-220.82
628.788,780.8,-134.688
688.568,925.98,-97.112
646.6,964.532,-73.688
536.068,927.2,-110.532
582.184,918.904,-102.968
510.936,981.124,-56.852
494.344,959.896,-51.972
408.7,1052.86,-101.504
316.956,1000.888,-142.984
291.824,908.168,69.052
285.724,924.516,129.564
236.192,835.456,59.292
110.288,778.36,28.548
135.42,815.448,83.692
174.216,868.152,113.216
127.856,946.964,115.412
46.36,984.784,94.916
-41.968,961.36,132.736
17.568,907.924,92.476
28.304,881.084,106.628
-4.88,872.544,64.172
14.396,923.784,50.752
9.516,904.264,39.04
-32.452,894.504,85.156
7.076,907.436,45.628
11.712,969.412,11.468
-4.88,1005.28,-27.572
-76.128,965.02,4.392
-16.104,951.112,15.86
-4.392,929.152,45.384
10.248,1014.552,9.76
20.252,1010.16,-14.884
2.928,978.684,-42.7
12.2,987.712,15.86
19.52,986.248,-26.596
13.176,1006.988,-44.408
39.528,1042.368,-44.164
4.88,994.544,-35.38
2.684,964.288,-10.98
3.66,976.488,-20.008
-15.128,981.368,-25.132
14.884,1013.088,-47.824
32.94,993.324,-8.296
26.84,977.952,12.688
15.128,967.216,20.252
1.708,999.668,-9.272
-13.664,982.832,-4.88
-14.152,1015.772,-39.528
13.908,1010.16,-33.428
-26.596,965.508,-14.884
10.98,947.696,-6.832
9.76,951.6,-3.66
-16.592,967.216,-7.32
36.356,1022.116,-42.944
0.488,972.096,-5.124
2.684,997.96,-24.156
1.464,981.368,-20.008
15.616,1035.536,-35.136
-7.076,1006.744,-34.892
-7.32,976.732,-15.372
-2.684,962.58,-20.008
-19.032,935.252,-21.472
-12.932,962.58,-26.108
-4.148,1014.064,-29.768
-15.616,981.612,-26.84
13.42,1013.332,-6.832
-5.124,997.472,-46.604
-12.932,1006.012,-13.664
-6.588,1017.724,-32.452
-18.056,984.784,-42.7
-1.708,1010.16,-32.94
-19.032,993.08,-30.256
-10.492,977.952,-12.932
-5.856,962.336,-46.116
-24.156,983.32,-22.936
-30.256,986.492,-39.04
3.904,1004.548,-34.648
-6.832,991.372,-41.724
-20.008,969.168,-33.916
-11.224,984.296,-28.06
2.928,983.32,-32.696
-8.784,987.712,-27.572
0.244,1005.524,-48.068
-8.052,980.392,-30.988
-0.976,1002.596,-44.652
-4.636,985.028,-26.352
11.956,1003.328,-35.624
-10.248,990.396,-44.164
-10.004,988.932,-41.724
-18.056,992.104,-27.328
-10.98,985.76,-35.868
-10.248,975.512,-46.36
-20.74,993.324,-46.36
-20.984,1005.28,-46.848
-9.272,1015.772,-42.7
-24.156,997.716,-45.384
-26.352,985.76,-46.848
-13.176,991.128,-41.968
-20.984,978.684,-37.332
-19.276,989.908,-38.552
-11.224,993.324,-51.24
-13.176,988.2,-39.284
-8.54,1000.156,-46.36
-9.028,973.316,-44.408
-15.616,996.984,-37.332
-5.368,1006.012,-57.34
-15.128,990.396,-37.088
-18.544,1000.644,-55.632
-23.912,979.904,-41.724
-6.344,1007.72,-34.648
-24.156,983.564,-47.336
-16.104,1005.768,-39.772
-22.936,991.128,-43.188
-19.276,998.936,-37.82
-20.252,994.544,-36.356
-16.348,990.64,-32.452
-14.884,1016.992,-49.776
-18.788,999.424,-45.14
-6.588,1010.648,-48.556
-26.108,976.244,-46.36
-13.664,969.168,-44.652
-25.62,965.752,-43.676
-24.156,978.684,-51.728
-11.224,984.784,-41.236
-5.124,993.324,-52.46
-20.008,972.828,-36.112
-5.368,983.076,-32.452
-12.688,967.216,-34.404
-6.1,977.22,-34.648
-16.592,968.68,-35.38
-11.468,989.42,-42.7
-10.248,986.736,-35.868
-12.932,992.836,-36.844
-26.596,990.396,-36.6
-21.228,987.712,-36.112
-14.396,995.276,-37.332
-28.06,974.536,-39.284
-21.472,980.148,-42.944
-20.008,1015.528,-49.288
-16.104,1019.676,-52.948
-9.272,1014.308,-35.136
-28.548,988.688,-28.792
-34.892,968.436,-17.08
-21.228,974.292,-24.644
-14.396,994.3,-29.768
-10.004,1019.92,-23.912
-18.788,1005.768,-33.916
-17.568,987.956,-27.816
-20.984,984.052,-18.544
-19.276,983.076,-27.084
-21.472,993.08,-31.72
-14.64,1004.06,-30.012
-14.884,990.884,-32.208
-26.108,981.856,-35.624
-30.256,973.804,-43.188
-26.352,994.3,-36.6
-22.448,1013.576,-31.232
-25.376,1007.72,-40.016
-23.424,992.836,-29.524
-23.18,998.204,-30.5
-38.552,1019.92,-31.964
-37.332,1046.76,-38.308
-8.296,1122.156,-42.456
30.256,1214.144,-59.292
-19.52,1261.968,-82.716
-102.48,1229.76,-102.48
-155.428,1244.888,-35.38
-114.192,1310.524,-67.1
-8.54,1423.252,-42.944
69.296,1418.86,-23.18
-47.824,1225.124,34.648
-114.436,1160.464,37.576
-49.776,1271.484,-19.276
97.112,1224.392,38.064
213.744,1165.344,77.592
280.6,1072.136,110.776
73.444,915.732,307.196
186.416,829.6,315.98
453.596,777.14,204.472
364.78,708.332,149.572
313.54,735.904,272.548
424.072,749.08,321.104
412.848,671.976,360.388
264.74,516.06,304.756
452.864,634.4,265.96
602.924,693.692,273.524
577.06,579.744,447.008
582.184,457.012,410.408
592.188,450.424,501.176
830.088,535.336,321.104
446.764,320.86,478.728
583.404,245.708,577.792
799.832,311.1,551.196
742.98,282.308,582.916
762.744,323.056,587.796
679.54,176.168,688.568
659.288,113.216,698.572
772.992,156.892,643.184
757.62,179.584,642.696
740.052,217.404,616.832
770.308,223.26,591.944
771.04,210.328,608.292
761.524,188.856,570.228
838.384,259.86,472.384
815.204,297.436,367.22
762.256,304.268,313.052
723.46,273.524,225.944
771.772,256.2,199.348
879.864,275.964,158.112
814.472,315.98,76.616
709.064,309.88,14.152
749.568,319.396,-18.3
847.412,339.892,-65.148
841.8,313.784,-98.576
805.932,322.568,-178.364
683.688,322.812,-213.5
696.376,335.5,-197.396
867.664,333.792,-212.28
825.452,291.336,-280.844
767.38,296.948,-366.976
821.548,389.912,-396.5
819.84,437.004,-416.996
827.16,468.724,-460.916
895.968,457.5,-528.748
955.992,435.54,-551.44
986.736,419.192,-543.632
927.688,401.624,-517.036
1001.376,383.08,-519.232
1076.284,407.724,-580.964
1016.992,419.924,-583.404
988.2,370.636,-569.008
907.924,281.576,-538.996
922.32,198.372,-481.9
1151.436,198.616,-322.08
1144.604,145.18,-214.232
943.792,88.084,-180.316
822.768,29.036,-124.684
899.872,-3.416,-34.404
1116.788,-17.812,109.312
1097.756,-81.496,223.26
954.284,-112.728,262.056
931.836,-84.912,311.832
1031.388,-89.06,397.232
1153.876,-137.128,497.272
1171.932,-164.212,555.344
1121.424,-141.032,526.552
1094.34,-102.48,466.772
1230.98,-4.148,404.796
1301.984,-7.564,385.52
1264.896,-44.164,323.056
1186.572,-65.88,254.98
1199.748,-37.82,238.632
1275.632,-39.04,240.584
1266.848,-86.132,223.748
1226.344,-98.82,124.684
1214.876,-95.16,59.048
1149.484,-58.56,48.068
1191.452,-29.036,1.22
1223.172,-13.908,-55.388
1096.292,-84.912,-75.396
1027.728,-111.02,-120.536
1076.772,-118.096,-145.668
1106.296,-93.452,-185.196
1073.6,-98.82,-250.588
1012.112,-96.868,-252.784
1004.06,-106.628,-280.356
1120.936,-40.992,-289.384
1136.064,-80.276,-307.44
1039.196,-64.416,-346.236
941.108,-69.784,-403.82
900.604,-90.768,-427.0
902.556,-53.436,-400.404
1008.94,-0.244,-379.664
1047.248,-5.856,-332.572
1072.868,-44.408,-342.82
982.832,45.872,-323.788
925.248,10.492,-340.136
898.408,31.964,-349.652
885.964,78.812,-353.8
951.112,148.352,-366.976
994.544,198.372,-307.196
939.644,316.468,-357.948
755.424,297.68,-400.892
890.356,215.696,-498.736
986.98,195.688,-432.612
1075.552,355.264,-234.728
1099.464,556.564,-115.168
1036.268,526.552,-239.852
880.596,465.552,-332.572
1048.712,428.952,-436.76
1111.908,584.868,-387.472
953.552,718.824,-153.964
850.584,751.032,-111.264
859.124,748.348,-136.884
834.236,735.416,-172.264
806.908,792.756,-111.02
814.472,817.888,-80.276
663.924,779.336,-96.624
723.46,735.904,-119.804
895.724,878.644,-128.588
785.192,820.816,-63.196
567.788,788.608,36.6
452.864,885.232,121.024
488.732,868.884,31.232
510.692,834.236,55.632
545.584,807.152,-20.496
286.944,751.032,64.904
212.28,814.96,78.812
306.22,943.792,0.244
286.212,929.396,30.988
258.152,855.22,-16.836
171.044,904.02,0.976
136.64,886.208,59.78
187.636,939.644,62.22
196.176,954.528,-55.144
135.908,966.728,-30.744
150.792,940.864,18.544
106.872,911.34,84.912
91.256,917.196,40.504
106.384,993.324,-7.564
89.792,1016.992,-14.396
94.916,965.264,17.324
76.616,933.788,41.48
98.332,929.64,50.264
115.656,955.504,29.28
106.872,949.16,-13.664
62.952,967.704,10.248
81.74,972.096,-14.64
74.908,1009.672,-29.28
91.256,990.64,-46.36
89.06,985.028,-18.788
95.16,970.876,-10.492
96.624,979.172,-7.32
107.848,981.612,0.244
111.02,1023.336,-35.136
89.06,1010.16,-22.692
82.228,986.492,-0.976
146.4,1024.312,-47.824
71.248,951.112,14.884
100.772,979.904,-20.984
64.172,960.384,-18.788
78.324,952.82,-7.564
74.176,950.38,-27.084
89.548,950.868,12.444
81.74,925.248,-10.248
80.276,980.392,-7.076
81.496,1017.724,-45.872
84.424,1029.436,-59.536
35.624,1014.796,-40.992
35.38,979.416,-21.96
38.552,969.656,-22.448
58.56,1008.696,-45.384
65.392,1016.504,-32.94
46.604,975.268,-18.056
63.44,967.216,-18.056
46.848,969.412,-8.784
71.004,993.812,-30.012
55.632,980.88,-31.72
48.8,993.812,-37.088
50.02,988.932,-27.084
45.872,1007.476,-16.592
58.316,1010.404,-17.568
65.88,1006.012,-16.836
56.608,980.392,-15.86
69.784,995.276,-24.888
56.852,990.396,-30.744
24.644,991.86,-35.38
42.212,995.032,-48.8
37.576,984.54,-40.016
46.848,986.004,-40.504
54.168,976.976,-35.136
59.536,966.24,-25.864
68.564,987.712,-21.472
62.464,964.776,-24.156
52.704,984.052,-26.108
65.636,1004.548,-33.916
36.6,998.936,-43.676
52.216,992.836,-42.212
61.244,992.104,-30.988
66.124,990.64,-35.624
45.628,971.608,-20.496
45.872,978.44,-30.5
57.096,989.176,-31.72
53.436,998.692,-32.208
44.652,1006.988,-52.948
35.136,1006.012,-48.068
26.108,976.488,-38.308
55.388,985.516,-50.752
42.7,1001.864,-37.088
24.644,989.42,-41.724
13.908,978.44,-42.7
35.38,970.388,-33.428
68.076,1019.676,-77.104
48.068,1021.384,-46.848
42.7,1016.016,-51.972
29.28,980.148,-33.184
48.8,995.764,-52.704
33.672,991.128,-65.88
41.724,1001.132,-49.776
42.212,983.808,-51.972
30.988,967.948,-36.6
44.408,981.124,-58.072
28.792,968.436,-44.896
47.58,989.176,-61.976
18.056,986.98,-40.748
44.164,1004.304,-53.436
34.648,997.472,-43.432
37.82,993.568,-57.828
41.48,976.976,-50.264
42.7,976.244,-46.848
26.596,976.0,-40.992
46.604,997.716,-47.092
28.792,993.08,-43.676
33.428,996.252,-56.364
37.82,993.568,-53.924
36.356,984.296,-40.26
41.724,985.76,-55.388
23.912,973.072,-40.016
25.864,990.64,-61.488
40.748,1017.724,-69.784
22.448,1001.376,-66.612
43.676,1012.844,-69.052
24.888,990.64,-42.456
46.604,997.716,-40.016
42.212,997.716,-43.92
40.748,1010.892,-68.076
24.644,993.08,-43.676
43.92,991.372,-56.364
47.336,983.808,-63.196
65.88,1016.504,-78.568
16.104,1027.728,-62.708
18.788,993.324,-58.072
16.348,993.568,-25.864
12.444,995.52,-31.476
28.06,997.716,-38.796
38.064,1021.384,-49.532
49.532,1035.78,-61.244
23.912,1025.776,-37.332
10.736,1030.168,-30.5
-15.86,1006.012,-34.404
31.72,1024.8,-29.036
90.768,1077.016,-66.368
75.396,1074.576,-81.984
50.752,1059.448,-40.748
119.56,1153.144,5.368
95.16,1128.256,-65.88
137.372,1120.448,-119.56
171.044,1179.008,-91.5
141.52,1165.1,11.712
281.576,1274.168,38.796
209.596,1254.648,-128.344
83.936,1125.572,-49.776
297.924,1065.548,3.416
608.292,1147.776,26.352
439.688,1001.864,158.112
431.392,881.816,214.72
578.28,794.464,154.208
718.336,759.328,-14.152
769.576,809.836,53.192
548.268,750.788,68.076
727.608,818.864,17.08
798.124,816.668,62.464
656.36,733.952,159.576
649.772,582.184,140.788
742.248,613.904,132.98
582.184,559.492,145.912
788.608,608.048,223.26
880.596,437.248,282.796
727.12,313.052,352.824
636.84,166.408,436.272
908.9,250.1,492.392
1086.532,272.304,303.536
890.112,214.72,447.984
901.092,208.376,467.016
879.132,209.84,554.856
891.576,113.46,604.876
904.508,159.088,597.8
878.644,148.352,510.692
823.256,118.34,517.28
923.784,129.076,466.284
954.772,162.016,371.368
864.004,130.54,364.536
806.42,95.404,318.42
828.136,141.032,214.232
815.448,134.688,143.228
867.908,190.076,101.26
794.708,176.656,73.444
711.992,134.688,61.732
675.392,109.068,-8.052
746.64,102.724,-81.496
679.052,99.308,-148.108
743.956,183.732,-239.12
808.372,158.844,-337.696
779.58,168.116,-276.696
853.756,222.284,-292.8
835.944,197.396,-312.32
851.072,110.532,-346.236
832.284,112.728,-479.46
756.156,191.052,-472.872
817.4,149.328,-501.908
985.76,154.94,-497.272
1079.456,213.5,-558.516
1061.644,260.104,-515.572
1005.28,232.532,-434.564
1036.268,214.476,-495.564
1041.392,140.544,-523.136
1052.372,110.532,-478.972
1050.176,93.452,-424.316
1068.232,159.332,-455.792
1143.384,171.532,-464.576
1019.188,112.484,-384.788
1029.192,41.724,-361.852
1048.712,13.908,-228.628
1052.372,56.852,-223.504
1106.54,104.92,-277.672
1084.336,96.868,-242.78
1072.868,73.444,-169.092
1087.264,16.348,-74.176
1082.628,12.444,-5.368
1054.812,40.992,-35.868
1062.864,68.564,-87.108
982.588,11.956,0.488
1111.42,-6.832,120.292
1036.756,-32.94,235.46
955.992,-42.944,227.896
956.968,-13.908,198.128
929.396,5.856,203.252
1024.8,-34.404,267.424
1119.228,-52.46,350.384
1037.732,-61.976,367.22
961.116,-56.364,340.136
1005.524,-17.812,324.764
1125.084,-22.448,319.152
1044.076,-46.848,392.84
991.86,-60.512,309.148
1119.228,-69.296,136.64
1148.02,-13.42,147.376
1250.256,-39.772,211.792
1189.744,-81.984,274.744
1062.62,-167.14,234.728
1033.34,-185.196,161.284
1178.276,-127.856,9.76
1253.916,-111.752,-77.836
1148.996,-144.448,-67.344
1043.344,-160.308,-77.592
1050.42,-117.364,-39.772
1142.896,-118.096,-135.664
1200.48,-130.784,-150.304
1078.968,-194.956,-114.68
1038.952,-213.5,-162.26
1061.4,-181.292,-277.428
984.54,-202.276,-215.696
979.416,-153.72,-259.128
1048.712,-135.42,-365.268
993.08,-143.472,-434.076
900.604,-153.476,-409.188
836.92,-148.596,-448.96
901.824,-89.06,-395.28
1083.848,-62.952,-557.54
1084.336,-69.54,-528.992
875.716,-11.224,-463.6
645.868,-49.532,-406.748
963.068,43.188,-361.852
1252.94,172.02,-344.284
1311.5,93.452,-331.352
965.02,-28.792,-427.732
844.24,84.668,-310.856
877.912,116.632,-325.984
1062.376,178.364,-303.292
1140.7,262.788,-230.824
1064.816,239.852,-170.312
989.908,238.388,-187.148
917.928,225.456,-306.708
864.248,213.5,-262.3
1026.752,362.584,-195.932
1074.088,429.928,-201.056
1019.188,506.3,-164.456
945.256,617.32,-146.644
862.296,692.472,-143.472
791.048,713.456,-55.876
841.312,702.232,42.7
906.216,680.76,27.816
891.82,732.488,-8.784
832.04,845.948,27.572
738.344,836.676,-28.304
559.98,806.908,65.148
491.904,786.412,200.08
591.456,785.68,168.36
722.24,794.22,67.344
599.508,857.416,197.64
473.36,920.856,185.684
498.004,892.552,41.724
512.156,836.676,164.456
375.272,830.332,263.276
239.852,802.028,144.448
250.344,908.9,206.912
276.452,945.5,126.636
231.556,963.8,121.512
256.2,928.176,134.2
139.568,924.272,132.492
52.216,969.9,161.772
95.404,983.32,122.732
46.848,989.664,81.74
75.396,959.652,82.96
169.092,934.52,130.54
175.192,915.732,101.016
104.188,950.624,42.212
71.248,986.004,23.668
99.796,964.044,35.624
135.908,934.52,29.036
140.544,937.936,28.06
144.448,965.752,29.28
143.472,1045.052,2.684
111.02,1051.396,1.22
103.212,1006.012,-35.624
94.428,974.292,-44.652
100.772,966.484,-47.824
129.076,998.448,-19.52
155.184,986.492,-12.688
166.164,968.436,2.684
157.136,988.2,15.86
149.572,981.612,20.496
125.416,966.728,8.784
89.06,972.096,-31.72
55.144,958.676,-41.724
83.936,953.552,-29.28
121.756,955.748,-21.228
144.204,987.224,-17.568
98.332,978.684,-25.376
89.548,1018.456,-25.864
92.72,1017.48,-19.52
114.924,1021.872,7.076
106.628,1032.852,7.076
105.652,995.764,0.0
102.236,983.808,13.908
103.456,1021.384,14.884
98.576,993.08,10.98
86.62,944.036,7.564
99.552,918.416,0.0
108.336,937.448,10.004
99.064,991.86,1.708
106.14,1038.708,-0.976
107.36,1035.536,-4.636
109.068,999.668,-7.808
104.676,989.176,-10.004
92.232,983.076,-21.716
68.808,967.216,-30.012
91.744,944.28,-34.16
101.748,947.94,-8.784
96.868,964.776,-19.764
82.716,966.24,-27.084
109.8,963.068,-11.224
98.088,974.78,-7.32
86.376,988.688,-7.564
94.916,1004.548,-4.148
115.9,1025.288,2.196
108.336,1016.992,-9.76
96.38,998.204,-9.272
113.704,990.396,1.952
97.112,994.788,-6.588
94.184,977.952,-2.196
110.532,973.072,-3.172
100.528,981.856,-7.32
101.016,991.128,-0.732
113.948,987.712,10.248
98.332,984.296,-5.368
86.864,990.64,-9.028
96.868,988.2,-11.224
125.416,965.02,0.244
110.776,959.164,-8.052
106.872,980.392,-10.492
114.924,1005.524,-17.812
114.436,1022.848,-17.812
125.172,1021.628,-10.736
111.02,1008.94,-18.3
93.94,1006.256,-31.232
90.28,998.692,-33.184
100.772,989.42,-30.744
103.456,981.856,-26.108
105.652,975.268,-28.304
109.556,987.224,-14.64
114.192,990.64,-15.128
126.636,992.348,-9.272
115.9,994.3,-12.2
109.8,983.564,-27.816
112.728,998.204,-21.472
120.536,993.08,-8.54
127.856,981.612,-18.056
119.072,969.9,-10.98
106.384,974.048,-21.96
97.112,988.932,-27.084
116.876,997.716,-13.176
138.104,993.324,-8.296
115.656,990.396,-16.836
107.36,999.668,-24.4
123.708,1010.892,-19.276
126.148,1036.268,-4.392
121.024,1022.36,-13.908
109.312,976.488,-28.06
132.248,970.876,-17.568
132.736,1017.48,-26.108
138.348,1095.804,-32.94
95.404,1176.812,-64.904
91.256,1153.388,-64.66
135.664,1087.752,-60.268
151.036,1094.828,-58.56
161.04,1108.004,-37.088
179.34,1130.696,-13.664
134.932,1204.384,-52.704
96.38,1239.032,-75.152
247.66,1110.688,-74.908
328.424,999.424,-10.736
406.504,1024.556,22.448
365.268,1146.068,25.62
419.436,1135.332,22.936
457.988,1084.824,-30.012
443.104,975.268,96.868
490.928,876.204,206.424
481.412,742.248,133.956
513.864,572.912,95.648
795.928,587.552,219.356
750.788,504.592,166.164
612.684,501.176,56.852
640.012,495.808,98.82
799.1,382.348,152.5
1054.812,427.0,287.188
1053.348,401.136,306.22
1031.632,465.796,170.068
739.808,461.404,-9.516
240.096,121.024,233.02
786.9,106.14,189.1
1311.744,197.152,177.632
1317.356,135.908,193.004
1059.204,55.632,230.336
840.58,-4.392,179.584
798.124,-39.772,164.212
990.64,54.656,135.908
1251.72,109.556,195.932
1174.616,1.464,231.312
948.672,-21.96,225.944
867.176,0.0,134.688
905.972,25.376,136.152
1147.776,58.804,156.892
1224.148,41.724,132.004
916.464,40.016,166.164
759.572,89.06,166.408
796.904,92.232,178.12
1005.28,82.96,172.02
1131.916,63.196,91.5
1032.12,92.964,58.072
897.432,106.384,137.372
843.996,88.816,233.02
933.544,32.94,352.58
1169.004,7.564,336.964
1247.328,20.496,303.292
1063.596,-30.744,352.336
995.276,51.972,309.392
1053.348,134.688,307.44
993.324,48.068,369.904
1044.564,-20.008,383.812
1053.592,-58.072,357.46
987.468,-41.968,303.048
965.752,3.904,272.06
985.028,3.66,266.204
960.384,-32.94,221.064
863.516,-57.828,182.512
811.056,-51.484,121.512
853.756,-58.316,72.224
922.076,-39.772,21.716
926.468,9.272,-78.08
821.792,33.672,-129.808
793.732,34.16,-136.152
782.02,-52.46,-125.416
885.964,-52.46,-186.172
894.26,-21.96,-248.148
798.856,12.444,-269.62
754.692,40.016,-340.624
789.096,56.12,-420.168
810.812,15.616,-439.444
891.088,-6.832,-455.548
933.544,22.692,-487.268
926.468,60.756,-532.408
953.308,67.1,-519.964
1003.572,-10.98,-463.844
996.74,-113.46,-425.292
977.708,-114.68,-400.648
1048.956,-9.028,-448.472
1051.396,65.636,-517.524
1033.584,39.04,-506.3
1104.832,-77.104,-428.708
1092.388,-179.34,-380.152
1066.036,-148.352,-372.832
1075.552,-62.464,-365.024
1099.22,-65.636,-292.312
1034.56,-178.608,-203.984
889.136,-294.02,-117.852
798.856,-251.076,-61.976
962.824,-179.34,-18.544
1197.552,-234.484,104.92
1085.8,-369.172,181.536
826.184,-462.136,187.636
782.996,-308.904,200.08
896.7,-193.98,235.46
1065.304,-244.488,324.52
1065.06,-346.48,359.656
964.288,-413.092,354.776
952.82,-334.28,316.224
1084.824,-247.904,325.008
1242.692,-296.46,378.932
1289.784,-338.916,372.588
1198.284,-368.196,319.152
1089.46,-374.54,312.32
1152.412,-331.108,293.044
1223.416,-339.404,270.84
1261.968,-365.024,244.976
1238.544,-368.44,170.556
1184.864,-351.116,113.46
1139.48,-362.584,76.616
1096.292,-379.42,-8.54
1136.552,-339.16,-75.64
1187.792,-306.708,-98.332
1137.284,-323.3,-77.348
1060.912,-374.052,-97.356
1041.392,-379.42,-162.992
1042.856,-352.824,-172.996
1060.912,-285.236,-177.876
1030.412,-277.184,-209.596
938.18,-336.232,-222.04
905.972,-388.692,-200.568
1004.792,-383.08,-215.452
1078.968,-331.596,-222.284
1041.636,-296.948,-253.272
968.192,-276.208,-261.812
938.912,-283.284,-274.012
943.792,-264.984,-282.308
902.8,-273.524,-316.712
864.98,-294.508,-358.924
934.032,-227.652,-324.764
1063.84,-178.364,-296.948
1042.612,-150.548,-242.292
964.044,-167.872,-236.924
906.46,-187.148,-236.192
864.004,-252.052,-271.084
895.236,-214.72,-261.568
930.128,-114.924,-201.544
963.068,-52.46,-182.756
1053.104,15.128,-207.888
1137.772,43.188,-212.036
1167.54,58.804,-228.384
1103.124,22.204,-249.856
1039.684,48.068,-257.908
986.004,128.588,-345.26
923.296,68.076,-304.268
898.164,124.196,-178.12
981.856,195.932,40.992
1082.14,307.684,78.08
1187.304,451.888,-63.44
1172.664,624.152,-187.148
965.02,635.132,-222.528
776.896,453.352,-175.436
902.8,354.044,-162.016
938.424,422.12,-5.856
979.904,509.228,-31.476
927.2,543.876,-84.668
821.304,574.864,-101.992
769.088,663.68,-92.476
767.868,748.348,-45.14
799.1,668.316,-46.116
726.388,656.848,-16.348
688.324,773.724,-6.832
809.836,810.324,-23.18
724.924,784.948,6.588
608.048,868.396,15.616
594.384,922.808,56.852
576.328,885.232,168.848
623.664,747.86,129.076
559.492,770.064,119.072
548.756,904.264,55.876
407.968,923.54,122.976
328.668,920.368,214.232
335.256,941.596,197.64
354.044,966.972,163.724
465.552,860.344,98.088
315.492,930.616,148.596
217.892,954.284,111.508
266.448,964.532,165.432
294.752,950.38,185.44
278.648,944.036,172.508
212.524,921.832,160.796
219.356,934.276,180.072
136.396,891.576,205.204
132.736,911.096,176.656
226.188,926.224,180.316
186.416,923.052,212.28
62.22,848.632,207.888
156.16,887.672,189.588
139.08,994.788,223.992
94.672,933.788,185.684
56.364,923.296,152.744
114.192,975.756,124.44
117.364,970.632,111.02
118.096,926.468,115.656
169.092,949.892,119.804
168.116,992.104,91.012
90.524,1023.092,100.284
61.244,1006.744,71.004
87.108,951.356,91.5
91.744,892.308,106.14
139.812,894.504,124.196
150.06,957.212,117.12
111.508,995.032,100.772
87.108,1006.5,76.86
59.048,996.496,84.424
76.128,993.812,75.152
76.86,990.64,70.516
81.008,966.484,103.212
190.564,992.348,-6.1
40.992,976.0,85.156
103.456,1033.828,59.536
60.512,1004.792,85.888
92.476,1011.868,74.42
106.384,986.98,54.168
90.768,983.076,66.124
100.772,1005.036,81.496
86.62,1021.872,57.828
81.252,1018.212,73.444
90.28,1008.208,66.124
71.98,974.78,45.14
81.008,948.672,66.856
100.772,991.86,65.636
88.084,946.72,68.076
135.42,990.884,26.108
101.992,1007.964,80.52
88.084,997.472,49.776
77.348,987.468,39.04
65.88,956.236,50.02
112.972,960.384,45.384
80.276,925.004,69.54
111.264,965.508,44.164
94.672,1013.332,36.112
79.056,1011.868,38.308
87.352,1000.4,38.796
94.428,974.292,30.744
81.496,948.916,52.948
115.412,1004.548,54.656
95.892,987.468,54.412
103.212,1024.556,33.184
77.836,1009.428,30.5
79.788,981.368,25.132
73.932,960.872,27.328
69.296,938.668,0.0
71.492,965.508,-11.956
109.312,1040.416,14.152
130.052,1042.368,19.52
100.772,1001.376,8.296
78.568,1004.304,6.588
76.372,987.712,5.124
86.132,974.536,10.98
101.016,975.512,12.932
110.288,988.688,20.984
97.844,970.876,11.712
105.896,982.588,11.468
96.868,989.908,21.472
112.728,1008.452,8.052
86.864,999.18,3.172
89.06,989.664,-7.564
94.184,973.804,7.564
94.916,986.004,14.64
90.28,997.228,7.32
94.672,1012.6,4.88
86.132,1007.232,-0.488
88.572,1004.792,2.928
74.42,994.788,2.44
73.932,978.928,9.028
75.152,976.0,17.568
88.084,979.172,17.324
105.652,1017.48,-9.028
81.008,998.936,2.196
81.984,1003.816,2.684
75.64,983.32,1.22
81.252,973.316,6.832
109.556,994.788,-18.056
78.812,993.568,9.028
85.644,1004.548,-2.928
75.884,964.776,2.684
82.228,978.196,1.708
93.208,989.664,-10.248
77.836,974.78,1.22
74.908,989.908,-0.244
88.328,976.0,6.832
84.424,994.788,0.488
75.396,978.196,4.636
65.636,968.924,-0.488
65.636,981.368,-14.884
74.664,989.176,-10.736
83.692,1000.644,-7.564
68.564,1005.524,-24.4
61.976,996.496,-32.208
66.856,999.668,-14.64
62.464,996.496,-15.86
64.904,997.96,-11.956
80.032,1015.528,-7.808
89.792,1027.972,-7.564
81.496,1016.016,-0.244
71.248,996.74,0.976
81.74,982.832,14.884
81.252,987.224,13.176
65.636,998.936,12.444
75.64,1013.576,9.272
103.7,1057.74,-9.272
85.156,1082.14,0.244
111.508,1161.44,-42.456
107.116,1195.356,-99.064
212.036,1310.28,-127.856
170.8,1363.472,-34.16
201.3,1352.248,24.156
357.704,1292.956,64.904
373.564,1229.516,89.06
441.884,1298.324,140.788
575.108,1347.368,55.876
535.824,1093.608,-19.276
661.728,990.884,103.212
595.848,895.968,238.388
569.252,854.244,245.22
669.536,833.016,191.784
670.756,786.412,198.128
439.2,675.88,183.976
586.332,715.896,266.204
741.516,677.1,295.24
630.984,510.936,206.912
733.464,416.752,268.644
838.384,383.08,377.468
756.644,321.592,421.876
764.208,276.94,469.944
949.16,197.396,521.428
820.084,117.608,457.988
748.592,81.496,498.248
815.692,115.412,511.668
944.036,172.996,495.076
867.42,200.08,448.228
617.32,92.964,453.596
603.412,-22.936,390.644
863.516,-6.588,386.008
1023.336,67.832,376.98
788.364,115.9,352.336
699.548,155.672,278.404
722.728,151.524,174.704
722.728,88.816,136.152
849.852,80.764,79.3
877.424,131.76,39.772
760.06,141.764,-1.708
690.764,201.056,-32.452
774.456,281.088,-170.556
804.712,239.852,-202.032
796.416,129.808,-220.332
781.288,77.592,-233.02
741.516,113.948,-250.344
803.98,190.32,-353.068
768.356,237.656,-408.7
785.436,211.792,-471.408
855.464,161.284,-521.916
979.416,162.748,-593.164
1036.512,243.512,-621.956
1029.68,316.224,-667.828
1043.588,383.568,-690.764
998.692,360.876,-722.24
1031.388,301.34,-743.468
1132.404,148.84,-624.884
1158.024,124.928,-531.676
1090.436,172.996,-511.668
974.292,170.312,-524.112
973.804,190.808,-507.032
1165.588,114.68,-395.036
1125.572,-21.472,-265.228
946.232,-91.256,-202.764
870.592,-63.44,-205.692
815.204,-10.98,-132.004
884.5,-7.808,-53.924
972.34,-65.148,71.492
941.596,-96.136,130.052
823.256,-60.024,156.16
851.56,-41.968,180.316
1023.824,-58.316,264.252
1161.196,-153.72,348.432
1031.144,-221.064,387.228
921.344,-169.336,381.128
922.076,-96.868,381.86
1034.56,-84.424,431.88
1093.12,-119.072,474.092
1108.98,-142.252,421.876
1062.864,-157.868,358.192
1049.688,-135.664,367.952
1167.54,-123.22,347.212
1302.96,-135.908,403.332
1286.124,-175.924,315.004
1182.424,-187.88,275.72
1159.488,-160.064,266.204
1268.312,-129.076,211.792
1293.932,-173.24,187.88
1241.716,-211.06,134.688
1201.7,-213.012,94.428
1125.328,-248.88,26.84
1070.672,-230.58,-8.784
1123.62,-238.388,-19.52
1176.812,-245.708,-62.464
1160.22,-237.168,-102.48
1036.512,-262.3,-192.028
987.468,-215.452,-210.084
1035.536,-183.732,-221.308
1090.924,-183.0,-217.648
1054.812,-237.412,-218.38
949.648,-282.064,-257.42
903.044,-244.976,-402.112
912.072,-120.78,-421.876
917.44,-69.052,-300.364
1008.452,-47.092,-312.564
1061.4,-33.672,-352.58
997.716,-71.492,-388.936
916.952,-103.212,-395.28
927.932,-28.304,-433.588
946.964,35.868,-406.504
917.684,71.004,-346.48
930.616,69.54,-344.04
947.94,134.2,-318.42
886.208,179.584,-309.636
871.08,149.572,-305.732
1055.544,250.1,-375.272
1200.236,404.308,-325.496
992.104,352.092,-57.584
912.316,487.512,-68.564
954.04,685.64,-229.116
891.576,603.412,-92.232
1045.784,521.672,-88.084
1028.704,596.58,-39.04
932.324,568.764,-30.256
860.588,586.332,-60.024
826.184,594.14,-90.036
895.236,628.3,-25.376
914.512,724.192,127.368
950.624,744.932,40.016
890.112,744.2,-32.452
889.624,663.924,-78.324
851.56,620.98,-26.596
793.0,619.516,62.708
841.556,700.036,115.656
851.072,772.016,46.116
864.98,748.348,23.18
925.492,847.656,135.908
930.372,825.208,136.64
732.732,765.428,244.732
572.18,723.46,167.384
564.616,758.108,284.016
556.076,872.056,315.492
397.476,844.484,354.532
418.704,899.384,318.908
446.276,795.44,226.188
284.992,808.616,283.772
200.324,907.192,192.028
135.42,983.808,208.864
73.444,922.564,318.908
103.456,927.444,348.188
179.828,1003.084,264.984
63.44,958.676,168.116
-45.384,897.92,186.416
-10.492,943.548,274.5
29.036,880.84,241.804
-3.172,821.304,220.088
-39.528,833.26,210.328
-48.068,822.28,251.808
-79.056,840.092,186.66
-132.736,887.916,118.584
-20.008,1006.744,34.16
-93.208,946.476,48.8
-97.356,885.72,104.188
-30.012,913.048,82.472
-89.792,971.608,106.384
-108.336,1033.584,65.88
-122.488,980.392,64.904
-198.128,886.94,99.064
-88.328,901.58,25.132
-3.904,966.728,0.0
62.708,1082.384,42.7
-118.584,1089.704,8.784
-141.032,951.844,136.884
-90.28,938.424,132.492
-136.152,921.344,-43.188
-72.712,957.7,-100.528
-101.26,975.756,93.696
-25.376,990.152,128.344
-37.576,1042.612,19.276
-175.924,1040.66,-29.036
-132.248,990.64,-17.812
-34.892,992.592,42.212
-84.18,980.148,64.904
-85.644,959.896,30.256
-128.588,923.54,75.152
-142.984,979.66,45.628
6.832,1155.828,-36.112
-24.644,1007.72,-8.54
36.356,994.056,-56.608
-15.616,938.18,54.412
-44.408,898.164,132.492
-38.064,971.852,64.904
-126.636,986.736,33.916
-109.8,905.728,107.36
15.128,871.324,71.98
69.54,986.736,6.344
123.464,1018.7,-66.124
60.268,1061.4,-62.464
-104.676,1032.608,39.284
-94.184,1027.972,0.976
-21.228,1001.376,-23.668
-2.44,986.492,-13.908
-4.636,1026.752,11.956
-0.244,1040.66,-16.592
-39.284,1022.116,3.904
-69.784,991.86,-2.928
-70.028,980.636,-24.156
-44.652,957.7,-40.016
-47.824,945.256,-47.092
-40.992,966.728,-25.132
-34.892,970.144,-30.012
-45.628,980.148,-42.944
-71.004,973.56,-32.208
-59.536,997.716,-34.404
-52.216,999.424,-44.408
-29.28,989.42,-55.632
-30.012,973.56,-15.128
-63.44,967.216,-33.428
-74.908,1000.644,-63.44
-65.88,997.96,-47.824
-52.46,993.568,-47.824
-58.56,986.736,-60.512
-70.028,974.048,-76.86
-83.936,979.66,-79.788
-62.952,985.516,-84.18
-50.996,979.66,-60.756
-62.952,986.248,-66.368
-61.976,1015.04,-61.976
-71.004,1007.964,-64.904
-69.54,1007.72,-81.74
-66.124,958.432,-79.788
-41.236,976.488,-72.224
-67.588,972.828,-60.756
-60.512,997.96,-93.94
-60.512,998.448,-96.38
-60.512,987.712,-91.256
-58.072,964.044,-76.128
-54.9,980.148,-70.516
-50.508,1006.012,-70.272
-53.68,1011.868,-87.108
-48.8,995.764,-81.008
-49.532,976.488,-75.884
-32.696,1002.84,-76.86
-38.796,1002.84,-85.156
-36.356,1004.06,-84.668
-55.144,1003.084,-77.836
-51.24,999.912,-76.616
-59.292,995.276,-102.724
-30.5,998.692,-96.624
-24.156,996.008,-89.792
-60.756,1022.604,-98.088
-39.284,1015.04,-111.996
77.836,1094.584,-119.072
64.904,1164.612,-70.516
-41.236,1099.464,-109.556
-171.776,1089.46,-130.052
-91.744,1130.696,-111.264
15.372,1218.292,-12.2
-26.108,1174.128,-70.028
30.744,1227.808,-100.772
203.74,1302.228,-69.54
213.012,1335.412,-68.808
188.612,1145.824,-153.72
223.26,1012.112,-98.576
362.584,1025.776,-117.608
349.652,1036.512,-195.2
682.956,1131.428,-109.8
586.332,1050.664,-96.38
258.884,825.696,-13.176
305.0,603.168,45.872
797.636,856.928,41.236
927.444,913.78,-158.6
831.308,890.844,-125.904
693.936,646.356,-111.02
469.7,447.496,180.56
731.512,554.856,278.404
930.616,536.556,14.884
832.04,517.524,68.564
683.444,462.38,92.964
553.392,272.304,197.64
571.692,232.776,285.968
741.516,256.932,296.948
862.54,343.552,175.192
976.488,494.588,65.636
896.456,458.476,135.664
900.36,271.084,305.976
847.9,142.984,402.112
884.012,131.272,401.136
1020.652,244.976,338.184
1048.956,335.5,289.384
930.86,324.52,259.372
894.26,279.868,220.576
918.66,243.024,233.508
905.972,185.196,241.072
857.416,228.14,226.432
882.792,291.092,109.312
861.808,255.468,101.504
848.388,194.468,106.628
908.412,139.324,71.248
894.992,152.012,40.016
815.936,136.152,-74.908
703.208,108.824,-223.748
706.136,113.46,-326.472
773.724,142.496,-372.344
762.744,135.908,-423.34
714.92,134.932,-438.712
720.288,133.468,-509.716
727.12,140.544,-634.644
688.568,180.072,-720.532
682.224,204.472,-751.032
809.348,290.604,-804.468
913.536,341.6,-884.012
944.524,339.404,-868.152
965.02,289.872,-831.796
944.768,201.788,-762.5
966.484,188.612,-649.528
1134.112,210.328,-637.572
1113.128,198.86,-604.144
1013.088,166.408,-582.672
965.02,181.536,-560.712
949.648,178.12,-546.804
933.788,183.488,-538.02
906.704,175.192,-488.732
1042.124,90.036,-410.164
1093.12,22.448,-283.04
1033.828,-11.468,-195.444
916.464,-15.86,-139.08
833.504,9.516,-128.344
864.004,17.812,-109.8
949.648,-27.084,-10.248
1018.944,-38.308,106.14
899.872,-37.332,167.384
774.944,-47.092,159.576
854.732,-34.648,217.648
1062.864,-19.764,305.244
1144.604,-21.96,429.684
1059.448,-45.14,452.62
895.724,-102.48,451.888
988.932,-56.852,491.172
1238.056,-58.56,533.628
1275.876,-65.636,540.704
1164.124,-100.772,477.02
1078.236,-97.112,411.384
1167.052,-71.492,360.388
1258.552,-81.74,333.548
1231.956,-65.636,296.948
1165.344,-93.696,218.624
1143.628,-101.992,191.784
1208.044,-167.628,169.824
1214.632,-235.948,163.48
1285.148,-204.96,108.58
1229.76,-218.624,49.532
1197.064,-194.956,8.296
1171.932,-210.572,-6.344
1137.528,-265.228,2.44
1210.484,-286.456,-21.228
1185.596,-276.208,-34.892
1112.884,-252.54,-46.116
1063.108,-264.008,-55.388
1084.58,-328.912,-42.944
1134.356,-350.872,-55.876
1046.76,-388.448,-40.504
1020.164,-369.416,-68.564
996.984,-387.228,-129.076
1005.524,-320.86,-222.284
1016.016,-278.16,-302.804
1012.844,-239.608,-341.356
983.564,-237.168,-292.312
979.416,-259.128,-266.936
890.844,-304.268,-296.46
813.252,-283.528,-290.116
843.02,-221.796,-316.956
802.516,-196.42,-278.404
892.308,-162.016,-232.288
906.216,-132.248,-191.296
865.468,-113.46,-223.504
873.764,-57.828,-281.576
834.724,18.3,-319.884
873.276,61.488,-271.084
986.004,103.456,-209.352
1098.732,224.968,-182.268
1102.636,279.136,-298.412
1035.292,221.308,-306.464
877.424,173.972,-81.252
910.12,232.288,-88.816
1037.488,403.82,-177.876
1005.28,541.436,-241.56
958.432,556.32,-223.016
899.384,548.756,-42.944
897.188,629.032,3.66
1037.244,853.024,-70.028
955.992,829.112,-152.012
759.816,742.004,-131.028
857.172,823.012,-90.28
965.264,897.432,17.324
900.116,934.764,23.668
816.424,1033.828,61.732
743.956,1007.232,-8.784
609.512,785.68,-29.524
506.544,729.56,30.5
481.168,896.7,84.668
320.86,894.504,85.644
146.644,920.856,161.284
231.068,927.932,191.052
232.776,978.196,179.584
238.876,943.06,61.488
290.604,907.68,23.668
106.872,892.308,172.508
18.056,928.664,182.512
48.8,1037.976,123.22
129.32,1056.52,106.628
74.908,957.456,154.94
41.724,902.8,174.216
41.48,873.764,154.94
18.544,890.844,133.468
-9.028,933.056,100.284
40.504,1002.108,51.728
25.864,984.784,25.864
30.012,974.048,43.92
30.5,902.312,52.46
19.032,916.464,49.288
15.372,927.2,29.524
28.548,986.492,-21.472
44.896,1051.64,-20.984
53.192,1057.74,-12.2
33.916,1008.452,2.928
34.892,984.54,23.668
37.576,960.628,27.328
57.34,965.996,4.392
-5.856,984.296,-9.272
7.32,1027.972,-36.844
-21.96,1017.236,-48.068
12.444,991.86,-32.94
-25.62,950.136,3.66
13.908,962.58,9.272
21.472,993.568,-6.832
15.616,1029.924,-36.844
-21.228,1001.132,-5.124
-19.276,989.176,1.464
-14.396,942.816,3.66
29.036,963.312,0.488
60.268,1039.196,-55.144
2.684,983.32,-11.468
-32.208,955.016,18.3
-7.32,988.444,14.152
-4.148,949.648,-8.052
19.032,1018.7,-8.052
-3.172,1012.112,-42.456
-12.688,964.776,-0.976
-11.224,986.004,-6.588
-19.52,947.452,-20.496
-22.692,931.592,-2.684
11.712,1014.308,-4.392
8.296,998.692,-34.892
10.248,974.048,-6.1
40.016,1008.94,-32.208
3.416,965.264,-23.424
-0.488,991.616,-8.052
-1.952,1015.04,-24.888
-9.516,967.46,-29.036
9.516,1007.232,-26.108
-37.332,993.812,-32.94
-16.348,954.284,-28.06
20.496,1004.304,14.152
32.452,1011.624,-33.184
-12.932,1003.572,-9.272
11.712,1026.264,-21.472
-22.692,981.368,-19.276
9.76,973.56,-20.984
26.84,986.492,7.32
38.796,1006.988,-18.3
24.156,991.128,14.64
31.232,1006.988,2.684
9.028,990.152,-22.936
5.612,968.68,-17.812
3.904,1002.352,-29.768
-8.296,979.66,-51.972
-1.464,998.204,-43.188
0.488,1018.7,-54.412
-6.344,980.88,-26.352
13.908,986.004,-23.18
4.88,969.656,-6.1
18.056,1006.744,-49.532
16.836,1023.092,-23.668
-10.248,1024.312,-29.28
-10.98,1009.184,-17.568
15.128,1025.288,-17.568
18.056,1030.656,-4.392
12.932,1019.188,-1.708
10.492,1000.156,1.708
17.08,1026.02,-20.252
38.796,1055.3,-50.996
27.084,1043.832,-46.116
0.0,1000.644,-55.144
-10.248,1047.98,-30.988
3.416,1055.544,-66.612
67.344,1082.628,-56.852
132.248,1052.86,-44.164
86.132,1098.244,55.388
141.032,1149.972,-13.176
107.36,1114.104,-82.96
75.396,1106.052,-96.868
173.24,1207.312,-70.516
129.076,1116.056,86.376
-87.84,1069.452,157.38
24.888,1185.84,-80.032
333.06,1276.852,-222.284
378.2,1302.228,-126.148
232.044,1198.772,-51.728
60.024,1116.544,-83.692
3.416,1048.712,-54.656
349.652,1032.12,-81.008
600.24,1121.912,10.492
455.304,968.436,3.416
513.864,961.116,-64.172
636.108,1004.548,-144.692
525.332,1006.744,-125.416
611.952,752.984,-94.672
775.188,578.28,-94.672
794.22,630.984,-79.788
639.768,653.676,-109.556
583.16,555.832,-56.12
654.652,452.376,-12.688
881.816,337.452,-67.1
1061.644,470.676,-13.42
816.424,493.124,27.572
424.56,372.588,33.916
352.092,395.036,-66.124
529.968,454.816,-162.504
788.608,481.656,-241.072
1031.388,368.196,-262.056
844.484,214.232,18.788
742.004,162.992,188.612
791.048,125.416,198.616
763.476,168.848,221.308
797.636,240.584,121.024
857.416,263.276,104.432
986.736,205.936,81.74
914.756,203.496,196.908
823.256,272.548,200.324
850.584,329.156,161.772
889.624,296.46,190.32
944.28,271.084,190.564
996.74,296.704,191.54
1041.88,276.94,221.796
1010.404,237.9,257.42
955.748,240.096,250.832
1007.232,267.668,257.908
1025.044,291.092,337.696
1036.024,266.692,327.204
990.64,272.304,311.832
974.048,290.848,284.016
884.256,255.712,266.936
944.036,257.664,233.752
1097.268,196.42,184.22
1073.844,197.64,185.684
956.236,190.808,138.836
904.264,228.872,85.4
870.348,191.052,40.016
924.028,159.088,13.908
1010.16,164.7,-17.568
945.744,156.892,-6.1
868.396,129.32,-27.572
800.564,100.284,-77.592
848.632,126.88,-134.932
944.036,173.728,-200.08
875.228,131.028,-218.868
823.744,153.232,-261.08
814.472,129.808,-340.868
840.824,85.156,-385.276
914.024,33.916,-447.008
1020.164,80.52,-523.868
998.204,123.708,-575.352
942.816,166.408,-632.936
964.532,169.092,-703.696
1025.532,155.916,-735.172
1055.056,135.664,-760.792
1073.356,138.836,-721.508
1085.556,136.64,-641.72
1026.02,89.06,-577.06
983.564,33.184,-522.404
983.564,7.076,-453.596
988.932,10.736,-425.78
966.24,2.44,-364.78
959.896,-18.3,-287.676
906.46,-40.26,-210.084
934.52,-54.168,-151.28
905.972,-83.692,-30.5
829.844,-132.492,48.312
831.064,-188.368,68.32
871.08,-155.672,189.832
1053.836,-151.524,273.036
999.424,-164.944,372.1
888.892,-164.7,387.716
888.404,-211.792,387.716
991.372,-190.808,480.68
1000.888,-213.256,510.448
1029.68,-184.22,528.016
969.656,-193.248,520.452
943.548,-191.54,517.768
1070.916,-205.692,493.612
1189.256,-257.176,454.084
1239.52,-243.024,411.872
1152.412,-259.372,364.78
1172.42,-234.972,319.152
1262.7,-241.072,281.576
1302.96,-233.02,228.14
1294.176,-231.556,114.436
1262.7,-279.136,55.388
1200.724,-282.796,69.296
1245.376,-215.452,1.464
1286.856,-174.948,-117.364
1168.76,-177.388,-150.548
1126.304,-185.44,-200.812
1136.064,-201.3,-196.908
1139.968,-212.28,-161.528
1205.604,-226.432,-197.396
1145.824,-230.336,-218.624
1057.984,-244.976,-200.324
1089.46,-208.864,-223.992
1109.468,-158.356,-242.78
1045.296,-154.452,-231.556
1013.82,-178.12,-286.944
1047.736,-213.988,-325.496
1013.332,-185.684,-273.768
994.3,-173.972,-258.396
1037.0,-157.38,-307.196
1051.152,-167.384,-308.66
1052.616,-185.684,-343.552
1038.952,-173.728,-368.196
996.74,-164.7,-395.036
966.24,-145.912,-418.216
927.2,-132.98,-413.58
894.992,-128.1,-419.924
902.068,-117.608,-412.36
916.22,-156.16,-403.576
961.848,-142.496,-380.64
973.56,-104.432,-381.616
916.464,-64.416,-366.976
867.664,-48.068,-373.076
886.452,6.1,-352.824
961.36,89.304,-326.228
1016.504,100.772,-348.188
969.9,56.608,-364.048
900.36,108.092,-290.604
945.012,193.98,-273.28
1046.76,291.824,-297.192
1066.524,379.664,-225.212
935.008,414.068,-207.4
869.86,325.984,-309.148
982.588,372.832,-308.172
901.58,539.484,-235.704
858.636,539.24,-164.212
734.684,665.876,-9.76
958.432,796.904,-132.004
1130.94,972.096,-222.04
721.264,928.176,76.372
576.572,1089.46,192.028
672.708,818.864,-70.028
684.176,392.352,-192.76
577.304,733.464,203.252
627.568,846.436,174.704
400.892,850.34,265.96
358.924,904.752,208.376
417.484,990.884,184.464
431.392,996.984,208.864
284.992,991.616,219.6
211.06,1034.316,169.824
230.58,1015.528,81.984
241.56,1023.092,97.6
251.808,929.64,79.3
250.588,901.336,112.728
145.18,914.512,113.46
142.984,953.308,136.884
128.1,960.384,118.096
57.584,914.756,134.932
92.476,947.696,179.34
105.896,921.832,159.82
64.904,896.212,108.092
88.328,937.692,59.292
46.848,938.424,68.564
6.344,901.58,52.216
39.772,908.656,106.872
68.32,894.26,55.876
54.656,934.276,57.34
87.84,1002.108,15.372
51.484,969.412,23.18
81.252,1022.604,22.692
36.112,989.908,22.204
49.044,964.532,29.28
100.284,1000.4,-48.312
25.62,981.612,32.94
23.424,1012.356,3.904
6.1,960.384,58.804
43.676,935.984,28.06
16.104,940.132,12.688
-0.976,960.872,-0.244
16.348,1011.868,-24.156
2.196,1015.772,-36.844
4.88,1019.432,-24.888
-0.976,968.436,-14.152
0.732,918.416,27.816
33.184,972.34,27.816
59.048,1007.72,-5.368
14.152,996.008,3.904
24.644,997.472,8.052
14.64,983.808,-3.66
15.86,995.52,1.22
19.276,1025.044,-15.86
9.76,1026.508,-31.72
20.252,1001.376,-20.008
28.304,965.508,-19.764
14.884,965.02,33.428
23.912,984.052,10.492
30.012,1003.328,-7.076
13.176,991.128,-12.932
17.812,998.692,-24.4
13.908,980.392,-15.372
17.568,988.688,-2.684
7.32,992.592,-3.172
33.184,1004.548,-19.032
18.788,985.516,0.0
16.348,977.952,6.344
6.588,963.556,8.296
21.472,989.42,-14.396
25.376,999.18,-29.768
10.98,1006.988,-16.348
11.712,1007.476,-14.152
16.592,992.348,-22.204
14.152,991.372,-3.172
3.172,975.512,-12.932
16.836,997.96,-17.568
0.976,994.056,-26.352
12.688,1002.596,-13.664
22.204,1000.4,-35.868
3.172,984.296,-12.688
19.032,1027.728,-34.404
-1.464,1004.06,-29.768
-15.372,979.416,-22.936
2.196,977.708,-28.792
16.592,963.8,-16.592
44.164,1038.708,-23.18
21.228,999.424,-15.616
14.152,977.952,-1.22
18.3,981.612,-30.5
-20.984,968.192,-18.3
-6.1,996.008,-41.48
-1.22,980.88,-45.872
0.488,965.996,-30.256
2.684,1005.524,-54.168
1.464,978.196,-43.676
4.148,1006.744,-33.672
-18.056,980.88,-16.592
25.132,991.128,-12.2
1.952,963.556,-32.696
12.932,980.636,-2.196
0.732,983.564,-0.976
24.888,1006.744,-18.056
8.784,1022.848,-30.012
-15.86,991.616,-24.4
-1.708,995.764,-32.452
-16.348,978.684,-23.18
-19.764,985.516,-31.964
13.664,993.08,-35.136
-12.932,986.98,-24.644
14.152,1004.06,-57.096
-2.44,994.3,-23.18
-4.636,1023.336,-30.988
-11.468,979.416,-28.792
4.636,977.464,-11.224
17.812,979.904,-39.528
13.664,979.416,-10.492
9.516,1008.452,-17.568
16.348,994.3,-21.716
12.932,995.52,-23.912
7.564,993.812,-25.62
7.808,992.592,-29.036
16.348,997.472,-32.94
11.712,989.664,-26.352
-1.952,986.736,-33.916
-0.732,995.276,-31.232
15.372,1013.576,-37.088
26.352,1004.792,-29.768
20.252,994.056,-18.3
16.348,983.564,-20.496
29.768,998.448,-17.812
16.104,1002.108,-23.668
14.396,1003.328,-33.672
26.352,1000.888,-28.548
21.96,1004.304,-24.4
15.372,1014.552,-17.568
15.128,1024.068,-25.376
6.832,1033.584,-23.912
1.708,1075.796,-21.716
-2.196,1118.496,-28.548
32.696,1184.864,-6.588
64.416,1232.2,-19.032
-8.296,1302.472,4.148
-33.428,1283.196,-8.54
-104.188,1267.58,-24.644
-46.116,1231.468,-85.4
5.612,1279.78,-15.128
53.924,1394.216,-22.692
-2.44,1290.76,-31.72
328.912,1235.616,-213.5
396.988,1329.312,-25.132
225.212,1134.112,32.94
160.552,1000.888,111.508
474.092,1060.18,0.732
637.572,997.228,-15.616
312.32,860.344,182.756
344.04,697.352,200.324
378.444,564.86,147.62
393.084,398.208,-80.276
760.304,549.244,-156.648
1183.644,893.772,-197.152
667.584,713.456,-101.504
155.428,493.124,459.452
207.156,225.944,615.612
753.472,81.252,262.3
1196.332,22.692,-53.68
993.08,175.436,88.084
592.188,159.576,252.052
498.248,62.952,443.104
611.708,50.02,486.78
869.616,-81.984,476.532
1018.7,-126.636,419.192
1095.072,-136.396,353.068
869.616,-166.164,366.0
739.32,-126.392,466.04
851.56,-51.728,447.496
977.464,-97.844,438.224
907.68,-86.864,450.668
945.988,-95.648,363.316
997.228,-38.064,323.788
856.44,-13.176,372.1
868.396,7.564,383.568
980.88,-30.744,350.872
983.564,-31.232,360.876
951.6,-11.224,365.268
924.76,3.904,370.636
936.716,10.736,392.84
970.632,-18.3,376.004
966.24,-64.172,352.824
976.488,-73.2,334.524
1019.188,-57.828,279.624
1034.072,-11.956,227.652
955.016,22.692,258.396
890.6,26.108,225.944
891.576,-48.556,127.612
987.224,-80.032,58.316
1023.58,-83.448,78.08
895.236,-60.268,46.604
820.572,-11.712,16.592
826.916,0.732,-43.92
851.072,-50.264,-91.988
939.644,-58.56,-152.988
1001.864,-81.984,-224.968
951.844,-61.488,-286.456
895.724,-34.892,-299.632
930.128,-15.86,-311.344
931.836,-54.412,-319.152
970.144,-85.644,-410.164
1090.68,-88.816,-516.06
1161.44,-34.648,-489.952
1094.584,-20.496,-407.236
1062.864,-29.28,-344.772
1078.48,-54.412,-372.588
1112.884,-65.392,-404.308
1184.376,-103.7,-422.852
1230.492,-104.92,-367.708
1023.092,-130.784,-315.492
826.916,-142.74,-231.068
856.44,-103.944,-229.116
926.468,-91.744,-194.712
1003.084,-123.708,-129.808
978.928,-188.612,-93.94
818.376,-277.672,-0.244
725.168,-255.468,83.448
876.692,-227.164,87.108
1080.676,-267.424,145.424
997.96,-290.604,223.26
788.608,-306.708,236.68
653.676,-314.028,272.792
778.36,-293.044,323.544
1059.204,-355.752,448.228
1012.844,-408.7,538.752
824.232,-459.696,562.42
765.672,-462.868,578.28
1012.6,-387.472,593.164
1158.756,-419.436,599.508
1033.828,-433.344,602.436
1005.768,-464.576,494.832
1113.372,-407.236,423.584
1135.332,-368.44,382.836
1193.648,-390.888,407.968
1099.708,-436.76,449.936
996.252,-472.14,411.14
1120.204,-394.304,320.86
1227.808,-348.676,211.792
1223.416,-323.3,200.08
1078.48,-432.612,254.736
942.084,-464.82,125.904
1028.46,-372.588,55.632
1152.656,-357.46,75.64
1277.584,-385.52,107.848
1071.16,-364.292,-2.44
799.588,-396.012,22.448
802.76,-382.592,-18.3
948.184,-397.232,-118.34
1129.72,-355.996,-222.04
1181.936,-246.196,-321.836
994.788,-258.884,-267.18
1049.444,-174.704,-168.36
1091.9,-203.252,-96.136
1153.388,-164.7,12.444
999.668,-310.124,-156.404
780.556,-361.852,-123.464
959.164,-242.536,-152.5
1168.272,-149.328,-168.604
1206.58,-88.084,-111.02
990.884,-68.076,-283.772
808.86,-9.76,-214.964
935.984,-126.148,-158.844
1080.676,-29.768,-22.204
1200.968,65.636,27.816
1037.732,5.368,-55.876
847.412,49.044,-27.328
903.288,154.696,17.324
1154.608,292.312,-40.26
1380.552,405.284,-87.596
1286.612,372.588,-28.792
1030.9,101.992,51.972
986.736,128.1,111.02
1001.132,374.296,17.08
971.364,349.652,1.22
977.708,307.928,152.012
1063.352,381.86,261.324
1093.852,511.668,234.972
1063.84,539.728,126.148
983.564,597.556,126.88
906.948,556.32,171.288
887.428,515.084,287.676
843.264,499.224,253.028
849.852,625.616,185.928
769.576,655.384,172.508
687.836,575.596,234.484
765.428,611.22,254.98
813.496,696.864,193.004
798.124,762.012,168.604
691.252,783.24,122.244
597.068,736.636,175.924
638.304,725.656,294.752
709.308,915.976,214.232
480.924,922.808,266.204
503.372,920.368,175.68
444.812,876.448,246.44
445.544,838.384,141.032
407.968,954.284,189.832
367.708,976.976,212.524
294.02,944.524,258.64
290.36,969.9,187.636
201.788,915.244,161.528
217.16,897.188,151.036
230.824,902.8,196.908
246.44,901.824,185.196
195.444,925.248,111.508
82.228,925.004,103.456
59.536,900.36,161.772
59.048,885.476,284.016
143.472,931.348,156.892
143.228,930.616,30.256
142.252,921.1,78.324
134.688,933.3,43.188
9.272,882.792,95.16
27.328,844.728,98.088
99.064,874.984,109.556
117.12,914.512,51.728
151.036,991.86,-20.008
105.164,1037.244,12.688
64.172,1046.028,40.748
29.524,1001.376,47.58
94.184,1011.136,19.276
90.524,977.952,16.592
91.744,973.804,44.408
82.472,988.444,22.692
25.132,975.512,32.452
61.976,997.96,-5.124
45.384,998.204,-10.004
47.58,966.972,13.664
56.364,954.772,16.592
60.512,1027.24,-11.956
85.156,1047.736,-14.152
65.392,1020.408,10.248
29.28,965.264,-16.592
46.848,1002.108,-9.516
54.412,1027.24,-49.532
41.48,1006.744,-43.92
18.544,986.248,-6.344
63.44,994.544,-22.204
86.132,998.204,-64.66
71.004,1015.528,-35.38
54.656,1072.624,-58.316
27.328,1064.816,-93.94
73.444,1014.064,-67.1
28.06,940.62,-53.192
51.972,910.364,-53.68
43.92,1042.124,-45.14
13.664,995.032,-66.856
-16.104,959.652,-20.496
-45.872,946.964,19.032
-50.996,909.144,48.068
14.884,995.032,-15.86
-60.512,1028.216,-78.324
-73.2,1016.016,-69.784
21.96,1012.356,-47.824
11.224,971.364,-11.468
4.392,985.76,-54.9
24.4,1036.024,-88.328
-7.808,1059.204,-94.672
-23.668,998.448,-57.828
-3.66,971.608,-30.012
-16.592,951.112,-12.444
-52.948,951.6,-27.328
-15.616,968.924,-46.116
9.76,992.592,-39.284
-21.96,1020.896,-38.552
-3.904,996.984,-64.66
-29.036,1015.528,-8.54
-50.508,996.008,-17.324
-46.604,959.896,-33.428
-42.456,981.124,-36.6
-9.272,1009.916,-56.852
-27.572,1014.796,-32.208
-27.084,994.544,-34.404
-35.624,974.78,-30.256
-18.544,1018.212,-15.372
-19.276,1036.024,-50.996
-43.92,1030.9,-52.46
-31.476,997.716,-14.64
-49.776,935.984,-14.884
-3.172,991.86,-28.06
34.404,1029.68,-55.876
-24.4,1016.504,-30.988
-46.116,980.636,-28.548
-26.84,973.072,-9.272
-9.516,975.268,-26.596
-11.468,1041.148,-30.5
-19.52,1033.584,-35.136
-44.164,979.66,-36.356
-49.776,975.512,-25.62
-26.352,985.272,-45.628
-43.676,1027.24,-47.824
-34.892,1041.636,-57.096
-71.98,1010.16,-64.66
-68.808,971.364,-39.772
-32.452,989.908,-23.18
-32.452,1003.328,-34.16
-30.744,1016.504,-52.216
-53.924,1000.888,-50.752
-68.564,991.128,-30.988
-38.796,1009.184,-32.208
-52.216,998.204,-56.12
-73.932,977.952,-66.124
-66.612,978.196,-40.504
-83.936,956.236,-10.248
-60.512,987.468,-27.328
-14.396,1041.392,-31.476
-2.684,1039.196,-55.144
-44.652,983.808,-40.26
-63.928,950.868,-10.248
-44.164,959.896,-16.348
-44.896,970.144,-6.832
5.124,986.492,-37.82
-27.816,964.288,-3.904
-35.624,938.18,-4.392
-47.092,919.636,1.22
-38.064,965.02,6.344
-11.224,962.336,-30.988
-34.648,927.444,-53.436
-55.876,936.96,-29.524
-40.748,926.712,-6.344
-44.652,916.464,-18.544
-49.044,946.72,-35.38
-48.8,976.732,-88.084
-61.244,956.48,-45.872
-52.216,1008.208,-38.796
-84.668,978.196,-30.5
-80.764,992.592,-41.48
-62.464,998.204,-85.888
-71.736,1019.92,-50.508
-70.516,1044.076,-72.468
-109.068,1038.952,-64.66
-101.26,1060.424,-93.208
-103.456,1111.42,-101.504
-74.42,1151.68,-86.376
-90.036,1199.992,-59.78
-122.0,1247.084,-134.932
-35.624,1248.06,-146.888
46.848,1374.696,-36.112
45.14,1235.616,48.068
114.192,1196.088,-23.424
451.4,1198.528,45.14
676.368,1247.816,-23.18
352.092,1296.86,51.728
191.052,1138.504,29.768
283.04,1039.928,74.42
187.148,946.232,101.26
276.94,769.82,-60.756
707.356,634.888,7.808
885.476,610.0,193.248
667.34,607.56,-57.096
367.22,537.044,6.344
488.976,460.184,161.528
443.104,442.128,134.688
988.688,350.14,-66.856
1321.016,136.396,-47.824
701.988,89.304,60.024
569.252,88.328,275.476
724.436,43.188,126.392
1032.852,-64.66,69.052
1066.036,-91.744,221.552
952.82,-97.356,373.32
813.252,-137.616,476.776
903.288,-113.46,352.336
1052.616,-112.484,336.476
1128.988,-191.052,289.628
923.296,-133.956,355.996
877.668,-63.44,330.864
903.288,-42.456,349.896
983.564,-74.176,402.844
1030.656,-111.264,345.504
986.492,-65.636,309.148
935.252,-48.8,325.984
900.604,-50.02,387.472
1047.248,-69.54,349.408
1148.02,-59.292,326.228
1077.748,-58.804,312.076
976.488,-21.716,271.572
942.084,24.644,287.676
940.132,4.636,309.148
955.992,-26.84,287.676
960.384,-43.92,263.032
957.456,-43.432,244.244
948.184,-10.004,222.772
876.204,-5.856,175.68
838.628,-20.984,166.652
869.372,-47.092,126.392
892.308,-59.048,82.96
975.024,-67.588,-10.736
920.124,-96.38,-32.452
840.58,-74.664,-76.372
815.692,-80.276,-134.2
860.1,-58.316,-182.756
906.704,-66.612,-250.1
974.78,-79.788,-294.508
972.828,-110.044,-335.256
937.936,-68.32,-434.076
948.184,-20.252,-521.916
1006.988,13.42,-560.712
1109.224,8.052,-547.78
1136.064,-38.064,-518.256
1093.608,-101.992,-498.98
1106.54,-82.716,-457.256
1158.512,-51.728,-391.864
1165.588,-84.424,-334.524
1130.208,-115.656,-306.22
1057.496,-121.024,-268.888
1036.268,-127.368,-188.856
991.128,-147.132,-153.476
995.032,-172.752,-137.86
955.748,-177.144,-131.516
830.332,-129.808,-112.24
813.496,-76.86,-117.852
923.54,-114.436,-71.004
1050.176,-216.672,33.428
964.776,-295.972,85.4
752.74,-289.384,139.568
755.424,-196.664,154.696
844.484,-116.388,152.988
997.716,-151.036,209.596
1082.384,-255.224,284.016
957.212,-343.552,295.972
753.96,-339.648,343.308
761.524,-250.832,377.956
980.636,-227.164,376.492
1089.948,-258.152,435.296
1086.044,-318.42,460.916
963.8,-341.6,426.268
907.436,-312.564,436.272
1019.92,-287.188,452.62
1226.1,-311.344,442.616
1207.8,-348.432,425.78
1098.976,-344.528,409.432
1101.172,-324.764,342.82
1171.444,-304.756,345.016
1201.456,-331.84,346.724
1192.184,-355.752,323.544
1136.796,-391.376,275.964
1068.476,-394.304,284.992
1136.796,-376.492,219.6
1133.624,-417.484,150.792
1090.436,-398.696,158.112
1002.596,-445.544,195.932
1002.352,-424.072,137.86
1037.732,-464.82,87.596
1095.072,-446.032,10.98
1009.916,-437.248,-83.448
1035.292,-386.984,-38.796
1112.152,-416.508,-2.684
1196.82,-372.832,7.808
1082.384,-374.052,-77.348
706.624,-472.872,-207.644
769.576,-428.952,-128.832
1022.604,-295.24,-24.888
1124.108,-353.556,-28.792
1237.08,-346.724,-49.532
1003.572,-337.696,-235.216
850.34,-215.696,-351.848
765.916,-213.744,-33.916
724.192,-390.4,172.264
1083.36,-345.016,-29.768
1311.744,-110.776,-251.32
1122.4,3.416,-281.576
797.392,-27.328,-131.516
682.956,-14.396,0.976
839.36,110.044,1.952
1051.396,217.892,-43.92
1187.792,260.104,-64.172
1208.532,233.508,5.856
1139.236,227.652,20.008
1052.372,228.14,71.98
993.324,385.764,174.704
854.0,378.444,132.98
941.108,402.112,68.076
1071.648,371.368,38.552
1106.052,362.096,32.696
988.688,450.912,33.916
842.776,584.624,33.672
793.0,642.208,45.628
808.372,676.612,133.468
843.508,767.868,105.164
812.764,922.808,-22.448
810.568,945.5,-106.384
815.692,979.66,-39.528
831.308,975.268,146.156
820.816,1008.696,45.628
578.28,965.508,-20.984
386.252,880.108,-48.8
318.176,681.492,67.832
471.164,755.424,70.272
572.912,993.568,80.276
415.288,1131.672,233.752
352.58,1027.24,153.964
314.028,897.432,61.244
280.6,853.756,113.704
259.128,893.04,155.184
231.312,915.488,110.044
178.12,914.512,95.648
143.96,883.036,73.932
92.232,951.112,108.58
218.136,1029.436,88.084
192.76,1061.888,141.764
147.132,1018.456,187.392
107.36,963.312,202.276
100.284,913.536,91.5
89.548,922.808,20.008
65.392,915.244,41.48
35.624,860.588,98.82
87.84,886.94,129.32
95.648,946.964,95.16
74.664,1004.06,14.152
0.732,999.668,20.496
-36.844,946.232,48.8
31.476,898.652,53.192
103.456,871.324,16.592
83.936,984.784,-44.896
-56.12,970.632,-40.016
-50.02,1004.304,-21.716
-17.324,1031.876,-70.028
-7.808,967.46,-16.348
44.164,959.408,-46.116
-38.308,976.732,-50.996
-50.752,914.756,7.564
21.716,1022.116,-64.172
-92.72,947.696,-51.728
-32.94,964.288,-20.74
-23.912,940.376,-14.64
-12.444,962.58,-37.82
-55.632,981.124,-42.7
-71.004,1001.864,-55.144
-80.764,985.028,-39.284
-76.372,966.728,-27.084
-30.012,944.28,-11.712
-2.44,995.276,-55.876
-29.036,1016.016,-75.396
-108.58,996.984,-61.0
-50.996,1006.5,-84.668
-26.596,997.96,-42.212
-22.936,1003.816,-53.436
-40.26,1016.992,-72.224
-51.972,1012.356,-89.792
-55.144,973.804,-68.076
-24.4,960.14,-56.852
-40.26,962.58,-47.336
-54.168,1018.456,-81.008
-69.052,999.668,-66.612
-36.356,988.932,-49.532
-14.396,982.832,-33.916
-23.18,1005.524,-55.144
-31.232,1026.996,-64.172
-64.66,1002.84,-42.212
-50.752,984.784,-67.832
-63.196,983.076,-47.824
-66.856,965.508,-60.024
-42.7,967.948,-54.168
-38.796,955.504,-57.584
-51.24,960.872,-29.036
-31.964,976.244,-34.404
-32.208,999.424,-68.076
-60.756,1010.892,-84.424
-77.348,992.348,-92.72
-48.556,996.008,-61.0
-17.08,983.32,-52.46
-20.252,996.252,-54.9
-55.632,1016.016,-72.712
-57.096,1012.112,-85.644
-54.9,1001.376,-73.2
-46.36,998.936,-60.512
-37.332,987.712,-56.12
-33.672,986.248,-79.056
-62.708,967.704,-62.464
-53.68,951.112,-71.004
-54.656,946.476,-82.96
-58.56,966.484,-86.864
-57.34,1003.084,-77.348
-50.752,1001.62,-66.368
-31.232,998.692,-69.052
-47.092,984.54,-65.636
-59.536,988.688,-75.884
-68.808,984.54,-76.616
-41.48,992.836,-92.476
-50.02,979.904,-86.864
-42.7,994.056,-72.224
-49.044,990.884,-66.124
-47.336,982.344,-86.864
-78.568,975.512,-70.028
-48.068,981.368,-82.716
-50.752,988.444,-91.256
-74.42,989.664,-87.596
-72.224,988.444,-89.06
-51.972,974.536,-71.98
-35.868,977.952,-81.008
-64.416,987.956,-81.496
-60.512,1020.652,-92.72
-69.54,1009.428,-93.208
-69.784,998.936,-90.28
-67.832,991.128,-80.764
-67.1,977.708,-70.272
-61.0,986.98,-86.132
-67.1,994.788,-78.568
-70.516,1017.968,-85.888
-73.2,1011.38,-104.92
-76.372,1004.792,-84.18
-71.98,1008.696,-78.08
-63.684,1008.208,-66.368
-59.048,1021.872,-73.932
-78.568,1001.376,-87.108
-69.54,1005.036,-86.864
-68.076,1047.98,-79.3
-78.08,1050.908,-98.088
-89.06,1039.44,-83.204
-81.984,1076.284,-83.936
-61.0,1108.004,-98.576
21.716,1131.672,-98.088
3.66,1084.336,-41.724
9.028,1142.896,-4.148
48.312,1199.504,-23.668
34.648,1196.82,-14.64
41.724,1184.864,-58.316
140.056,1233.908,24.156
265.96,1250.744,114.68
261.324,1244.156,116.144
364.536,1251.72,120.536
271.816,1142.652,149.572
348.92,1037.488,146.644
409.432,989.42,137.86
252.784,937.448,161.528
444.324,984.54,174.704
642.208,1004.548,100.04
595.848,953.796,122.244
649.528,937.204,43.432
738.588,917.44,37.576
794.464,871.08,172.264
896.212,821.792,68.32
735.172,722.728,44.164
606.34,530.456,152.744
448.228,358.192,279.624
584.868,338.672,439.932
798.856,263.032,282.552
1071.648,296.46,99.552
648.796,325.008,136.396
445.544,332.084,464.576
447.74,257.176,476.288
593.896,223.26,439.932
721.02,215.696,412.36
768.356,208.132,380.64
726.388,193.492,354.288
621.956,103.944,455.06
630.496,105.164,470.432
657.336,103.456,501.42
825.94,83.448,504.836
894.504,82.96,469.212
832.284,135.908,458.72
833.748,146.644,438.956
886.452,125.66,386.984
883.524,104.432,361.12
925.004,131.516,344.04
871.08,53.924,335.012
891.332,43.188,329.156
888.648,24.156,275.964
902.8,76.372,221.308
858.148,136.152,174.704
791.536,160.796,140.544
846.68,103.212,97.844
889.868,49.776,45.14
980.148,37.82,-26.596
935.252,71.736,-74.664
882.548,119.56,-91.256
926.956,154.696,-186.416
972.34,131.028,-192.028
973.072,91.744,-216.428
979.66,41.968,-279.624
1069.94,61.0,-319.152
1100.44,106.628,-361.12
1104.1,156.404,-320.616
1136.552,122.732,-309.88
1136.796,73.2,-292.8
1167.54,46.116,-309.88
1166.564,54.168,-297.924
1106.052,75.884,-228.384
1058.472,88.572,-213.012
1087.996,79.788,-252.54
1248.304,-7.564,-290.848
1199.504,-52.704,-204.228
1016.016,-62.952,-154.452
950.136,-60.756,-134.688
996.984,-4.392,-162.748
1010.892,15.86,-168.848
1035.048,-14.884,-103.456
1045.784,-57.34,-115.9
904.996,-95.892,-95.16
841.556,-90.524,-47.336
933.3,-89.792,-31.476
974.292,-107.848,41.236
887.428,-134.444,104.92
848.876,-148.352,120.536
895.236,-152.012,111.996
915.0,-189.588,186.172
951.6,-204.96,265.472
915.488,-230.824,347.7
821.06,-232.532,380.64
842.044,-247.416,375.76
1032.364,-252.052,400.892
1038.708,-330.376,516.792
883.524,-332.084,569.008
864.248,-391.376,583.404
1018.456,-376.004,528.26
1059.692,-373.564,527.528
1088.484,-366.488,498.004
1149.484,-370.148,447.008
1139.48,-364.048,380.64
1146.312,-338.916,322.08
1123.132,-363.072,334.28
1115.08,-361.12,311.588
1149.484,-366.488,245.708
1127.768,-413.58,220.088
1147.044,-375.516,152.744
1100.684,-325.984,35.136
1064.572,-306.464,84.424
1063.84,-332.328,66.124
1111.42,-311.588,22.448
1066.768,-403.82,72.712
998.448,-425.048,71.248
975.756,-428.952,38.064
988.444,-411.872,-75.152
1066.524,-349.164,-161.04
1045.54,-319.396,-171.288
983.564,-332.572,-134.2
964.044,-350.384,-123.22
896.456,-372.1,-222.284
930.86,-306.708,-232.532
1046.272,-255.956,-235.46
1125.572,-252.296,-240.34
1059.448,-252.54,-213.012
783.972,-298.412,-259.86
716.872,-230.58,-373.32
961.604,-141.032,-369.172
1149.24,-115.412,-357.216
1288.808,-20.74,-392.108
1214.144,-46.604,-288.896
906.216,-148.84,-252.784
797.148,-86.132,-277.184
922.32,-117.12,-302.072
1117.032,-20.008,-257.908
1168.272,23.424,-215.208
999.912,7.32,-217.648
877.668,22.204,-188.124
927.2,73.932,-161.04
987.468,173.728,-141.032
1049.932,254.492,-100.04
1046.516,221.796,-92.232
1050.908,151.524,-190.32
1013.82,80.52,-312.808
925.736,154.452,-227.652
936.716,268.644,-298.412
991.128,379.176,-277.428
1171.932,446.764,31.72
1238.056,405.04,90.036
1123.132,399.916,186.66
1055.544,305.0,81.496
934.764,327.204,136.396
864.492,439.688,84.18
837.164,388.936,-41.968
885.476,371.124,-154.208
1011.868,424.56,-30.5
862.052,366.488,355.02
851.316,665.632,227.896
905.24,849.12,53.436
841.068,901.58,70.272
842.532,899.384,71.98
754.204,815.204,48.068
691.496,736.148,11.956
695.156,752.496,5.612
634.4,781.776,73.932
664.9,833.504,108.824
743.712,960.384,166.408
718.824,1119.716,106.14
554.612,1043.588,126.636
332.328,827.16,93.452
356.24,714.432,168.848
535.824,679.052,250.588
432.856,870.592,176.168
244.732,934.032,120.292
242.048,1029.68,125.904
269.376,1081.652,110.288
293.776,1033.096,172.996
270.108,1107.272,145.668
220.332,1028.216,74.176
160.552,940.864,121.268
151.036,925.004,94.184
152.256,836.188,69.784
177.388,899.628,79.788
170.556,896.7,33.916
52.46,962.336,38.552
-3.416,937.692,50.02
-3.416,909.388,44.896
-3.904,889.868,59.048
102.236,935.496,56.12
114.68,955.504,57.34
66.368,969.412,20.008
-7.076,968.436,18.788
-74.908,977.708,12.2
50.02,916.708,20.008
113.704,933.788,63.928
124.928,1010.892,48.312
16.104,1023.58,52.948
0.732,994.544,30.256
-3.66,1003.328,26.108
0.732,973.56,-18.056
-24.644,943.06,4.148
-3.904,947.94,-7.808
17.568,982.832,0.488
0.732,976.488,13.908
-37.576,1013.088,-5.124
-31.232,1005.28,-4.148
12.688,999.18,1.708
6.588,979.172,7.808
-9.76,964.044,13.176
1.708,1016.992,-1.464
-17.324,998.204,-12.932
-10.248,1042.124,-49.288
-23.18,1026.264,-30.012
-26.596,974.536,10.736
4.88,1000.644,-25.62
-66.124,938.424,-28.06
-6.344,970.144,-13.664
4.392,1016.016,-11.956
-69.052,949.16,-17.812
-7.564,1011.868,-6.1
-31.476,1003.084,-9.272
-47.092,963.556,-6.1
-1.952,1007.72,-12.444
-46.116,946.476,-26.84
-38.308,952.088,-31.232
5.368,1013.82,-36.356
-26.352,971.852,-20.252
-21.472,995.52,-19.276
-33.672,986.248,-5.612
-39.772,962.092,10.248
-2.684,999.424,-37.332
-38.796,960.384,-9.272
-20.74,1017.968,-7.32
7.808,1021.628,-28.548
-57.584,968.924,6.1
-51.728,988.2,-9.516
-48.556,945.256,-30.5
-38.796,984.784,-9.272
-46.116,1014.308,-8.052
-23.912,1026.508,-46.36
-36.844,996.008,-6.588
-29.524,989.42,-15.86
-39.284,953.796,-15.616
-43.92,946.964,-9.272
-10.248,1023.824,-4.88
-24.888,994.056,-32.94
-36.844,985.516,-9.272
-31.964,999.424,-27.084
-41.48,958.92,-20.984
-6.832,1040.66,-38.308
-23.912,1010.892,-34.404
-31.964,1000.4,-14.396
-15.86,979.172,-9.272
-14.152,989.176,-14.884
-11.956,994.056,-33.428
-31.964,990.152,-11.956
-14.152,986.248,-16.836
-4.392,968.192,-7.808
10.004,1004.792,-13.664
-1.22,1020.408,-16.592
-4.88,1040.416,-13.42
-3.66,1040.416,-15.128
-12.932,1006.012,-4.636
-16.104,1019.92,16.592
16.836,1022.604,-13.42
-8.296,1002.352,-14.884
-28.06,992.592,-19.764
-30.5,966.728,-7.32
-27.572,963.556,-12.2
-30.256,975.024,-27.328
-37.82,954.772,-18.788
-45.628,953.308,-21.96
-32.208,950.136,-14.152
-33.184,942.328,-17.324
-26.108,971.364,-21.96
-25.132,982.344,-27.084
-28.548,996.74,-13.42
-17.568,1015.528,-14.884
-17.08,1001.376,-9.76
-26.596,986.248,-10.98
-27.572,979.172,1.464
-11.712,983.564,-6.344
-17.08,1018.944,-7.564
-31.72,1011.868,-40.992
-43.188,981.856,-24.644
-35.624,984.052,-19.52
-46.848,970.632,-7.32
-39.284,982.588,-18.788
-30.5,996.496,-16.348
-38.308,983.076,-11.224
-31.232,983.564,-19.032
-36.844,976.976,-0.488
-27.328,1003.572,-25.864
-30.744,987.468,-29.524
-28.06,996.252,-18.788
-28.304,999.668,-6.588
-35.624,974.536,-16.104
-34.648,965.752,-25.62
-20.984,981.368,-27.816
-27.328,994.056,-17.324
-26.596,1007.232,-34.648
-38.796,1003.572,-8.54
-35.38,983.564,-18.3
-43.92,961.36,-19.032
-44.652,973.316,-19.52
-35.868,1001.132,-26.352
-36.6,991.372,-9.516
-2.928,1012.112,-37.576
-55.144,977.708,-4.636
-36.6,992.348,-7.564
-25.376,971.852,-10.736
-36.844,972.096,-4.148
-25.864,1018.456,-34.648
-19.52,987.224,-29.28
-24.644,1013.576,-22.448
-38.552,986.248,-16.104
-31.72,980.88,-23.424
-35.136,979.416,-36.356
-32.696,985.028,-44.652
-36.6,999.18,-34.404
-28.304,1007.232,-24.4
-22.204,1025.044,-19.032
-29.768,992.348,-23.668
-23.668,975.512,-21.96
-1.708,1022.36,-1.952
3.66,1035.78,-30.5
-27.084,1028.216,-33.672
-55.388,978.44,-24.888
-20.496,987.224,-17.08
-26.84,1013.332,11.712
-10.492,1042.856,-18.056
-21.472,1044.076,-0.244
-37.82,1049.688,12.688
1.22,1090.924,-1.22
-15.128,1119.96,28.06
-33.916,1171.444,62.952
-23.18,1250.744,52.704
48.312,1285.88,8.784
64.66,1316.136,92.232
51.728,1327.848,30.256
234.24,1326.384,-37.088
248.636,1348.832,-50.02
287.676,1332.484,-6.832
396.988,1260.992,77.104
292.068,1102.148,110.776
157.624,1043.832,159.088
206.424,1024.068,137.372
269.62,999.912,16.104
381.616,823.988,283.772
730.292,957.7,236.436
571.204,820.328,84.424
414.8,624.884,208.376
456.28,593.896,281.576
411.872,616.832,308.66
529.236,578.28,323.788
1132.404,734.44,242.78
1033.584,626.104,211.304
397.476,402.356,424.316
388.692,346.724,457.012
720.776,301.828,505.812
1171.444,345.504,72.468
978.928,403.332,143.228
626.592,283.284,226.92
602.68,221.552,181.048
573.888,253.028,289.628
938.668,194.224,253.76
944.036,244.488,216.428
824.964,213.256,221.552
640.012,85.888,341.112
631.472,131.272,228.14
875.96,216.184,230.58
961.36,199.836,308.904
861.808,231.312,346.236
843.02,278.16,304.756
915.732,246.196,241.072
891.82,235.216,253.516
909.388,244.0,375.272
946.964,214.476,405.772
941.84,223.26,422.608
936.228,204.472,425.292
920.856,215.208,429.928
932.812,205.204,450.424
906.46,187.392,503.372
967.216,191.296,528.26
975.512,136.884,542.9
915.244,137.372,565.836
950.624,145.912,476.532
904.508,187.636,530.944
869.128,200.324,524.356
841.556,204.472,478.972
894.26,175.436,440.176
859.124,131.272,442.616
889.38,133.712,371.368
886.208,135.42,302.316
863.272,156.892,279.38
870.104,156.648,225.944
958.432,149.084,101.992
896.944,130.296,74.664
874.74,125.172,45.14
891.82,130.784,-20.496
809.348,120.048,-0.244
883.036,113.704,-100.528
1007.232,149.816,-265.96
896.456,126.392,-289.872
917.684,156.404,-288.652
986.004,150.792,-328.912
1025.532,148.108,-350.14
992.104,124.684,-369.904
993.812,131.028,-421.876
979.66,123.22,-410.896
1009.916,140.544,-404.064
1043.1,120.292,-393.572
1063.108,100.284,-381.86
1053.104,89.304,-409.92
1018.944,100.528,-409.92
1074.82,116.876,-380.884
1096.292,121.268,-411.384
1128.5,101.748,-399.184
1119.96,34.16,-354.044
1073.112,-1.22,-299.388
1036.512,-18.788,-257.908
1015.772,-17.568,-227.652
1055.3,0.732,-282.796
1063.596,-11.468,-288.896
1014.552,-47.824,-210.328
1005.28,-58.316,-166.896
963.556,-62.708,-132.492
915.488,-56.364,-108.58
973.804,-44.408,-115.656
1046.272,-88.816,-61.244
959.652,-137.372,42.944
932.812,-167.872,114.924
873.032,-197.396,150.06
973.56,-190.32,175.924
1019.188,-168.848,222.772
941.108,-134.2,287.188
915.732,-119.316,278.892
945.012,-146.156,270.596
932.324,-183.244,313.052
890.6,-198.616,377.468
887.672,-215.208,375.028
939.156,-196.664,371.368
994.544,-216.916,381.128
964.288,-252.296,435.784
976.488,-264.008,425.048
990.396,-295.24,409.92
944.524,-305.244,400.16
994.056,-257.42,334.768
1064.084,-287.676,329.888
1063.596,-287.92,294.996
1059.692,-273.768,268.156
1082.872,-290.116,266.204
1067.256,-315.248,294.996
1029.68,-331.596,294.508
1050.176,-345.016,225.7
1055.3,-405.04,204.472
1042.368,-384.788,132.004
1079.456,-381.372,120.78
1088.728,-414.068,135.908
1073.356,-403.332,79.3
996.984,-383.812,40.016
1026.264,-315.98,-27.816
1039.684,-291.58,-47.58
1063.84,-296.948,-43.676
1050.664,-325.008,-65.636
1042.856,-322.08,-117.852
1101.904,-286.212,-269.376
1058.96,-250.344,-244.0
1010.404,-259.372,-184.708
1019.92,-316.224,-230.58
966.972,-288.408,-226.676
975.268,-274.744,-313.296
1017.724,-240.584,-278.16
1104.344,-254.248,-285.968
1029.192,-289.628,-294.996
987.712,-287.676,-329.644
1047.004,-219.6,-361.12
1020.164,-189.1,-326.228
998.692,-191.54,-241.072
1010.404,-196.664,-300.12
1069.696,-204.716,-372.344
1092.632,-167.872,-374.052
1012.844,-134.688,-409.92
951.6,-81.74,-342.576
922.564,-67.832,-250.1
1023.824,-23.668,151.524
1137.528,6.832,107.36
1117.032,49.288,-68.076
1014.796,-95.648,-27.328
971.852,145.668,40.504
977.708,233.508,-82.96
875.472,136.884,-67.1
837.408,86.864,8.784
1098.0,247.904,182.512
933.788,438.468,196.664
981.612,625.128,-4.148
1015.284,805.2,142.008
963.068,730.292,90.524
1032.12,608.78,22.204
904.508,569.496,123.464
843.264,524.112,101.992
806.176,573.4,43.188
731.268,552.172,140.544
710.772,554.856,302.316
917.196,759.084,286.7
1003.816,940.62,68.32
776.408,904.996,0.732
691.252,834.724,5.856
769.088,665.632,135.908
640.256,720.288,255.224
650.016,892.796,124.928
640.988,962.58,35.624
511.18,830.088,63.684
498.736,791.78,154.452
530.456,862.54,108.58
480.192,966.972,62.464
420.656,1083.36,52.216
399.428,1118.252,125.66
444.324,958.92,260.104
474.824,953.308,278.16
470.676,1039.44,255.956
305.976,931.348,232.288
209.84,836.676,190.32
294.752,741.272,74.908
254.248,864.004,185.44
210.328,967.704,130.296
136.884,1078.48,134.2
95.16,1071.16,183.488
160.064,1039.928,240.096
147.376,970.144,188.368
113.704,901.336,117.852
106.872,924.516,83.448
102.236,871.568,40.26
42.212,857.904,99.308
42.456,873.276,93.94
81.74,933.3,41.48
87.596,1010.648,-19.764
35.868,958.188,-22.936
57.096,884.5,19.764
119.56,811.056,60.024
164.456,934.764,24.644
46.848,1000.644,-38.308
-25.132,988.688,-67.832
27.816,959.408,-43.676
50.996,953.308,-8.296
71.98,989.908,11.224
105.896,995.52,0.488
81.496,1007.964,13.42
41.236,979.904,13.908
7.808,960.14,-5.368
26.596,961.36,0.244
16.348,910.852,9.028
5.368,1022.36,16.836
93.696,1109.224,-63.196
24.4,1057.74,-13.176
27.816,1071.892,-18.544
11.224,1004.304,-2.196
-9.028,993.812,-12.688
33.428,971.12,-19.276
-16.592,944.28,-11.468
36.112,981.856,-26.108
16.836,982.344,-32.94
33.428,1007.476,-15.372
43.676,999.424,-6.344
39.04,971.364,-10.004
32.94,972.584,-14.64
12.688,980.148,-19.276
40.504,967.948,-11.468
79.3,1014.796,-39.528
55.632,989.664,-21.96
20.252,976.732,-18.788
32.696,981.856,-22.692
27.328,963.556,-42.944
13.42,1013.82,-53.192
11.224,973.56,-51.484
7.808,965.996,-17.324
21.716,971.12,-10.492
30.256,1002.352,-32.94
35.38,1002.352,-26.84
34.648,987.712,-16.836
29.28,973.804,4.392
48.556,975.268,-24.888
36.6,998.204,-10.248
24.888,1027.972,-45.14
18.056,981.368,-41.236
25.376,989.908,-2.44
31.964,972.34,-40.504
40.26,1003.328,-26.84
27.084,1011.38,-40.504
11.956,991.128,-32.208
26.596,981.124,-16.348
14.64,988.932,-30.012
23.912,985.516,-27.328
36.356,1004.548,-24.644
21.472,984.296,-25.62
31.476,997.96,-24.888
29.28,1012.112,-28.792
17.812,991.372,-20.74
37.82,1033.584,-37.332
26.84,1001.376,-19.764
12.932,983.32,-0.488
42.944,968.192,-26.596
22.936,956.236,-10.736
22.204,989.664,-38.308
18.788,968.68,-30.256
40.992,1004.06,-40.992
28.304,982.832,-19.52
19.764,973.316,-16.348
40.748,988.688,-53.924
28.548,974.292,-40.992
30.988,1020.896,-44.896
22.936,989.664,-33.428
51.24,1021.384,-36.112
29.768,1009.672,-20.496
9.76,980.392,-17.08
24.888,970.388,-35.38
25.132,961.604,-23.424
9.272,985.516,-34.648
25.132,989.176,-28.548
48.8,1002.596,-34.404
37.088,1006.5,-33.916
30.5,1001.376,-14.64
42.944,1017.48,-16.836
25.62,981.368,-23.668
29.524,1006.5,-54.412
22.448,994.544,-39.284
38.796,1005.768,-31.72
26.84,979.416,-29.524
31.964,976.244,-28.304
29.768,966.24,-48.8
27.816,982.588,-27.572
33.428,1000.888,-26.84
39.528,988.2,-26.352
39.772,987.956,-21.96
39.528,986.98,-21.96
44.652,993.812,-28.06
46.116,1009.184,-39.284
36.844,1003.572,-28.304
29.28,1003.816,-29.036
25.62,992.348,-33.428
34.404,1006.5,-36.6
28.792,1013.088,-39.04
30.256,1007.964,-35.868
33.916,1003.572,-24.888
33.672,998.692,-19.032
33.184,982.1,-24.888
31.72,997.472,-33.428
26.352,995.032,-36.6
43.676,998.936,-23.668
42.7,979.416,-22.448
36.844,986.98,-27.816
29.768,993.08,-37.088
30.988,983.808,-36.356
25.376,983.808,-33.184
26.352,986.736,-32.208
21.96,986.98,-44.164
32.452,995.52,-39.772
20.496,1004.304,-33.916
26.352,1004.304,-25.864
30.5,1021.628,-26.84
36.112,1018.456,-36.112
21.228,995.032,-24.156
13.176,979.172,-13.176
20.74,981.124,-19.764
25.864,1010.892,-28.792
24.644,1032.12,-40.016
14.396,1014.308,-39.04
8.54,994.056,-35.624
-0.976,978.684,-30.5
16.592,997.716,-28.548
24.644,1022.604,-26.84
14.396,1029.192,-35.136
11.468,1039.44,-56.852
-2.928,1048.468,-49.044
3.416,1027.24,-37.088
35.136,1042.124,-27.572
14.396,1104.1,10.004
11.956,1140.212,-8.052
17.812,1083.116,-3.66
73.2,1121.668,44.164
19.764,1225.124,-39.772
74.908,1306.376,-26.352
129.076,1198.284,50.508
123.22,1175.348,105.164
