acc_x[mg],acc_y[mg],acc_z[mg]
-97.6,980.392,46.848
-97.356,1000.888,50.996
-92.476,1029.924,64.904
-82.228,1041.392,68.076
-87.352,1024.556,73.444
-109.312,1006.012,89.548
-142.252,999.18,113.948
-150.06,1000.4,135.908
-134.2,994.056,156.892
-96.624,985.028,169.336
-62.22,974.292,185.684
-40.504,957.212,182.756
-42.944,942.328,186.66
-52.46,939.4,181.292
-74.42,939.4,181.78
-95.892,945.5,174.704
-110.288,955.504,183.976
-108.824,965.996,193.492
-95.404,978.684,189.832
-77.836,986.248,193.736
-49.532,995.032,204.228
-39.04,994.3,219.6
-35.136,997.472,226.432
-41.236,998.936,238.876
-48.312,995.276,239.852
-52.948,984.052,235.948
-61.732,971.608,233.264
-82.716,964.288,239.852
-102.724,963.556,233.752
-134.2,968.68,223.748
-169.58,982.344,222.772
-147.376,1014.552,214.964
-38.308,998.204,155.672
7.808,926.712,119.804
-3.172,854.976,108.336
-72.224,816.912,139.568
-162.26,829.112,180.804
-239.12,882.304,216.184
-277.672,954.284,235.948
-195.2,1028.704,209.108
-71.004,1052.372,137.128
-21.96,1019.92,84.912
-37.332,993.08,52.704
-125.416,1004.06,64.172
-213.988,1021.384,86.132
-304.756,1031.388,112.484
-323.056,1036.512,118.096
-288.164,1025.776,102.48
-226.92,1018.456,72.468
-184.464,1011.624,61.244
-162.26,1005.036,53.192
-159.576,991.128,68.564
-192.272,966.24,94.184
-256.932,960.384,150.304
-250.588,970.388,162.992
-187.392,976.976,129.32
-75.64,981.124,62.952
5.124,949.648,14.152
6.344,904.02,-20.008
-66.856,887.916,-3.904
-164.212,893.284,35.624
-241.072,911.828,59.78
-267.424,941.84,71.004
-220.088,969.656,51.728
-152.988,976.0,36.844
-111.752,966.728,25.376
-118.828,955.992,32.208
-157.868,951.844,60.024
-211.06,948.916,73.688
-249.856,955.26,90.28
-251.564,970.632,87.84
-229.848,987.468,76.86
-194.956,999.668,70.516
-168.848,1005.28,66.368
-154.94,1004.06,76.128
-176.9,992.592,94.428
-201.056,976.732,111.508
-221.064,964.776,118.828
-230.336,952.576,118.828
-227.652,945.5,108.092
-214.72,946.476,94.428
-212.524,947.208,92.232
-207.4,954.284,92.964
-212.768,956.48,101.26
-217.16,954.528,101.26
-214.72,956.48,100.528
-202.276,960.384,91.744
-194.956,962.58,80.764
-195.932,962.824,76.372
-209.596,966.728,77.836
-224.236,974.536,85.156
-232.044,970.632,84.424
-244.488,971.852,82.716
-253.516,981.368,84.424
-264.252,1000.156,86.62
-282.064,1016.26,100.528
-300.852,1035.536,102.968
-306.22,1051.884,104.676
-304.024,1059.692,113.46
-302.316,1053.104,109.312
-305.0,1048.712,102.724
-304.024,1042.856,102.48
-306.22,1016.992,97.6
-328.912,974.78,102.236
-366.244,927.2,105.896
-429.196,873.52,109.068
-532.652,815.204,111.752
-572.18,752.496,111.996
-675.148,664.656,128.1
-730.048,583.404,129.808
-682.712,517.036,107.604
-746.396,450.668,135.42
-776.164,409.432,135.42
-663.436,406.504,117.852
-585.112,405.284,128.1
-564.86,426.512,144.692
-391.62,441.396,143.228
131.76,450.424,-32.696
642.94,475.8,-205.936
1200.724,535.092,-169.092
1542.568,443.348,-27.084
1818.532,255.956,-107.36
1765.096,384.788,-20.74
1448.628,569.74,-12.444
1297.836,727.12,-84.668
1110.444,785.192,-90.768
996.984,785.68,-97.6
931.348,748.104,-118.096
858.88,700.28,-52.216
826.916,647.576,-20.496
788.364,624.64,8.784
722.728,609.024,40.992
649.772,592.188,49.044
593.408,564.616,50.02
540.704,532.896,37.82
496.052,490.928,35.868
478.24,418.46,38.308
437.98,329.644,73.932
388.204,242.292,110.288
333.548,162.748,155.184
299.144,84.668,172.264
284.748,13.176,152.988
315.492,-49.532,105.652
405.04,-121.268,61.976
602.68,-197.396,-26.596
735.904,-261.324,-97.112
918.904,-283.772,-227.164
1131.672,-290.116,-361.12
1390.312,-312.32,-376.004
1561.356,-349.896,-381.616
1689.944,-369.172,-363.56
1828.048,-392.108,-335.256
1876.36,-393.572,-240.096
1900.516,-365.512,-166.652
1857.084,-318.908,-81.496
1766.072,-270.84,36.844
1706.048,-215.696,135.908
1664.812,-160.552,259.616
1635.776,-88.084,366.732
1618.94,-18.3,454.084
1664.324,25.132,496.052
1705.56,39.772,521.184
1765.096,14.152,539.728
1818.776,-60.756,568.032
1826.584,-147.864,584.624
1777.784,-220.576,583.892
1699.216,-281.088,551.44
1626.992,-321.348,500.444
1570.628,-338.184,405.772
1517.68,-334.524,300.608
1399.584,-344.284,231.556
1270.996,-352.824,188.368
1157.292,-361.852,152.744
1001.132,-353.8,124.196
843.996,-326.228,72.956
672.952,-282.308,40.26
515.816,-228.384,4.148
357.46,-168.848,-17.812
230.58,-110.776,-36.6
154.696,-51.728,-66.368
91.256,9.516,-67.832
56.608,79.544,-78.812
113.948,146.888,-86.62
203.252,210.572,-82.716
325.984,291.824,-72.956
470.432,382.104,-78.08
599.264,455.06,-43.188
732.244,508.496,-0.732
850.584,541.924,46.36
937.692,566.08,84.18
1031.632,581.696,119.316
1120.204,585.356,146.156
1224.148,576.328,157.624
1299.056,561.444,182.024
1316.624,542.656,204.716
1335.656,515.572,227.408
1358.348,473.36,267.668
1287.588,400.404,303.536
1223.416,390.156,320.128
1163.88,365.268,323.544
1122.644,346.724,309.636
1095.316,326.96,280.6
1015.528,339.892,224.968
874.008,341.356,157.868
742.248,349.896,101.992
601.948,322.324,71.98
416.508,328.424,129.564
328.18,335.256,161.284
185.928,317.2,141.52
-51.24,338.672,213.988
-126.148,418.46,287.188
-44.164,518.744,308.904
-128.1,627.08,326.716
-396.012,773.48,371.612
-573.888,904.508,280.112
-676.856,1031.144,190.076
-725.9,1166.076,107.604
-698.816,1267.824,-10.004
-652.212,1330.532,-87.108
-612.684,1330.532,-125.904
-582.672,1289.052,-170.556
-536.312,1251.476,-189.588
-439.932,1214.876,-161.772
-331.108,1159.732,-104.432
-247.172,1112.64,-48.8
-213.012,1073.356,25.62
-189.832,1019.188,100.04
-179.584,962.092,153.964
-181.78,901.336,194.956
-193.492,847.412,212.768
-181.292,827.648,188.612
-198.616,840.58,186.66
-163.968,878.644,140.544
-145.668,937.204,94.916
-126.636,981.856,86.62
-115.412,991.128,77.348
-128.344,982.344,87.108
-131.516,968.68,100.772
-125.416,978.196,110.044
-124.44,979.416,102.968
-119.072,978.196,106.14
-131.76,980.636,112.484
-121.024,996.496,117.608
-119.804,993.812,123.952
-129.076,977.464,133.956
-130.54,972.584,134.444
-137.128,960.872,131.028
-144.692,951.844,133.956
-146.644,949.648,126.88
-140.788,965.508,126.392
-119.804,975.756,113.216
-110.044,984.296,109.312
-115.9,984.784,114.436
-121.024,988.688,106.872
-148.596,976.732,114.192
-145.668,974.78,108.824
-136.884,980.148,106.872
-114.924,989.42,105.896
-109.068,988.2,106.872
-94.428,981.612,112.24
-108.336,976.488,120.048
-132.004,964.532,127.368
-133.224,971.608,115.168
-132.98,977.464,109.312
-116.632,980.148,99.064
-118.34,979.66,97.356
-108.58,979.416,95.404
-117.364,980.636,112.24
-117.12,972.584,108.58
-133.224,976.0,115.168
-130.54,974.048,114.192
-124.684,975.268,109.556
-111.02,979.172,103.456
-119.316,980.148,109.556
-110.776,985.76,110.288
-119.072,978.684,111.02
-116.632,972.584,112.972
-118.34,973.072,113.216
-115.168,972.584,107.36
-115.656,971.364,101.992
-115.9,971.852,105.164
-114.68,971.852,106.384
-121.268,966.24,110.532
-130.052,960.384,114.924
-128.344,955.992,114.924
-125.904,959.408,109.312
-121.268,958.432,98.82
-115.168,964.776,90.28
-111.752,972.34,89.06
-112.972,979.904,89.304
-111.752,983.32,90.28
-117.364,982.1,89.304
-115.412,982.832,86.864
-121.268,988.2,85.4
-125.904,998.936,76.86
-133.224,1010.648,76.128
-141.764,1024.312,82.228
-155.428,1042.856,93.94
-164.944,1058.716,101.992
-163.968,1065.548,100.04
-172.752,1060.18,106.384
-188.856,1046.516,110.044
-213.5,1047.248,127.856
-231.312,1048.712,133.468
-251.564,1047.98,138.836
-255.224,1039.196,137.616
-263.52,1022.604,118.584
-248.392,1022.848,89.06
-275.476,1014.552,105.408
-293.044,994.3,106.384
-317.2,965.508,120.78
-354.532,915.732,150.304
-391.864,865.468,167.628
-369.416,844.728,156.648
-328.424,799.832,109.068
-363.072,770.064,104.92
-370.88,723.948,97.6
-439.2,648.308,96.38
-564.86,578.036,123.22
-656.604,520.208,137.616
-652.7,496.296,130.052
-683.688,494.588,101.016
-769.088,477.996,81.496
-697.108,434.564,78.568
-524.6,349.408,20.74
-279.136,266.936,21.472
230.336,169.092,-51.728
1037.244,72.712,-286.212
1559.892,-17.324,-424.316
1737.768,-188.612,-39.284
2296.284,-263.032,-146.888
2063.752,33.916,-137.372
1835.368,370.636,-51.24
1495.72,521.428,-91.988
1261.968,599.02,-66.612
1240.252,619.516,-133.224
1183.156,590.968,-133.224
1097.756,565.836,-121.756
1089.216,556.076,-141.52
1014.308,548.756,-94.672
941.108,534.116,-71.248
874.252,519.72,-45.14
818.132,502.884,-37.332
781.288,487.268,-50.996
730.048,468.48,-56.12
680.76,444.324,-51.728
645.38,411.14,-52.704
608.536,380.396,-39.528
583.892,342.332,-17.324
522.404,280.112,15.86
471.652,209.108,44.408
395.28,132.736,79.788
338.428,36.112,100.772
323.3,-88.328,113.46
363.804,-195.932,87.596
447.496,-264.984,-34.892
575.84,-277.428,-221.552
811.3,-281.332,-399.672
1065.792,-293.288,-522.648
1286.612,-343.308,-511.912
1504.748,-426.024,-428.22
1605.032,-475.8,-340.624
1655.296,-467.016,-238.632
1645.292,-400.404,-153.72
1592.344,-321.104,-74.176
1597.956,-265.716,19.032
1535.492,-216.428,184.22
1537.688,-164.456,279.624
1541.104,-116.388,384.788
1549.156,-48.556,458.72
1533.784,8.296,520.696
1552.328,40.748,555.344
1602.104,31.964,592.188
1711.66,-10.736,586.088
1774.612,-66.124,583.648
1827.072,-125.416,556.076
1860.744,-165.92,501.908
1857.572,-222.04,443.836
1814.384,-279.868,376.736
1735.816,-325.496,325.008
1645.536,-367.22,289.384
1554.524,-404.308,246.684
1427.888,-428.708,223.016
1297.836,-410.408,185.44
1151.192,-393.816,138.592
980.88,-359.168,103.212
819.108,-309.392,77.592
627.812,-245.708,36.844
447.74,-170.312,9.028
276.94,-86.62,-9.516
137.372,-14.884,-29.036
26.84,56.364,-27.328
-27.084,129.808,-54.412
-29.768,202.764,-61.244
16.592,269.376,-66.124
95.892,321.592,-64.172
219.844,372.344,-37.088
369.172,428.952,1.952
518.012,488.488,26.108
643.428,539.972,56.608
755.668,584.624,101.26
827.404,612.44,147.376
932.568,633.668,178.364
1029.192,636.596,195.444
1120.936,628.788,219.844
1201.7,615.368,236.192
1196.82,595.604,271.328
1113.372,562.42,316.956
1114.348,582.672,320.616
1132.404,558.76,286.212
1150.704,557.052,279.868
1123.62,546.072,256.444
1013.332,543.388,250.344
922.808,538.996,246.928
842.288,553.148,228.872
815.204,568.032,158.356
778.848,574.864,102.724
839.848,573.4,44.164
779.58,526.796,43.676
610.488,516.548,141.52
500.2,516.06,149.572
367.708,512.4,122.732
140.544,503.616,154.452
-68.808,528.992,172.02
-272.548,555.588,112.972
-513.864,637.816,96.624
-719.8,770.064,117.852
-752.496,920.856,75.152
-778.36,978.196,21.96
-904.996,1027.24,17.812
-917.196,1016.992,-48.8
-914.268,1009.916,-79.788
-844.972,994.056,-77.592
-743.712,988.688,-62.952
-618.296,994.544,-42.456
-471.652,1026.996,9.272
-326.228,1042.856,57.34
-274.256,1034.56,137.372
-228.628,1006.256,206.912
-228.628,961.848,273.28
-225.944,911.096,289.14
-232.288,867.908,287.432
-225.212,851.804,239.852
-238.388,869.128,195.932
-259.616,887.672,146.156
-288.164,907.436,104.188
-299.388,945.012,78.568
-283.284,959.164,42.212
-291.58,956.968,34.892
-279.868,947.452,44.408
-277.184,928.42,59.536
-284.016,915.732,64.172
-318.176,917.684,83.936
-318.42,939.888,91.012
-324.52,944.28,90.524
-303.78,965.752,95.16
-253.028,965.264,67.832
-245.22,980.636,86.864
-219.112,969.656,81.496
-239.12,958.676,91.988
-259.616,938.912,103.456
-285.724,932.812,108.824
-292.312,925.248,104.92
-290.848,921.344,94.428
-276.94,925.248,86.376
-259.616,942.572,77.348
-254.492,957.7,74.42
-254.492,957.944,73.932
-262.544,951.6,75.396
-273.28,957.212,87.84
-282.308,955.26,93.208
-294.508,952.332,98.576
-288.652,948.672,96.136
-276.696,940.62,91.744
-256.444,939.156,82.96
-245.22,944.768,81.008
-252.54,943.06,82.96
-273.036,950.136,92.232
-274.744,955.26,91.256
-277.672,958.432,93.696
-261.812,950.38,85.644
-250.588,941.84,87.352
-248.88,937.204,89.304
-253.76,933.788,85.888
-276.94,934.764,93.696
-287.676,938.424,95.648
-287.432,942.084,93.94
-274.012,940.132,85.156
-263.032,935.496,81.496
-245.22,935.496,71.004
-250.832,940.864,74.176
-261.812,948.184,77.104
-272.548,947.696,79.3
-279.136,946.232,82.472
-275.232,941.84,78.324
-275.232,943.548,80.276
-271.084,949.648,79.788
-268.4,953.308,82.472
-267.424,953.064,80.032
-271.084,948.184,71.492
-281.82,948.672,71.248
-277.428,952.576,64.904
-283.284,953.796,68.32
-279.136,949.892,68.076
-273.036,950.868,61.976
-267.424,946.964,61.976
-272.304,938.18,68.076
-278.648,940.132,76.86
-287.92,942.328,83.204
-291.58,944.768,85.888
-286.456,944.28,81.008
-280.6,943.06,70.516
-276.452,943.792,61.488
-286.7,946.964,63.196
-294.02,953.796,65.392
-301.828,961.116,66.856
-303.78,959.408,73.688
-301.828,956.968,75.396
-302.804,954.284,75.64
-309.636,956.968,78.324
-314.76,957.944,83.448
-325.008,953.064,84.912
-332.328,947.452,89.792
-348.92,940.864,98.82
-363.316,947.208,101.992
-374.052,955.016,99.796
-382.592,957.212,92.72
-390.888,961.604,78.324
-414.8,963.068,70.516
-441.64,958.188,63.684
-484.34,948.672,71.004
-517.036,933.3,76.128
-551.44,937.692,84.424
-572.424,954.528,86.376
-593.652,949.404,67.588
-617.076,919.148,56.364
-637.084,869.128,35.624
-657.58,812.276,37.332
-716.14,728.828,47.092
-846.924,656.848,67.344
-838.872,616.344,103.7
-841.068,552.66,112.484
-888.404,512.4,120.292
-816.424,491.172,116.876
-718.824,485.316,136.884
-668.072,432.368,140.788
-500.444,399.428,117.12
-110.288,332.816,21.96
444.324,305.732,-184.708
940.376,305.488,-368.684
1198.284,306.708,-256.932
1420.568,108.092,-77.104
1457.656,213.5,104.92
1434.476,271.328,132.98
1362.496,386.496,147.376
1267.824,476.288,82.228
1182.424,554.124,59.78
1095.072,611.952,13.664
1040.416,635.864,-14.884
1042.856,632.692,9.272
1019.676,628.544,6.588
994.544,636.596,19.764
931.348,645.868,22.204
880.108,636.108,17.812
870.592,616.588,7.076
843.996,596.824,10.492
800.32,578.036,8.052
763.476,555.832,8.052
717.848,540.46,15.128
665.876,516.06,13.664
596.092,490.928,27.816
538.02,455.06,34.16
472.384,408.212,45.384
395.524,358.192,65.392
305.0,294.996,86.62
245.952,219.112,78.812
207.888,125.66,56.852
202.032,16.836,71.98
220.82,-117.852,114.192
297.192,-230.092,120.292
367.22,-291.58,93.696
525.82,-331.596,25.132
850.584,-358.436,-63.196
1204.628,-367.952,-170.556
1531.344,-352.092,-297.68
1793.644,-351.116,-347.944
1948.096,-365.756,-368.196
1981.036,-353.556,-339.16
1968.104,-340.624,-323.3
1817.8,-310.124,-223.748
1705.56,-274.744,-175.436
1531.588,-234.24,-92.476
1452.776,-209.596,-4.88
1385.188,-168.848,100.04
1372.5,-108.58,199.836
1392.508,-42.944,284.748
1430.084,12.2,364.048
1500.844,34.892,398.452
1605.52,8.784,438.224
1737.524,-71.492,472.14
1878.556,-188.124,536.068
1935.164,-265.716,557.784
1874.408,-285.724,558.272
1791.448,-294.264,516.06
1714.832,-279.136,435.54
1650.66,-288.408,357.46
1612.108,-333.06,325.496
1503.528,-364.536,326.716
1340.78,-385.764,327.204
1187.06,-361.12,307.196
1032.364,-318.664,260.836
856.928,-249.856,190.564
694.18,-180.804,133.956
554.124,-109.556,94.428
449.448,-63.196,64.172
345.016,-10.492,44.896
240.584,40.26,27.816
181.536,109.068,9.76
182.756,181.78,-8.784
173.728,250.344,-24.156
221.796,326.228,-44.896
281.088,383.568,-44.652
368.928,425.048,-46.848
475.556,456.28,-3.904
559.492,486.048,32.696
644.16,518.744,55.632
700.768,560.468,70.516
793.976,599.02,47.336
834.236,621.956,65.88
873.276,631.228,108.092
948.184,610.976,162.016
1026.02,586.088,205.448
1053.836,571.692,271.816
1122.156,554.124,277.184
1114.348,549.488,284.504
1100.44,537.288,280.844
1034.072,548.512,289.628
964.776,560.956,267.668
914.512,569.008,255.468
858.148,594.384,253.272
825.94,597.312,229.604
774.7,591.212,192.76
699.792,562.42,136.884
634.644,539.728,100.528
480.436,506.544,197.64
402.6,495.32,202.764
293.776,476.288,129.564
30.744,516.304,134.932
-241.316,601.46,129.076
-396.256,670.024,111.508
-596.092,762.256,137.372
-797.636,827.404,140.056
-986.98,857.172,129.564
-1095.072,840.58,107.604
-1123.376,791.536,45.872
-1078.48,741.028,-61.488
-1078.48,724.192,-148.108
-1045.784,719.068,-201.544
-981.612,757.132,-169.824
-902.8,830.576,-117.608
-779.824,880.596,-63.44
-635.864,899.14,32.208
-518.256,876.936,76.372
-504.348,831.796,144.448
-480.436,805.444,190.076
-457.256,774.212,178.364
-454.572,769.332,130.54
-529.48,782.508,147.864
-566.568,794.708,137.372
-477.996,816.668,112.24
-468.724,787.388,111.508
-595.604,820.084,121.756
-550.464,808.616,97.844
-525.088,827.16,81.252
-509.472,856.196,82.228
-475.556,857.904,99.064
-479.704,846.68,111.264
-486.292,840.824,109.556
-508.252,844.484,105.164
-525.576,857.172,113.46
-515.328,841.8,111.264
-494.344,820.572,101.504
-501.908,796.172,128.588
-495.808,790.804,122.976
-493.612,793.244,105.896
-531.92,825.696,106.872
-507.764,836.432,92.72
-479.46,854.976,91.012
-462.136,857.66,76.128
-501.176,856.196,87.84
-524.844,840.092,77.836
-556.32,838.628,100.04
-566.812,836.188,94.672
-528.016,841.556,71.248
-473.604,859.612,53.192
-437.98,876.204,55.632
-418.216,883.768,57.828
-437.98,892.064,75.64
-472.628,870.836,93.94
-511.424,850.584,112.484
-511.424,839.604,107.36
-485.316,834.236,81.008
-457.256,842.532,62.22
-436.76,865.712,62.952
-439.444,872.544,77.104
-456.768,873.032,104.188
-471.164,862.784,122.244
-472.628,847.656,116.388
-474.336,839.116,100.772
-472.14,840.336,85.4
-460.916,858.636,74.664
-450.424,879.376,83.936
-432.124,890.6,92.72
-447.74,890.112,113.704
-453.596,873.764,115.656
-466.772,857.66,100.772
-469.212,861.564,90.768
-464.576,878.4,83.692
-460.916,885.232,82.472
-472.14,882.548,86.132
-484.584,871.568,91.012
-492.392,857.66,95.892
-496.296,855.22,97.112
-489.708,869.616,104.432
-488.488,878.644,114.192
-465.308,886.696,97.112
-453.352,893.772,93.696
-452.376,904.996,99.308
-452.62,918.66,115.9
-464.332,908.9,118.828
-484.828,892.552,130.784
-494.588,889.38,133.468
-497.028,891.088,124.44
-496.784,898.164,118.828
-500.2,898.652,107.36
-523.624,882.304,109.312
-552.416,856.44,121.024
-586.576,829.112,128.832
-620.004,793.732,136.64
-657.336,741.516,147.864
-684.664,680.76,153.72
-715.896,623.42,166.408
-765.916,597.068,181.536
-854.976,569.008,187.636
-940.132,547.048,195.2
-977.464,536.068,221.308
-809.836,530.944,159.332
-716.14,559.248,192.028
-470.92,585.356,217.404
-223.504,531.188,203.252
147.864,458.476,85.888
713.7,405.772,-163.724
1007.476,324.52,-195.688
986.98,203.252,-93.208
1558.184,154.696,-252.052
1489.864,361.12,39.284
1512.312,427.976,60.756
1458.632,468.236,53.192
1279.048,554.124,90.768
1088.24,636.84,114.436
933.3,688.568,97.356
847.168,704.184,51.728
762.5,717.36,47.58
734.928,706.38,28.06
701.012,661.484,34.892
661.972,626.836,55.632
624.152,580.964,65.148
578.28,547.78,84.18
525.088,502.152,100.528
476.288,457.012,119.072
438.712,390.4,131.272
458.964,320.372,122.732
477.264,242.536,108.336
487.756,179.828,94.184
493.368,127.612,62.952
547.78,90.036,0.0
575.108,50.264,-15.372
698.572,-4.88,-69.296
832.528,-57.828,-136.152
915.732,-101.504,-180.56
1009.184,-119.316,-243.512
1080.92,-113.948,-310.368
1230.004,-135.176,-385.52
1347.368,-172.752,-383.08
1394.948,-196.42,-348.676
1425.936,-222.284,-327.692
1469.368,-223.016,-273.036
1534.272,-212.768,-232.288
1558.916,-211.548,-168.848
1577.948,-172.02,-103.456
1573.8,-132.248,-65.636
1545.984,-94.428,-10.248
1543.056,-57.828,17.08
1558.184,-36.6,59.536
1537.932,-35.136,144.204
1573.068,-51.484,228.14
1635.044,-82.716,270.84
1657.736,-124.44,347.456
1707.512,-143.96,362.096
1733.376,-177.876,378.444
1749.236,-215.208,388.936
1716.784,-253.516,404.308
1648.708,-271.328,407.48
1556.964,-293.532,399.184
1463.512,-301.828,384.544
1387.14,-285.236,327.204
1315.892,-271.816,277.428
1260.748,-250.344,239.364
1200.236,-226.676,191.296
1112.152,-205.692,135.176
969.656,-178.608,111.02
879.864,-137.128,77.348
771.04,-106.14,52.948
642.452,-79.3,38.552
521.672,-50.752,37.088
428.952,-7.32,26.108
341.844,41.968,11.468
267.668,98.576,-9.76
229.604,161.284,-30.988
229.116,226.432,-57.34
256.2,284.748,-86.132
320.86,332.328,-84.424
399.428,358.68,-59.048
500.932,402.356,-33.428
589.748,452.864,-13.664
683.444,509.96,-9.028
783.484,552.904,-12.2
871.324,566.08,19.032
965.02,553.148,64.416
1060.668,517.768,135.664
1131.184,489.464,187.392
1157.048,457.256,240.828
1185.108,424.316,289.14
1203.652,394.304,295.484
1187.304,372.1,315.004
1143.384,351.36,318.664
1080.676,316.468,308.904
1007.964,325.496,312.076
998.448,342.576,254.248
960.628,366.244,153.232
760.792,423.828,102.48
639.524,505.324,10.98
575.352,555.588,-50.02
297.68,614.636,-23.668
238.632,688.812,-61.732
210.572,755.668,-40.504
12.932,775.432,3.66
-241.804,803.248,14.396
-523.38,867.176,52.704
-795.196,917.196,45.384
-971.608,1001.864,47.336
-1016.748,1051.64,30.988
-1012.6,1031.388,-17.568
-976.488,1001.132,-16.592
-835.456,942.084,-60.024
-738.1,894.992,-52.704
-656.604,840.092,-40.016
-601.704,805.2,-41.968
-551.196,833.992,-22.936
-521.428,889.624,64.66
-481.9,927.2,122.732
-437.736,935.74,129.076
-385.276,926.956,138.836
-348.676,914.268,151.28
-327.936,887.428,148.108
-309.88,874.496,137.86
-316.224,866.2,141.276
-321.348,874.74,148.108
-329.156,863.028,139.568
-349.164,856.684,127.856
-368.684,861.32,116.388
-353.068,881.816,84.424
-348.92,913.048,72.224
-325.252,930.86,49.532
-335.012,940.864,50.264
-330.864,942.816,60.024
-348.188,933.3,73.444
-366.732,922.564,95.648
-358.436,918.904,111.996
-340.868,917.928,116.144
-325.008,915.244,108.824
-310.856,917.928,98.82
-329.156,908.9,98.088
-343.064,915.732,104.188
-345.992,915.488,106.628
-344.528,917.44,113.216
-338.184,909.388,114.68
-327.204,926.956,103.944
-328.424,933.788,95.648
-331.596,935.74,93.94
-327.936,933.788,94.428
-326.96,931.836,101.26
-324.764,923.296,101.016
-323.056,921.344,105.652
-313.296,921.588,94.184
-326.96,926.224,102.236
-326.472,935.74,101.992
-328.18,938.424,90.524
-328.668,939.644,92.232
-325.496,936.716,84.18
-320.372,926.468,81.984
-327.204,921.344,86.864
-328.424,921.344,91.012
-327.204,923.54,101.748
-330.132,919.392,104.92
-328.18,925.98,103.7
-321.348,923.784,94.672
-325.74,924.516,94.184
-327.692,919.636,92.964
-345.016,927.2,97.844
-350.628,931.836,92.476
-356.728,931.836,83.692
-359.168,936.96,81.496
-358.192,948.916,88.328
-355.996,950.868,95.16
-358.68,952.576,105.896
-365.268,945.988,122.732
-377.712,941.596,126.88
-363.072,932.568,118.34
-360.632,933.056,117.12
-374.54,930.616,118.34
-390.644,909.632,113.216
-422.364,905.728,123.952
-450.424,901.092,146.156
-486.536,899.14,166.408
-523.136,876.692,182.024
-558.272,845.704,190.32
-599.264,820.816,196.664
-647.088,792.512,200.812
-662.216,758.108,187.392
-718.58,698.328,169.824
-801.296,675.636,203.496
-651.724,671.244,185.684
-507.032,703.208,155.672
-378.2,661.972,133.468
-37.576,608.048,72.712
291.336,512.4,-96.136
635.62,506.544,-303.78
690.52,380.396,-288.652
957.456,292.312,-207.4
1143.872,268.4,-131.272
1220.732,335.012,-54.9
1380.796,362.584,-85.644
1350.54,424.804,-27.572
1270.996,452.864,3.904
1199.992,448.716,97.844
1158.024,445.3,121.512
1098.244,472.872,107.116
1000.4,512.4,96.38
899.14,580.964,76.616
875.472,593.408,34.892
809.104,587.308,24.4
785.924,569.496,-1.952
754.448,524.6,-3.172
687.348,474.092,34.16
601.704,422.12,81.496
614.88,371.612,99.064
571.448,320.372,115.9
517.036,282.064,126.88
523.136,233.508,111.752
524.356,203.008,89.304
513.376,162.992,72.468
544.364,100.772,59.78
667.828,18.3,69.784
792.024,-57.584,52.216
848.388,-106.628,47.824
888.892,-129.32,-0.976
997.472,-151.768,-75.396
1135.088,-199.836,-102.48
1183.644,-240.828,-110.288
1225.124,-274.744,-127.368
1285.636,-304.756,-113.948
1371.524,-328.912,-99.796
1426.18,-376.98,-32.208
1481.324,-415.532,46.848
1537.688,-412.116,75.64
1541.592,-353.8,101.016
1515.728,-278.648,123.22
1511.824,-212.768,130.052
1493.036,-160.796,163.724
1481.812,-139.568,192.272
1468.88,-125.66,226.92
1479.616,-132.004,270.352
1489.864,-150.792,309.88
1507.92,-177.876,343.308
1515.484,-209.108,382.104
1534.76,-246.684,423.34
1532.564,-273.524,451.888
1499.136,-293.776,478.728
1443.504,-304.512,496.296
1407.148,-308.416,502.396
1389.824,-315.492,494.588
1347.368,-328.18,494.588
1293.932,-322.568,481.656
1253.428,-290.116,437.98
1236.836,-260.836,397.232
1229.028,-239.364,356.484
1205.848,-234.484,322.812
1161.928,-235.216,312.076
1078.48,-214.476,290.116
975.512,-184.22,254.004
884.744,-145.668,219.844
782.264,-91.744,175.192
699.06,-41.236,109.312
615.856,13.908,56.12
524.6,60.512,21.96
421.388,101.26,0.244
335.012,162.504,-8.296
277.184,211.792,-30.256
265.716,266.936,-53.192
278.892,317.932,-76.86
284.016,368.44,-75.152
353.068,407.724,-62.464
447.496,443.836,-51.728
528.504,470.188,2.44
608.536,498.736,49.288
695.4,514.596,79.056
770.064,536.068,110.288
855.22,550.952,149.084
949.404,542.412,195.932
1055.3,518.256,233.508
1160.464,487.512,268.4
1187.548,469.944,298.656
1148.996,453.108,341.356
1123.376,433.1,348.432
1133.868,419.192,338.184
1089.216,415.776,339.648
1028.46,415.288,343.552
1074.088,421.388,259.128
1098.976,427.732,155.672
952.088,441.884,115.412
718.336,463.112,86.864
538.508,507.52,109.068
420.412,583.16,113.216
291.336,641.476,67.1
247.904,721.264,-23.668
156.648,731.024,-123.22
-51.24,752.008,-96.868
-283.284,814.228,16.836
-446.764,845.704,85.888
-711.748,873.032,200.812
-876.936,895.724,290.848
-962.58,838.872,321.104
-1028.46,768.844,281.82
-1014.552,700.524,103.212
-980.392,688.568,30.5
-904.264,707.6,28.548
-776.896,769.576,14.152
-641.232,847.168,11.468
-551.44,903.044,43.188
-493.368,950.624,69.296
-455.06,974.536,80.032
-430.172,978.44,93.94
-406.992,966.728,110.044
-397.964,941.596,118.34
-386.984,914.268,111.752
-375.028,921.832,124.44
-360.388,915.732,120.78
-351.604,917.44,113.948
-343.308,894.26,98.576
-329.888,885.232,94.428
-346.236,870.104,97.356
-361.364,864.98,100.772
-373.564,872.056,107.604
-371.368,899.14,95.648
-360.388,915.976,87.596
-352.336,925.248,88.816
-349.408,938.668,91.012
-349.408,933.056,90.524
-359.168,922.564,93.94
-374.296,912.316,97.844
-373.076,909.632,96.136
-373.076,921.588,92.964
-361.12,924.028,91.012
-355.264,922.808,100.528
-360.876,907.68,107.116
-369.172,896.7,116.388
-370.636,880.84,111.996
-356.972,899.384,99.796
-344.284,905.972,95.648
-327.204,915.732,84.912
-326.96,912.56,81.252
-332.572,921.1,93.208
-350.14,909.632,103.944
-363.316,907.68,104.676
-363.316,906.46,93.94
-362.096,916.952,87.84
-352.58,920.856,74.176
-358.436,915.0,74.176
-365.512,904.752,84.668
-364.048,910.608,89.304
-366.488,914.024,92.476
-347.7,923.784,88.328
-331.108,930.616,80.52
-331.596,939.156,81.008
-332.572,937.692,80.52
-343.796,931.592,87.352
-360.144,921.832,98.82
-358.436,921.588,105.896
-359.656,910.608,107.604
-353.068,897.432,101.504
-353.8,896.456,98.332
-365.024,900.848,96.624
-365.512,909.144,91.256
-363.072,915.488,97.844
-353.068,917.684,100.772
-348.92,909.144,97.844
-356.972,908.656,99.064
-355.508,916.952,95.892
-363.56,923.296,101.992
-365.512,922.808,102.724
-377.224,925.98,107.848
-386.984,926.224,110.044
-396.988,930.616,104.188
-410.652,927.932,113.704
-424.072,928.42,117.608
-448.96,940.62,117.364
-463.112,950.624,126.392
-476.532,938.18,120.536
-498.492,906.948,126.148
-532.652,853.024,137.128
-582.428,784.704,147.864
-650.26,715.896,168.116
-698.084,721.752,196.664
-672.22,809.592,220.332
-671.976,838.14,242.78
-590.236,790.56,213.744
-525.088,727.364,200.324
-491.416,627.08,168.116
-468.968,564.372,159.332
-329.644,542.656,129.808
-52.948,534.848,128.1
435.54,473.604,-7.076
855.708,483.608,-221.064
876.692,425.536,-303.048
1093.852,284.504,-169.58
1279.292,175.192,-105.408
1516.948,269.132,-104.188
1525.0,372.1,-74.664
1409.1,482.876,-6.588
1238.056,532.896,-1.952
1120.204,560.956,2.684
1006.744,569.496,34.16
935.252,555.588,31.476
982.588,556.32,-19.52
949.648,566.324,-11.712
870.104,577.792,24.644
786.9,560.468,40.504
703.208,532.408,57.828
654.408,505.324,54.168
606.096,477.264,34.16
555.588,447.496,20.984
514.108,399.428,40.748
511.668,328.912,72.468
498.98,256.2,137.616
519.72,168.848,171.776
545.584,102.236,173.24
579.256,65.636,132.736
653.432,29.28,84.18
725.168,-13.664,12.932
816.424,-51.972,-59.78
832.284,-80.032,-85.4
888.892,-132.248,-114.924
969.168,-206.18,-119.072
1132.892,-257.42,-162.26
1267.58,-300.12,-168.36
1303.448,-308.904,-174.46
1374.452,-329.156,-164.7
1437.648,-345.26,-137.616
1445.944,-347.7,-100.04
1403.732,-310.124,-77.592
1399.096,-278.16,-81.74
1438.868,-233.752,-94.916
1416.664,-201.544,-51.972
1403.976,-178.364,-3.66
1413.248,-166.652,50.508
1418.128,-157.868,101.748
1406.66,-143.228,165.432
1437.404,-139.324,217.404
1449.604,-146.644,272.304
1499.136,-174.948,332.572
1560.38,-210.084,369.904
1595.516,-241.072,416.508
1591.368,-272.304,448.228
1588.196,-294.996,467.26
1561.356,-300.12,451.156
1553.06,-300.852,405.04
1528.416,-309.88,386.496
1462.78,-313.052,367.708
1385.676,-318.664,350.14
1335.9,-318.176,331.84
1285.392,-316.224,320.616
1236.104,-306.464,302.804
1182.668,-291.58,267.424
1131.428,-258.64,237.412
1076.284,-209.596,184.952
999.668,-178.12,133.468
925.004,-148.84,108.336
856.684,-108.092,87.108
729.804,-75.884,75.64
595.848,-22.936,63.44
473.848,31.232,22.936
378.2,101.016,-9.272
284.748,160.796,-45.14
216.916,229.604,-76.86
183.488,283.284,-99.552
185.928,323.056,-116.388
213.988,365.024,-98.332
310.612,386.008,-65.636
422.852,407.48,-36.6
552.66,429.684,-12.688
664.9,456.28,25.132
734.928,498.004,51.24
833.016,532.164,56.852
922.808,550.464,55.876
1003.572,566.568,82.228
1102.636,552.66,107.116
1148.264,526.064,155.672
1181.448,500.688,198.616
1176.324,484.584,241.56
1175.592,476.776,264.008
1204.14,456.524,267.668
1199.504,424.316,275.476
1157.292,389.912,302.56
1142.652,356.972,338.672
1125.572,349.896,365.268
1132.892,359.9,270.84
1018.456,384.544,181.536
869.372,426.512,95.648
748.104,453.352,-20.496
518.744,472.14,-1.952
362.584,571.204,82.472
301.34,626.836,101.748
231.556,648.308,127.368
17.08,636.596,186.172
-307.196,659.288,257.176
-626.348,721.752,304.512
-783.24,749.324,226.676
-948.428,807.884,185.44
-1000.644,863.272,128.832
-951.6,893.284,28.792
-898.408,922.808,-49.044
-811.788,935.008,-106.14
-721.996,928.176,-105.896
-631.716,926.712,-86.132
-559.492,920.612,-63.44
-512.4,930.128,-3.416
-452.376,943.792,61.488
-424.072,946.964,129.808
-389.18,938.668,164.944
-362.096,927.688,198.86
-353.312,911.096,202.52
-350.872,893.284,199.592
-341.844,891.82,188.856
-310.368,894.016,134.932
-329.644,909.144,128.1
-330.864,922.32,110.044
-339.16,931.836,107.116
-345.504,941.108,110.044
-355.752,934.276,124.44
-348.92,921.1,125.172
-373.076,901.58,140.544
-359.168,906.948,136.64
-346.968,910.12,134.932
-301.828,916.952,121.268
-290.116,928.664,119.804
-306.708,923.54,135.176
-328.424,910.852,137.86
-360.388,895.724,134.2
-364.048,900.36,131.516
-341.844,903.288,121.512
-318.176,918.66,119.072
-312.32,917.684,116.632
-328.424,917.684,131.516
-352.092,911.34,128.1
-357.948,924.272,120.536
-355.752,925.248,106.628
-342.576,921.1,106.628
-328.668,924.516,116.876
-322.812,925.004,129.076
-338.184,917.196,148.108
-345.748,909.388,152.744
-346.48,906.216,148.352
-333.06,901.824,134.932
-334.768,903.776,129.32
-332.816,913.292,121.512
-335.5,921.588,124.44
-335.744,921.1,128.588
-332.084,912.072,125.172
-338.672,906.948,130.784
-328.668,908.412,120.536
-343.064,915.976,123.22
-343.552,915.976,115.168
-347.7,917.684,114.924
-341.844,913.78,119.804
-336.72,908.412,126.392
-338.916,912.804,128.344
-352.336,920.368,131.516
-359.9,924.76,124.44
-363.072,930.128,119.072
-359.412,928.176,116.144
-357.46,924.76,123.22
-367.952,926.956,135.908
-376.004,939.888,142.252
-384.544,940.132,141.032
-385.032,943.304,133.224
-380.152,936.716,131.272
-395.036,928.176,136.64
-409.676,928.176,145.668
-420.656,925.736,152.988
-427.0,919.636,155.672
-431.392,901.092,155.184
-448.472,870.348,156.16
-479.46,828.136,153.476
-522.892,801.784,153.72
-540.216,802.516,162.748
-531.188,811.3,167.628
-531.676,794.464,169.336
-544.608,748.104,171.532
-583.892,685.884,169.092
-656.848,619.272,169.336
-750.056,585.356,181.78
-817.888,595.848,211.792
-706.38,663.68,207.888
-625.372,744.444,208.376
-415.044,752.252,205.204
-158.6,658.556,162.504
227.652,552.416,15.86
622.932,421.144,-161.528
1003.816,341.356,-351.604
1333.46,254.248,-379.176
1395.924,301.34,-20.496
1500.112,305.976,-51.728
1545.496,310.368,45.628
1452.044,381.128,109.068
1270.264,472.14,98.332
1137.528,530.7,91.5
1056.52,560.224,62.464
933.544,576.328,49.776
861.808,576.084,50.02
861.564,573.888,31.964
797.392,565.348,34.16
742.98,562.908,50.508
697.596,542.412,61.0
657.58,509.716,58.804
627.568,465.064,65.88
573.4,412.604,78.08
548.512,358.924,89.304
483.852,285.236,122.976
457.012,208.376,170.8
440.908,121.268,203.984
444.568,36.356,185.684
470.92,-30.744,159.82
470.676,-86.62,128.832
545.584,-126.636,87.596
697.108,-164.456,2.684
953.308,-218.624,-136.884
1112.64,-241.316,-235.216
1260.992,-246.684,-316.468
1371.524,-229.848,-358.924
1427.644,-247.66,-319.396
1490.108,-291.58,-237.412
1525.488,-339.648,-153.476
1548.18,-357.948,-46.604
1534.028,-352.336,18.788
1534.028,-315.98,79.788
1556.476,-275.964,130.052
1513.532,-214.476,215.696
1505.236,-158.6,247.172
1489.864,-98.82,305.0
1475.224,-51.728,353.068
1479.86,-28.548,395.524
1532.564,-36.112,437.736
1615.768,-70.516,452.864
1684.576,-114.68,475.068
1706.048,-161.04,525.576
1720.444,-219.112,550.952
1678.964,-266.692,584.38
1597.468,-299.632,599.02
1527.196,-327.448,578.28
1487.424,-341.6,529.968
1449.116,-359.9,468.724
1360.544,-359.656,433.1
1287.832,-331.596,384.788
1208.044,-303.536,336.964
1130.452,-276.452,274.5
1053.592,-233.02,204.96
939.4,-178.364,143.716
835.7,-120.536,87.596
726.876,-71.736,68.564
594.384,-16.592,39.04
458.964,31.72,18.3
358.68,89.792,9.516
274.256,146.888,-10.004
208.376,204.716,-38.552
162.504,265.96,-58.56
142.252,318.908,-89.06
152.5,370.148,-83.692
244.488,402.844,-67.344
335.5,428.464,-35.868
454.572,460.428,14.396
556.076,496.296,62.22
663.924,522.404,90.28
757.376,548.268,125.904
862.296,567.056,160.552
964.776,573.888,195.932
1034.56,570.228,220.82
1114.836,551.196,240.096
1152.412,524.6,275.232
1191.94,491.172,297.924
1226.344,455.548,310.612
1230.004,422.608,350.384
1178.032,400.404,384.544
1140.212,366.244,347.7
1073.112,354.288,295.24
974.292,356.728,229.848
853.268,381.616,207.156
771.772,392.108,146.644
730.048,422.12,39.04
645.136,458.964,-2.196
518.5,543.144,42.212
345.26,627.324,73.932
160.552,676.124,54.9
-53.436,742.492,83.936
-256.2,808.616,100.772
-478.972,892.552,115.412
-674.66,973.316,167.628
-824.232,1010.16,170.556
-893.04,994.056,98.088
-944.036,958.188,32.94
-924.028,933.056,-50.264
-859.124,929.884,-105.164
-765.672,930.86,-164.944
-672.708,925.004,-168.848
-607.56,916.22,-140.056
-527.528,918.904,-87.108
-473.36,943.792,-11.224
-415.044,968.436,63.684
-347.212,966.728,101.748
-306.22,949.892,139.568
-277.428,936.228,152.744
-267.18,922.564,167.384
-251.808,909.388,173.24
-246.684,905.24,167.14
-248.88,911.584,151.524
-264.252,918.416,144.204
-282.308,922.32,133.224
-277.916,935.496,110.044
-275.72,925.736,88.572
-304.512,905.728,100.528
-313.54,887.428,99.308
-323.788,900.604,104.676
-311.588,935.74,112.484
-287.432,959.652,112.728
-253.272,974.536,95.404
-260.348,971.12,98.82
-257.176,960.14,89.548
-277.672,947.208,91.988
-310.368,928.664,110.044
-327.692,924.272,118.096
-327.936,927.444,120.292
-302.072,931.592,108.336
-281.332,923.54,105.164
-250.832,922.32,90.768
-246.196,911.828,92.964
-265.96,904.996,95.404
-287.92,920.856,106.872
-305.732,926.224,105.408
-304.756,947.208,110.044
-284.748,945.012,100.04
-264.252,946.232,89.548
-250.344,947.94,84.668
-260.592,946.964,88.816
-280.112,952.088,91.256
-301.828,950.624,97.112
-322.568,951.6,98.82
-308.172,951.844,91.5
-289.872,945.744,85.644
-269.864,945.988,87.108
-267.912,942.328,84.912
-279.38,937.448,94.184
-298.412,925.248,99.552
-315.492,913.536,98.82
-311.832,917.928,95.16
-292.556,924.272,82.716
-275.232,927.688,75.396
-262.3,936.472,81.252
-260.836,942.084,86.62
-273.768,947.208,96.136
-283.772,946.72,100.284
-293.044,941.84,103.944
-294.02,937.448,96.38
-291.824,941.84,93.208
-293.776,941.108,88.816
-293.044,941.352,89.792
-290.848,938.912,93.208
-293.532,930.86,96.38
-294.264,925.004,96.868
-299.388,920.856,101.26
-304.756,920.612,102.236
-298.9,929.152,100.04
-292.068,941.84,92.964
-290.36,949.16,85.4
-295.728,954.528,84.912
-314.028,955.748,94.428
-331.108,969.656,106.384
-339.404,978.44,111.264
-355.752,992.348,124.44
-376.98,1003.816,136.396
-410.164,1014.064,146.644
-450.668,1038.22,166.896
-482.388,1055.056,181.78
-514.108,1039.196,185.196
-519.72,977.952,162.504
-540.704,929.64,158.844
-562.176,880.352,174.704
-605.608,804.224,195.444
-661.484,732.0,213.5
-725.656,664.656,230.824
-810.08,606.34,229.604
-864.736,584.868,250.588
-779.58,559.004,188.612
-796.416,532.896,160.308
-602.68,542.168,103.944
-390.888,498.004,52.948
-117.364,392.108,-42.456
383.812,294.02,-196.176
816.424,237.412,-297.436
1140.456,52.46,-284.26
1606.252,-26.352,-386.008
1613.084,68.32,-90.768
1493.28,164.456,102.724
1502.064,246.44,101.992
1380.064,327.692,76.372
1218.292,437.004,78.812
1116.3,518.744,41.968
1048.956,563.64,21.96
924.028,560.712,24.888
846.192,577.792,35.136
826.184,558.516,28.304
748.592,542.9,55.388
678.076,502.884,78.568
640.012,441.884,82.472
610.244,356.972,72.468
571.692,284.748,108.092
500.688,203.008,132.248
458.964,125.172,139.568
446.52,50.996,127.856
447.984,-11.224,140.056
457.744,-69.296,140.056
557.54,-118.34,81.74
720.044,-139.568,-33.428
857.416,-173.972,-123.22
1020.896,-183.976,-211.06
1197.064,-183.732,-319.64
1316.868,-183.244,-378.932
1441.064,-192.76,-385.032
1527.196,-209.108,-324.276
1592.344,-218.868,-302.804
1561.6,-202.276,-246.684
1526.464,-182.024,-202.276
1517.68,-145.668,-181.78
1540.372,-120.78,-167.628
1510.604,-75.396,-120.048
1470.1,-39.528,-65.88
1464.732,-13.42,-16.836
1479.372,7.808,42.212
1509.872,19.276,96.868
1562.088,-13.664,184.464
1689.944,-84.668,261.324
1802.428,-162.504,332.328
1817.312,-224.968,388.448
1776.076,-273.524,444.08
1729.716,-314.76,480.436
1706.048,-354.776,488.732
1649.684,-403.332,475.312
1575.996,-401.624,445.3
1491.084,-387.472,399.184
1442.772,-373.564,341.6
1382.016,-368.44,300.364
1288.32,-344.772,260.836
1188.036,-317.444,218.136
1050.42,-278.648,186.172
921.1,-221.796,135.664
784.948,-159.82,92.964
681.004,-103.212,60.268
531.676,-39.04,39.04
414.068,12.688,7.808
309.392,73.2,8.54
220.82,122.0,3.904
145.424,175.924,-1.22
105.164,235.216,-18.3
111.02,291.824,-37.82
169.58,333.06,-43.432
287.92,381.128,-44.896
406.748,421.632,-11.224
517.28,460.916,22.448
622.688,494.832,39.528
695.156,515.572,41.724
798.856,536.8,47.824
892.064,556.076,59.78
988.2,568.276,68.564
1034.072,578.28,92.232
1063.596,573.4,112.484
1055.544,563.884,148.596
1034.56,546.316,186.416
1032.364,525.088,227.164
1042.612,513.132,223.748
1034.316,489.952,222.528
1021.872,476.288,234.972
1037.244,449.204,222.284
1030.412,439.688,232.776
997.472,431.148,254.736
937.448,432.124,264.008
896.456,423.096,240.584
958.188,425.536,198.86
1135.82,450.668,79.788
1058.96,422.364,28.548
859.368,427.0,90.28
750.3,485.072,73.688
610.0,532.896,74.42
479.46,631.96,103.212
277.672,711.504,122.0
-99.796,793.488,128.344
-413.58,884.744,100.528
-598.776,973.804,109.312
-684.42,1045.54,143.472
-752.984,1012.6,97.844
-862.54,963.8,54.412
-834.968,910.852,-36.356
-815.448,868.64,-89.06
-768.6,843.752,-124.44
-660.752,825.696,-121.024
-597.8,819.352,-61.488
-550.952,830.82,-7.808
-491.416,848.144,19.276
-461.648,860.1,25.62
-425.78,880.596,41.236
-406.016,892.796,56.12
-387.96,919.392,57.34
-368.196,944.28,54.412
-347.456,954.284,52.948
-320.372,952.82,56.852
-326.716,944.524,68.076
-340.136,933.544,71.004
-353.556,927.932,78.324
-347.7,922.076,81.252
-326.472,926.956,85.156
-311.588,933.056,92.476
-311.344,929.152,89.548
-319.152,929.884,89.304
-330.376,926.224,87.352
-335.5,925.98,81.252
-335.744,916.708,75.64
-336.232,910.608,81.496
-343.308,901.336,85.888
-359.412,894.26,88.328
-358.436,889.624,83.204
-342.576,899.384,68.564
-335.988,911.34,68.32
-313.296,927.688,62.464
-311.1,945.012,71.492
-310.856,952.332,81.984
-321.348,938.18,87.352
-334.036,925.736,85.644
-343.308,911.584,80.52
-341.112,908.412,75.152
-343.064,920.368,70.76
-327.936,939.156,69.052
-326.472,941.596,78.568
-326.716,933.056,85.888
-332.328,919.636,89.792
-340.38,917.44,97.6
-348.432,907.192,90.768
-349.652,909.144,82.472
-344.04,904.508,77.592
-339.16,904.264,80.764
-335.744,910.852,88.816
-335.012,921.1,92.232
-347.944,923.784,96.624
-346.48,923.784,78.812
-348.432,935.252,64.416
-345.504,936.228,60.268
-341.356,936.228,59.536
-345.748,928.908,62.708
-361.12,924.028,77.104
-369.66,921.588,80.276
-366.0,916.22,79.3
-366.732,906.46,80.276
-366.488,904.264,72.712
-368.44,917.684,73.688
-370.392,924.516,80.52
-386.008,924.028,89.06
-405.284,916.952,102.968
-431.392,910.852,119.072
-453.108,924.516,123.952
-475.068,935.74,117.12
-494.832,947.94,105.652
-508.008,960.14,100.772
-523.136,959.408,104.432
-548.756,928.176,125.904
-582.428,876.936,148.352
-600.24,831.552,162.992
-605.364,835.212,178.364
-596.336,833.992,174.46
-610.0,819.84,162.016
-614.88,794.708,166.164
-556.564,768.356,169.58
-458.232,731.756,141.032
-395.524,699.304,103.944
-305.976,690.032,113.216
3.904,664.656,40.748
369.172,599.264,-154.208
661.484,584.38,-248.636
651.968,472.384,-69.784
882.304,287.432,-84.912
1234.152,216.184,-191.296
1318.576,350.14,-101.748
1225.124,442.616,5.368
1169.98,495.076,36.356
1154.12,511.18,17.568
1088.24,527.284,-5.612
961.36,550.464,7.564
914.268,583.648,-31.232
906.216,573.888,-14.884
888.16,549.0,30.256
896.7,500.444,35.624
853.024,484.34,60.024
779.824,468.724,62.22
722.728,458.232,49.532
650.26,436.272,39.528
612.196,408.944,46.116
557.54,354.532,66.124
472.14,292.556,97.356
445.056,233.264,125.172
471.896,162.748,131.516
523.624,107.36,107.116
586.088,56.364,71.492
652.212,34.404,42.456
734.44,-0.244,-25.376
842.288,-50.264,-69.54
987.956,-118.584,-104.92
1075.796,-201.544,-113.704
1163.88,-241.56,-146.888
1226.1,-275.232,-159.088
1270.996,-282.796,-172.508
1320.772,-280.6,-148.596
1376.648,-294.02,-142.984
1425.204,-322.812,-114.436
1428.864,-334.768,-58.56
1425.448,-303.78,-17.568
1430.816,-264.74,-0.488
1424.96,-227.164,32.696
1414.224,-191.54,63.928
1419.104,-172.02,105.164
1444.968,-164.212,161.772
1462.048,-167.628,222.04
1484.496,-182.268,259.86
1548.668,-199.592,286.456
1575.752,-223.26,319.64
1589.172,-243.024,345.748
1575.02,-271.816,382.592
1575.02,-301.096,406.504
1563.064,-331.352,404.308
1504.504,-351.116,409.92
1444.48,-361.364,410.652
1391.288,-356.972,409.432
1378.844,-355.508,382.104
1359.812,-357.46,369.66
1351.028,-366.244,373.808
1318.088,-376.248,387.96
1264.896,-379.176,389.912
1191.208,-363.316,363.804
1118.008,-323.3,340.136
1058.228,-273.768,282.796
969.9,-211.304,237.168
873.276,-143.716,193.492
766.16,-71.736,142.252
650.016,-16.592,115.656
550.708,37.332,75.396
468.236,90.036,16.592
409.432,156.648,-28.304
347.7,225.212,-43.676
291.092,274.988,-55.876
259.128,317.688,-81.496
268.4,361.12,-86.62
303.78,400.16,-70.028
358.68,431.636,-62.952
418.704,451.156,-55.632
478.728,477.508,-12.688
579.744,505.568,7.808
688.568,521.672,24.156
783.24,539.484,48.068
879.864,555.588,61.488
928.42,565.348,100.04
995.032,570.716,133.712
1073.112,561.2,168.604
1128.256,549.488,213.5
1133.136,550.952,240.584
1179.008,537.532,237.412
1199.504,531.188,274.744
1191.452,545.584,278.648
1164.856,540.46,269.62
1101.172,529.236,280.844
1034.804,520.208,269.62
965.752,521.428,220.088
906.46,529.48,182.756
793.0,511.912,188.612
608.292,533.14,250.588
458.964,571.692,251.808
410.408,596.092,173.728
328.18,599.996,143.96
210.328,619.028,162.504
127.612,654.164,223.26
40.504,647.576,225.7
-58.316,632.448,215.452
-168.848,677.1,243.268
-297.192,725.168,244.0
-393.572,773.48,199.104
-452.62,839.848,152.988
-565.592,949.16,170.068
-620.98,1020.896,148.84
-622.932,1078.236,102.48
-592.188,1084.336,53.192
-589.26,1060.424,-2.196
-617.808,1049.2,-38.552
-569.984,1065.792,-93.94
-560.712,1070.184,-88.572
-533.872,1073.844,-56.12
-468.968,1065.06,-3.172
-405.528,1042.368,72.712
-349.408,995.52,132.248
-315.492,952.82,177.144
-287.92,913.292,178.12
-284.748,889.38,183.0
-257.908,890.844,155.916
-253.76,910.852,154.94
-237.9,926.224,145.424
-241.316,933.056,137.372
-240.828,939.888,117.12
-261.568,936.716,104.92
-295.484,934.032,96.624
-312.076,943.548,84.424
-309.148,953.308,72.712
-282.796,958.188,75.64
-236.924,962.824,61.976
-245.22,963.068,74.908
-258.396,970.876,85.644
-290.116,959.652,93.696
-311.832,956.724,110.532
-302.072,945.256,96.38
-286.456,935.252,88.328
-261.08,939.156,77.592
-244.976,946.476,84.668
-240.828,953.796,89.548
-253.516,962.58,106.872
-272.792,949.892,119.804
-280.356,935.74,120.78
-281.088,920.612,112.728
-284.748,908.412,108.58
-278.404,920.124,102.236
-271.572,933.788,94.428
-261.08,935.496,97.112
-260.104,932.568,98.088
-274.012,929.64,96.136
-292.312,935.252,100.772
-301.096,932.324,87.108
-297.924,932.324,82.96
-288.652,929.152,85.156
-284.504,932.08,94.916
-287.92,932.08,96.38
-302.56,928.176,93.94
-299.632,938.18,90.524
-294.752,938.912,89.548
-284.748,939.888,90.524
-280.844,940.376,94.672
-279.868,938.668,98.82
-288.896,942.328,100.772
-290.36,948.672,89.548
-295.728,955.016,82.96
-294.996,948.428,80.276
-295.484,947.208,82.228
-298.9,948.184,84.18
-305.976,947.94,84.668
-317.688,947.94,91.988
-322.812,949.16,96.38
-331.596,950.868,105.896
-340.38,956.236,113.948
-342.82,960.14,114.68
-364.78,964.044,120.78
-378.688,968.68,118.34
-399.428,956.968,113.216
-435.296,941.84,116.876
-476.532,943.792,121.756
-513.132,971.12,124.196
-522.648,959.896,116.876
-545.096,922.32,134.688
-555.588,847.168,133.224
-584.624,769.088,133.956
-641.964,686.128,116.144
-672.708,652.944,111.996
-710.528,664.412,109.8
-743.712,738.832,106.14
-676.124,823.256,99.064
-497.516,838.872,87.108
-355.508,741.272,46.36
-165.188,633.18,-10.736
285.48,523.38,-141.52
760.304,443.348,-350.628
973.316,354.532,-255.712
1051.64,82.472,31.964
1347.856,0.244,-108.824
1342.732,61.0,66.856
1307.84,224.48,165.92
1278.56,318.908,125.172
1182.424,349.896,96.624
1178.276,360.388,89.06
1092.388,335.012,156.648
1080.188,317.2,196.908
1081.896,306.22,162.748
1080.92,340.868,138.592
1070.672,395.768,120.292
1031.144,440.664,94.184
993.08,460.916,88.084
956.48,456.036,69.784
915.732,465.064,83.204
916.22,455.06,83.936
911.096,428.952,95.404
860.832,408.456,116.144
805.444,384.788,140.056
781.288,363.316,155.916
736.148,343.552,160.308
686.372,323.788,145.912
655.384,306.708,132.004
627.324,272.792,123.22
557.54,223.504,141.032
504.836,157.38,177.144
447.74,72.224,193.492
397.232,-2.44,217.648
373.32,-76.616,179.096
438.224,-138.348,104.188
600.728,-191.54,25.132
713.7,-223.26,-46.36
883.036,-293.776,-108.58
1018.212,-355.264,-146.888
1182.912,-405.772,-206.18
1367.62,-428.708,-260.836
1439.112,-435.54,-233.264
1467.66,-441.396,-176.412
1445.456,-446.52,-94.428
1466.44,-436.028,-50.996
1502.552,-421.388,-42.944
1567.456,-418.216,15.86
1596.248,-375.272,64.904
1595.028,-325.984,93.452
1563.308,-270.84,150.548
1594.296,-224.724,166.164
1597.956,-182.268,208.132
1629.92,-170.556,244.244
1665.3,-180.072,264.984
1667.008,-218.38,297.436
1672.864,-286.7,341.112
1647.976,-345.992,389.668
1606.252,-397.476,435.296
1567.944,-429.44,453.84
1529.148,-457.256,454.816
1468.636,-467.26,439.444
1418.128,-475.8,409.92
1390.556,-467.26,377.956
1341.268,-453.596,343.308
1297.836,-437.004,314.272
1223.66,-428.464,317.688
1118.496,-407.48,312.564
1016.26,-366.0,288.896
875.228,-314.272,233.996
749.324,-235.704,191.052
626.348,-162.26,139.08
517.768,-89.06,77.104
374.296,-24.888,40.504
269.62,47.824,29.524
194.712,97.356,11.224
168.848,162.504,-13.908
146.888,217.648,-33.428
179.584,269.376,-69.052
224.236,317.932,-72.712
314.516,366.488,-62.464
416.752,394.792,-44.896
575.108,414.556,-14.884
713.7,425.292,21.228
824.476,439.2,55.632
924.516,455.304,86.376
1003.084,447.984,87.596
1054.568,450.912,130.296
1114.348,430.66,164.456
1168.516,401.868,182.512
1177.3,370.392,217.16
1132.404,359.9,237.9
1084.824,342.576,253.028
1081.896,337.452,250.344
1086.288,335.988,239.608
1041.88,366.976,253.272
1044.808,393.328,201.056
1029.68,409.188,165.432
949.404,416.264,169.824
906.46,460.184,143.716
905.972,498.248,124.44
851.804,524.356,109.556
809.592,593.652,-19.764
682.712,639.28,-104.92
612.684,727.364,-154.94
514.84,794.22,-193.98
254.736,849.12,-156.16
93.208,901.824,-142.984
-74.176,925.492,-28.792
-210.572,925.248,76.372
-409.432,889.136,154.452
-578.28,833.016,198.616
-708.576,825.94,192.516
-756.644,813.008,131.028
-751.032,821.548,47.336
-692.716,861.076,9.028
-612.684,924.028,2.684
-585.356,960.872,13.42
-517.036,997.716,2.196
-449.936,1003.328,4.392
-432.368,987.468,56.12
-391.376,977.464,93.208
-349.408,971.852,121.756
-353.312,970.632,142.74
-323.056,978.684,120.048
-280.112,995.032,95.16
-253.76,1018.456,108.336
-235.46,1013.576,102.236
-235.216,992.592,90.28
-268.156,971.852,120.78
-254.004,970.632,118.34
-231.556,960.628,109.8
-235.46,937.692,128.588
-230.336,920.124,134.2
-233.752,910.12,118.828
-268.156,925.248,137.616
-267.18,940.62,114.192
-284.748,947.696,87.108
-288.164,956.48,92.232
-269.62,958.92,85.4
-265.472,959.164,83.936
-257.176,941.108,92.232
-270.352,920.368,97.112
-295.728,908.412,100.284
-333.304,913.536,109.068
-355.752,915.488,109.068
-357.948,920.124,90.036
-356.728,923.784,79.544
-335.988,915.0,70.516
-346.48,907.436,84.424
-365.756,892.796,89.792
-373.808,904.508,81.496
-381.86,915.244,76.86
-382.592,931.592,77.836
-375.028,947.696,98.82
-389.18,954.528,144.204
-356.484,958.188,136.396
-296.948,940.864,81.74
-285.48,907.192,88.328
-308.66,856.684,101.992
-348.676,835.456,110.532
-378.932,867.908,129.32
-368.196,906.46,135.664
-356.972,937.204,145.668
-311.832,940.376,132.004
-278.648,917.196,114.436
-275.232,886.208,112.728
-295.24,867.42,119.316
-324.276,878.4,151.524
-345.26,890.6,177.632
-366.0,904.264,195.444
-377.224,910.852,223.26
-357.46,911.34,222.528
-344.528,896.7,225.212
-352.824,890.356,244.488
-361.364,896.212,261.568
-360.632,905.972,270.596
-356.972,903.776,274.012
-359.168,905.484,289.384
-355.508,908.656,296.216
-357.46,919.392,288.896
-355.264,929.884,258.152
-357.46,932.324,227.164
-384.544,927.444,217.892
-415.776,934.764,213.012
-435.784,936.472,218.38
-454.328,919.392,235.216
-465.796,876.448,242.536
-497.272,837.896,267.668
-521.184,818.376,288.896
-513.62,820.084,294.264
-505.08,824.476,294.752
-514.352,810.08,286.944
-569.984,775.188,284.748
-613.66,724.436,259.128
-660.264,671.244,234.484
-653.432,630.984,250.832
-675.148,597.556,284.504
-695.888,584.868,257.908
-666.852,586.82,203.496
-569.74,594.628,165.676
-399.672,614.148,149.328
76.616,563.64,64.172
591.212,439.444,-126.148
975.024,426.268,-205.448
1152.412,244.488,10.248
1625.04,-112.972,-30.5
1908.812,26.352,-22.448
1645.536,270.108,115.9
1513.532,463.6,56.852
1347.368,534.116,29.28
1226.588,580.72,32.696
1090.68,560.712,2.684
963.556,547.78,-4.392
892.796,534.848,-0.244
848.144,531.92,-11.224
735.904,534.604,28.548
664.168,529.968,46.604
586.332,498.248,57.584
536.312,464.82,63.44
509.472,424.316,43.676
466.04,376.004,44.408
422.608,290.116,70.516
402.6,186.66,119.804
407.236,74.42,167.14
432.124,-30.744,199.348
450.912,-109.556,203.496
451.4,-165.432,155.428
498.98,-209.108,117.852
635.62,-249.612,43.92
842.044,-307.44,-25.62
1036.512,-355.752,-107.848
1176.812,-379.908,-193.736
1347.368,-379.42,-277.184
1474.492,-377.224,-272.792
1559.404,-370.88,-235.46
1606.252,-374.54,-212.768
1634.068,-387.228,-139.08
1696.776,-398.696,-83.936
1705.316,-382.836,-26.352
1639.192,-331.596,30.744
1597.956,-264.252,61.488
1554.768,-216.672,83.204
1499.38,-163.724,122.244
1487.424,-119.56,158.112
1524.268,-101.26,198.372
1555.012,-112.972,247.416
1619.672,-148.352,283.528
1692.14,-201.788,309.148
1729.716,-262.544,363.56
1732.4,-319.152,401.136
1704.34,-368.196,422.12
1675.548,-404.064,428.708
1599.664,-418.948,412.848
1560.624,-438.468,386.008
1505.724,-457.012,367.22
1441.308,-471.408,347.456
1350.54,-459.696,333.304
1268.068,-417.484,286.212
1173.396,-386.008,249.368
1076.772,-356.728,228.384
968.192,-309.88,190.564
854.0,-257.176,152.256
734.196,-199.348,137.372
603.656,-143.716,114.68
492.148,-85.888,85.644
396.256,-34.404,48.312
295.24,27.084,27.572
220.576,97.844,-0.976
157.38,156.16,-27.816
98.332,223.992,-50.752
149.084,285.724,-90.28
257.42,324.276,-106.628
376.736,353.312,-71.004
489.464,387.716,-31.72
617.32,399.184,22.204
772.016,423.34,93.452
920.612,433.588,139.324
1017.48,449.936,190.564
1062.864,467.748,260.348
1108.004,498.248,275.72
1119.716,522.892,289.628
1093.608,562.664,289.14
1057.252,597.556,223.26
981.124,617.808,173.728
881.816,635.132,139.324
783.484,658.8,141.276
686.616,673.928,141.276
611.22,695.4,121.024
565.104,731.512,94.184
486.78,778.36,41.968
425.292,786.412,-31.476
342.332,810.568,-45.872
241.316,830.576,-16.836
192.272,852.048,-7.808
136.396,853.024,22.204
17.324,858.88,94.916
-96.868,862.296,106.872
-287.92,864.736,92.476
-544.852,860.588,87.596
-759.816,888.892,94.428
-877.424,892.308,111.508
-933.3,854.244,153.476
-929.152,794.708,173.972
-836.676,744.688,134.2
-835.212,703.696,43.676
-859.612,676.124,-15.86
-798.124,714.432,-14.884
-704.672,803.248,43.92
-644.648,893.284,95.404
-563.884,946.72,118.34
-453.352,991.372,142.496
-348.92,991.128,164.212
-299.876,955.016,206.912
-256.688,887.672,196.176
-302.316,825.208,217.404
-347.212,803.248,225.212
-389.424,817.644,200.568
-408.7,859.612,179.096
-393.084,893.772,138.836
-381.86,912.56,116.388
-359.9,917.684,84.424
-358.436,915.732,95.892
-372.344,916.952,89.792
-390.156,922.076,95.404
-396.988,930.86,100.528
-389.424,937.204,105.896
-365.024,933.544,95.16
-354.044,918.904,96.38
-361.364,905.24,97.844
-379.176,898.652,90.28
-381.372,903.044,100.284
-362.828,915.0,103.212
-356.728,912.316,109.312
-348.676,915.976,118.34
-348.676,918.172,121.512
-341.112,915.0,111.264
-336.72,908.168,101.016
-346.724,906.704,107.36
-354.532,904.996,102.724
-360.144,902.8,106.628
-374.54,899.628,104.676
-381.86,907.68,101.992
-375.516,913.78,98.332
-362.096,914.756,92.964
-340.136,910.12,91.988
-340.38,911.828,97.6
-354.044,911.34,109.068
-371.368,909.144,111.752
-367.952,917.196,108.336
-363.072,915.244,99.308
-346.48,912.316,99.552
-333.548,912.072,98.332
-347.212,909.876,106.872
-359.656,910.608,109.068
-377.468,905.972,117.608
-371.368,898.896,107.848
-359.168,904.996,107.36
-340.38,914.268,100.772
-334.524,930.616,103.212
-341.844,936.96,103.212
-366.244,932.08,109.068
-388.204,929.152,116.876
-399.916,929.152,111.02
-402.6,936.716,104.92
-406.748,953.064,113.216
-406.26,961.116,116.632
-411.14,956.236,132.248
-422.364,950.868,139.568
-446.764,936.716,154.696
-474.58,908.656,157.38
-515.084,882.792,153.964
-546.804,884.012,155.916
-547.536,891.82,143.228
-557.296,883.768,139.08
-566.812,850.828,139.324
-622.2,778.116,149.816
-701.012,705.404,156.16
-685.396,658.068,138.348
-720.532,638.304,158.844
-708.82,683.444,183.0
-674.416,680.516,162.748
-636.84,711.016,158.844
-491.172,716.872,152.256
-215.208,675.148,128.1
178.852,583.16,-28.548
519.476,549.244,-282.796
708.088,565.592,-224.968
903.776,419.436,4.88
1329.068,245.464,-115.168
1460.828,252.784,-158.844
1274.412,387.96,20.984
1239.764,469.944,83.692
1238.788,487.756,111.508
1141.92,456.28,209.84
1112.396,420.9,200.812
1070.672,430.904,175.436
978.928,488.244,154.94
894.26,532.652,137.372
865.956,557.296,103.212
831.308,549.244,94.184
782.508,518.744,102.968
710.528,473.604,132.248
686.128,433.1,129.564
659.776,389.912,131.272
618.784,362.096,130.54
579.744,310.368,129.32
572.668,244.732,148.108
585.6,191.052,142.984
594.628,153.476,107.116
598.288,122.732,86.864
632.692,78.812,63.928
691.496,30.256,59.048
728.584,-13.908,59.78
759.816,-47.824,41.236
801.784,-81.74,8.54
891.088,-121.024,-37.576
991.128,-143.472,-57.096
1066.28,-191.54,-78.08
1122.4,-240.096,-78.324
1219.024,-263.764,-73.2
1298.812,-283.284,-62.464
1345.904,-292.8,-76.616
1329.8,-293.044,-76.128
1350.296,-289.384,-75.64
1417.152,-302.072,-97.6
1495.232,-307.928,-73.688
1486.936,-296.216,-18.3
1492.304,-279.38,8.784
1494.256,-240.096,56.12
1502.308,-216.672,96.868
1484.984,-189.1,148.84
1480.104,-175.436,183.244
1479.616,-160.552,220.82
1500.844,-162.992,237.656
1514.752,-172.752,285.236
1548.18,-194.712,316.712
1552.084,-232.044,365.024
1575.264,-264.252,403.088
1580.388,-300.364,413.58
1554.036,-334.28,436.76
1522.316,-363.316,443.836
1498.892,-382.348,449.204
1452.044,-396.256,439.2
1414.956,-399.916,419.436
1363.96,-395.036,399.428
1310.28,-360.632,366.976
1260.992,-342.332,325.252
1221.22,-324.276,291.58
1138.26,-318.664,285.236
1028.704,-298.9,249.856
888.892,-256.2,233.752
764.208,-222.528,190.076
649.284,-169.58,138.592
518.5,-109.068,90.28
411.384,-36.6,41.236
312.808,25.864,0.244
239.608,96.624,-33.672
223.748,161.04,-74.664
229.36,223.992,-109.312
282.552,274.5,-106.384
361.608,312.32,-95.16
463.356,342.332,-71.248
597.312,361.12,-18.056
711.26,397.72,25.132
837.164,409.432,69.784
932.812,416.752,159.332
1020.164,414.556,256.932
1087.752,433.1,317.932
1150.704,466.04,304.512
1206.824,503.372,287.676
1201.212,551.684,274.988
1178.276,559.248,252.784
1127.524,554.368,272.06
1068.72,547.292,260.836
1004.304,518.5,231.8
914.512,508.496,179.584
839.116,519.72,114.192
644.404,505.08,68.076
444.568,543.632,46.848
264.252,585.112,51.972
128.1,629.52,54.412
-69.296,634.644,64.416
-347.944,647.82,114.924
-632.936,680.028,124.196
-772.992,769.82,81.008
-946.476,832.772,107.604
-1050.908,844.24,76.86
-1013.332,828.624,-27.084
-1005.524,818.864,-95.404
-903.288,862.296,-130.784
-760.792,862.052,-127.612
-657.092,851.072,-101.748
-594.14,843.752,-61.0
-583.404,856.928,-21.96
-563.396,880.352,-0.976
-548.756,897.432,55.144
-482.144,915.0,59.292
-429.44,925.492,47.58
-396.988,925.492,52.948
-366.732,926.956,51.972
-379.42,914.756,49.044
-385.276,899.628,55.388
-401.868,875.96,43.432
-424.316,849.12,60.512
-442.616,833.504,66.856
-428.464,879.864,59.292
-393.572,908.168,39.04
-386.252,906.46,44.164
-386.008,898.164,49.044
-406.26,893.772,50.508
-437.248,883.036,65.148
-421.388,875.96,64.904
-416.752,873.032,68.076
-412.36,865.956,68.808
-419.68,877.668,69.296
-415.776,882.304,70.516
-418.216,890.6,84.912
-421.144,887.672,92.72
-422.608,879.864,81.008
-434.32,877.18,79.3
-427.244,880.84,74.176
-405.284,887.184,57.584
-395.036,892.796,63.928
-384.544,893.04,64.172
-400.16,890.6,73.688
-414.312,889.624,76.372
-435.784,876.692,88.084
-436.272,876.204,92.964
-426.756,876.936,90.768
-419.192,885.964,94.916
-401.624,896.944,79.3
-405.04,897.432,72.712
-411.14,891.332,71.492
-436.272,874.496,77.836
-449.204,869.616,91.5
-451.156,873.276,93.452
-439.932,880.352,94.428
-416.508,898.896,88.572
-386.984,906.216,79.544
-381.372,903.288,84.668
-391.864,892.552,86.864
-413.824,885.964,98.82
-435.296,881.572,101.26
-440.42,885.232,98.088
-434.564,892.796,79.544
-423.828,901.58,71.492
-434.564,900.848,71.004
-448.96,900.36,62.708
-474.336,898.652,77.348
-479.704,901.58,78.812
-497.516,899.628,93.696
-506.544,904.02,107.848
-519.72,905.24,105.896
-518.256,906.948,101.992
-530.212,898.896,105.652
-561.2,867.664,109.068
-615.124,814.472,122.732
-688.08,791.78,148.84
-675.392,799.344,175.68
-662.948,774.944,189.344
-732.488,723.948,206.18
-721.264,681.98,211.792
-596.336,642.452,168.116
-533.384,615.124,153.232
-458.476,585.844,120.048
-293.776,563.152,112.728
4.148,502.152,36.844
244.244,402.6,-72.712
592.188,378.688,-111.996
870.836,303.292,-11.468
1143.628,79.3,112.484
1476.688,-73.444,30.988
1661.884,-53.924,58.56
1610.644,182.024,143.472
1560.38,357.46,79.788
1453.996,469.212,68.564
1322.724,521.916,30.256
1197.308,540.46,-2.684
1107.272,537.776,21.96
1076.04,534.116,26.108
1009.428,525.576,39.04
913.292,531.676,75.152
831.308,516.548,90.768
759.328,501.42,104.676
700.28,483.12,109.068
664.168,451.644,106.384
652.212,415.532,95.404
620.736,376.248,87.84
580.232,337.696,97.112
549.0,296.704,114.68
536.068,249.368,141.032
550.22,195.444,164.7
579.256,137.86,163.236
590.724,79.056,161.04
608.292,32.452,157.136
663.436,-2.928,122.976
754.692,-55.388,90.768
831.064,-111.752,78.812
919.88,-157.38,47.824
1017.724,-175.924,-11.224
1080.432,-187.392,-62.22
1107.76,-202.52,-95.892
1181.936,-233.752,-115.412
1227.076,-288.652,-75.884
1287.1,-346.968,-27.328
1329.068,-385.276,-7.564
1347.856,-385.032,-1.22
1380.308,-344.04,-19.52
1418.86,-274.256,-42.456
1450.092,-220.332,-57.34
1468.636,-190.564,-54.656
1477.664,-173.484,-28.304
1486.204,-170.068,17.568
1486.204,-163.724,67.1
1479.372,-171.532,94.184
1484.008,-185.196,149.572
1507.188,-222.284,201.056
1507.92,-269.62,288.164
1540.86,-306.952,335.988
1567.456,-343.552,369.416
1550.376,-365.024,399.184
1526.708,-365.024,416.02
1488.4,-360.876,412.604
1465.22,-362.096,414.068
1450.092,-361.364,383.324
1405.196,-349.408,349.164
1367.376,-330.132,315.98
1312.72,-317.2,300.608
1279.292,-294.508,269.132
1252.696,-283.284,244.732
1200.236,-265.96,229.36
1171.932,-230.58,189.588
1089.216,-197.152,153.232
1012.112,-167.384,128.1
913.78,-138.592,107.848
816.668,-105.408,84.912
711.016,-69.296,72.712
575.84,-27.572,73.932
457.256,18.788,60.024
354.288,70.516,36.844
275.72,119.072,7.808
213.744,188.124,-19.032
180.56,258.152,-50.02
189.588,319.64,-71.248
228.872,379.664,-78.324
298.412,418.216,-84.912
421.388,455.304,-81.984
557.296,483.608,-66.124
686.372,505.812,-22.204
814.716,510.448,14.396
955.016,510.448,29.036
1067.256,509.96,52.704
1128.256,491.904,113.704
1148.264,462.38,190.808
1196.82,456.768,213.5
1192.916,459.94,220.088
1171.2,471.164,211.304
1108.492,476.532,229.116
1026.752,492.88,250.588
1009.184,502.396,202.276
978.196,517.28,160.308
932.08,532.652,138.592
877.18,579.256,109.068
781.288,604.388,113.216
708.576,632.448,92.964
668.804,665.388,44.164
637.328,699.06,-67.832
585.112,752.252,-156.16
509.472,800.564,-165.188
334.28,855.708,-110.044
216.916,859.368,-71.492
46.848,810.08,-3.66
-138.592,783.24,45.872
-295.972,802.76,137.372
-422.364,836.188,212.036
-470.92,860.832,211.548
-525.576,873.52,190.076
-662.216,879.62,178.364
-719.556,863.272,118.096
-697.84,867.42,58.56
-730.048,883.768,24.644
-739.808,897.188,9.028
-678.32,893.772,-30.256
-633.912,913.048,-25.864
-561.2,939.156,0.488
-494.1,954.04,54.412
-436.028,955.748,114.68
-401.136,938.912,148.108
-377.956,927.688,152.988
-353.556,903.532,146.4
-356.484,876.936,143.472
-370.88,883.524,138.836
-379.42,876.204,99.552
-417.24,865.468,105.652
-424.316,864.248,101.748
-403.82,898.652,61.976
-383.324,912.072,46.36
-388.692,902.312,63.44
-399.672,890.356,74.42
-399.672,890.6,76.86
-391.864,883.524,64.66
-396.988,899.384,87.352
-338.672,930.128,59.78
-342.576,952.088,53.436
-315.248,954.04,41.724
-328.668,936.716,70.516
-343.308,907.68,89.548
-370.392,889.38,106.628
-390.4,883.768,124.684
-397.232,892.552,129.32
-370.88,909.632,106.628
-338.916,918.66,92.72
-329.156,910.12,92.964
-337.208,897.188,102.236
-359.412,891.576,114.192
-375.516,894.992,114.436
-374.784,899.628,110.532
-354.044,914.512,90.28
-331.352,925.98,79.3
-319.884,923.54,71.004
-339.404,916.952,77.592
-360.876,915.244,84.668
-383.324,919.636,90.768
-379.42,918.416,85.156
-367.952,910.12,78.568
-354.532,909.144,72.224
-350.14,914.024,72.224
-365.756,916.708,79.544
-377.956,919.392,84.668
-374.54,921.832,91.988
-364.536,922.076,91.256
-347.212,922.808,85.156
-338.184,917.928,83.692
-350.628,919.148,91.256
-364.292,915.244,95.16
-383.324,901.092,101.016
-396.256,898.164,104.188
-398.208,907.68,98.576
-394.304,930.128,94.672
-392.596,958.92,99.308
-400.892,971.852,108.824
-412.604,970.876,117.12
-436.272,960.872,128.588
-466.528,946.232,143.228
-514.84,910.12,153.964
-560.468,861.32,155.184
-605.608,830.332,169.58
-618.296,826.428,180.316
-654.408,821.06,192.76
-653.676,790.56,197.64
-643.428,721.996,194.956
-625.616,642.208,179.828
-592.188,583.892,159.088
-570.228,596.092,157.624
-456.28,669.048,152.256
-284.748,677.344,147.132
-11.712,613.904,84.424
281.576,524.844,-30.5
585.356,477.996,-104.92
819.108,403.576,-100.528
1042.124,218.38,-47.336
1310.524,46.848,-139.08
1301.252,108.336,95.404
1295.64,155.916,274.988
1424.472,171.532,253.028
1465.952,219.112,220.576
1370.792,293.776,153.476
1222.684,377.224,172.264
1152.168,438.224,102.724
1088.24,468.48,65.636
1047.004,482.388,61.732
987.956,460.184,71.98
938.668,422.608,79.3
910.852,386.984,96.38
821.304,352.336,119.316
759.328,335.5,119.316
689.544,305.244,118.34
623.176,266.692,133.468
583.648,208.864,163.724
549.0,138.836,199.836
537.044,75.884,198.372
501.42,15.86,206.668
548.512,-34.648,213.256
640.256,-92.476,189.344
709.796,-140.788,154.452
787.632,-169.824,78.568
930.86,-195.2,-49.288
1040.66,-199.348,-106.384
1121.668,-215.452,-168.36
1195.844,-234.24,-192.028
1242.936,-249.368,-207.888
1270.752,-265.472,-199.348
1318.332,-292.556,-174.216
1383.48,-311.588,-152.256
1419.104,-326.228,-89.548
1437.892,-341.844,-20.008
1413.736,-330.62,40.504
1416.908,-313.54,90.28
1402.512,-287.432,141.032
1409.588,-269.376,174.216
1424.228,-257.176,225.7
1456.924,-263.276,291.092
1487.18,-283.284,362.34
1554.036,-329.4,402.356
1588.928,-363.072,449.204
1611.132,-384.544,472.384
1595.272,-377.224,472.628
1581.608,-360.144,456.768
1543.788,-364.536,442.616
1536.956,-368.684,406.748
1503.284,-381.86,376.736
1454.484,-396.012,360.876
1398.364,-401.624,336.72
1329.068,-378.688,302.804
1284.904,-348.92,261.568
1228.784,-336.72,242.536
1163.148,-295.24,227.652
1044.564,-254.004,197.152
924.028,-206.668,170.8
807.64,-151.28,136.64
727.852,-88.328,86.376
602.924,-35.38,74.176
518.012,27.572,79.056
441.64,76.616,63.44
383.324,134.932,35.624
322.568,175.68,8.784
265.96,237.168,-2.928
242.048,304.268,-31.72
263.52,354.044,-57.34
333.548,385.032,-66.124
393.084,418.46,-45.628
480.68,430.416,-34.648
578.28,437.004,27.328
673.684,442.86,92.232
801.54,443.592,105.896
907.924,451.644,159.332
1013.332,446.032,208.864
1106.296,431.392,234.484
1141.676,418.704,268.156
1118.74,420.168,312.32
1108.004,415.532,348.92
1126.06,406.26,334.036
1107.76,438.224,298.9
1041.148,456.28,255.468
970.144,450.424,255.712
885.232,489.708,297.192
851.316,506.544,267.18
779.58,519.964,249.124
663.924,579.744,219.844
607.804,620.492,152.744
605.852,652.212,54.656
566.812,691.252,39.772
468.236,745.42,47.092
335.5,788.608,46.36
139.812,791.536,64.904
-72.224,829.356,137.616
-213.744,858.148,162.748
-409.92,898.896,162.992
-580.72,925.248,100.528
-701.012,958.432,83.204
-766.16,969.412,103.456
-797.392,958.432,44.896
-827.892,935.984,-7.564
-794.708,918.66,-41.968
-721.508,894.26,-83.692
-662.46,874.008,-62.708
-586.82,873.276,-8.784
-520.94,875.96,11.956
-478.484,880.352,49.532
-431.392,897.92,93.696
-397.232,918.904,121.512
-363.316,939.644,119.56
-340.136,955.26,133.712
-319.64,948.184,131.028
-300.364,948.916,136.396
-286.944,926.224,138.348
-303.048,898.652,153.964
-310.368,869.616,148.84
-322.08,876.936,143.96
-334.036,883.768,131.028
-336.964,911.096,112.728
-324.276,937.204,98.332
-299.144,967.46,88.572
-278.648,974.048,74.176
-291.092,969.412,92.72
-301.34,960.384,98.82
-309.88,948.428,91.744
-336.232,934.032,102.48
-335.012,914.512,104.188
-318.664,915.976,99.552
-315.98,899.872,87.84
-315.492,917.928,96.868
-312.564,910.852,96.136
-324.276,911.584,101.992
-310.124,925.492,94.672
-310.856,922.808,90.036
-296.216,948.428,87.108
-285.724,948.672,82.716
-295.728,942.816,94.428
-284.992,932.08,88.816
-300.608,933.544,101.26
-295.24,933.3,94.672
-289.872,939.4,87.596
-286.212,937.692,87.352
-287.92,934.032,93.696
-300.608,931.348,103.944
-313.052,940.376,104.92
-315.736,952.576,101.748
-302.56,943.792,86.376
-292.068,939.156,77.348
-286.456,930.86,75.64
-295.484,929.152,85.4
-308.416,924.028,96.868
-324.032,919.636,104.92
-321.348,918.416,106.14
-306.22,921.832,98.332
-277.672,931.592,88.572
-264.008,929.884,88.816
-272.06,933.788,102.724
-290.36,935.984,109.556
-305.0,940.376,107.116
-307.44,942.084,97.844
-293.044,944.524,89.304
-284.26,944.28,86.132
-282.552,939.4,87.352
-301.096,938.668,95.404
-314.516,938.18,99.552
-314.76,943.548,99.796
-307.44,939.644,98.82
-303.048,937.204,100.284
-308.66,932.812,100.528
-316.712,936.716,101.26
-332.572,942.328,109.068
-337.696,947.696,113.704
-357.948,947.696,123.708
-374.052,949.892,131.516
-393.084,944.524,133.956
-397.476,936.716,109.556
-403.332,936.472,101.016
-412.116,932.812,91.744
-435.052,923.784,107.116
-458.964,900.116,135.176
-501.176,867.176,174.216
-529.968,849.12,220.332
-506.788,852.78,230.58
-481.656,844.972,208.376
-489.952,817.4,195.932
-464.576,782.996,176.412
-433.1,734.196,152.5
-419.192,681.004,115.168
-442.372,661.728,119.804
-386.984,659.532,108.336
-312.076,627.812,119.56
-71.004,570.96,98.82
251.32,484.096,2.196
673.44,398.452,-143.96
1006.988,366.976,-122.0
1144.36,136.152,-162.992
1441.796,1.952,-212.524
1446.188,117.12,-0.244
1414.712,163.968,108.092
1538.42,174.704,50.02
1500.844,213.988,71.248
1419.104,256.932,88.572
1323.944,314.76,74.176
1276.608,345.016,66.612
1202.188,352.58,76.372
1130.94,363.56,76.128
1055.788,376.492,71.004
942.572,393.084,90.28
909.876,405.04,74.664
872.3,398.208,66.856
822.768,379.908,67.344
777.384,364.292,56.608
734.684,338.184,57.584
692.228,311.344,64.172
634.156,274.988,87.596
578.524,218.136,107.604
556.32,162.504,128.832
526.308,96.136,143.228
534.604,24.888,155.184
545.584,-58.072,180.56
589.504,-149.816,218.868
611.464,-239.364,230.092
635.62,-300.608,193.98
720.776,-340.38,129.808
890.844,-357.704,35.38
1076.04,-379.908,-50.996
1230.248,-388.692,-91.5
1250.988,-387.96,-87.84
1273.436,-384.056,-80.032
1338.828,-395.768,-52.948
1433.256,-408.944,-31.964
1486.448,-410.408,-0.244
1483.032,-395.524,59.536
1473.028,-376.248,118.828
1496.452,-358.924,191.54
1515.24,-353.312,250.1
1504.016,-333.304,340.38
1494.5,-326.96,404.064
1459.852,-309.148,477.264
1445.456,-302.56,528.992
1458.632,-315.248,548.268
1493.768,-334.768,546.56
1534.272,-354.044,537.776
1561.112,-383.812,514.108
1552.328,-429.44,527.04
1519.876,-464.332,531.432
1459.852,-486.78,541.924
1418.616,-507.276,529.724
1412.76,-515.572,494.344
1370.304,-518.5,455.304
1276.608,-503.616,422.12
1172.176,-480.924,396.988
1067.5,-421.876,366.732
992.836,-372.344,305.976
896.7,-332.084,264.496
775.432,-281.088,236.68
645.38,-233.996,199.592
549.488,-168.36,168.604
482.144,-107.848,123.464
422.608,-38.552,85.644
365.756,29.768,40.504
340.38,103.7,4.392
313.54,167.384,-14.152
335.744,228.384,-30.256
382.348,272.548,-29.768
450.18,310.124,-6.832
524.844,326.228,10.492
606.34,346.968,37.332
713.212,363.072,68.076
801.296,371.612,95.16
903.532,387.716,121.756
1011.624,384.544,150.304
1070.916,377.224,193.248
1125.572,378.2,237.656
1177.056,370.148,259.616
1221.22,358.436,273.28
1212.924,359.656,301.34
1209.508,335.256,302.072
1206.58,318.42,305.0
1180.96,301.34,325.984
1163.88,288.896,341.112
1174.372,310.124,318.664
1129.476,327.204,279.38
1073.112,345.992,270.596
979.416,383.08,239.364
904.508,437.492,205.204
925.004,491.904,92.964
933.544,519.232,3.904
814.716,556.076,-18.788
613.904,616.344,-8.052
361.12,634.644,-21.228
87.352,676.612,41.968
-88.572,742.248,114.192
-236.192,732.976,153.232
-532.896,685.152,230.824
-791.536,684.42,326.716
-984.296,672.22,406.504
-1055.056,610.0,359.168
-1040.66,546.072,257.664
-1016.748,510.936,169.58
-879.132,562.664,91.744
-760.06,629.52,50.752
-640.744,689.544,45.628
-569.984,767.38,36.356
-533.14,849.364,54.9
-489.22,920.612,83.936
-485.316,959.164,119.072
-467.992,980.148,119.56
-430.904,962.824,109.068
-404.064,959.896,88.328
-401.624,926.956,70.76
-399.428,911.584,79.788
-391.132,897.676,37.82
-418.216,887.672,82.228
-416.752,864.736,118.096
-433.588,852.048,144.448
-437.736,839.116,168.116
-434.076,851.804,176.9
-410.652,872.544,160.552
-377.224,879.864,136.152
-361.608,877.668,146.644
-350.628,874.74,148.108
-365.756,870.836,159.576
-393.328,882.06,167.628
-406.504,893.772,152.5
-394.792,910.608,134.932
-375.028,913.78,114.192
-364.536,914.756,99.308
-364.048,915.732,90.768
-366.488,916.708,87.352
-385.276,911.34,91.256
-400.892,906.704,103.212
-402.6,907.924,106.872
-390.644,905.24,117.852
-366.732,902.312,114.436
-339.16,910.12,110.288
-325.008,905.24,100.772
-337.208,901.58,101.016
-352.092,904.508,104.188
-361.364,908.168,105.652
-366.976,906.46,114.192
-357.704,912.56,119.316
-340.38,913.048,107.116
-336.964,913.048,102.968
-331.596,907.924,94.672
-342.576,912.072,90.28
-361.364,913.78,96.136
-365.512,922.564,104.92
-369.172,919.148,103.456
-351.36,915.976,110.776
-351.604,900.604,115.656
-346.968,896.456,110.288
-345.748,898.896,108.58
-345.504,904.264,100.04
-355.02,907.192,103.212
-351.36,920.856,107.848
-331.84,934.52,107.604
-319.396,929.884,104.432
-315.004,927.932,99.552
-323.3,926.224,99.308
-323.056,929.64,92.964
-320.372,935.74,83.448
-310.368,941.596,82.228
-297.924,943.06,78.812
-296.948,938.424,76.128
-302.804,931.592,78.324
-306.22,934.032,80.52
-313.54,939.156,84.668
-308.66,942.816,81.496
-312.32,936.472,80.276
-320.372,929.64,81.984
-332.328,927.688,81.984
-345.016,925.492,82.96
-345.992,925.492,72.224
-349.164,923.784,76.128
-353.068,924.516,86.62
-355.508,924.272,93.696
-350.14,925.98,97.844
-336.964,927.444,102.236
-329.156,934.276,101.26
-332.084,935.496,99.064
-342.576,941.108,100.04
-358.436,945.012,99.552
-377.468,953.064,102.724
-396.256,958.676,106.628
-415.044,970.144,111.752
-428.708,977.464,114.68
-452.62,972.096,111.996
-485.072,962.336,116.632
-528.26,938.668,134.444
-571.692,879.864,148.352
-624.884,806.42,161.04
-668.56,741.028,172.508
-701.744,684.908,178.12
-699.06,662.216,178.852
-680.516,686.372,176.656
-683.688,687.836,160.064
-659.288,681.98,155.428
-677.344,666.364,165.432
-538.02,699.304,146.156
-411.14,727.852,149.572
-205.692,719.8,170.312
24.644,608.536,114.192
298.168,527.04,-62.464
562.664,472.628,-207.644
740.784,451.4,-143.472
1012.356,375.028,-148.352
1327.116,353.8,-237.412
1256.844,385.764,-30.012
1294.42,414.8,70.516
1353.224,407.968,25.62
1245.62,485.804,70.76
1158.756,549.244,107.848
1093.852,564.128,97.356
1012.356,571.448,69.296
936.716,572.424,48.556
844.484,586.332,47.58
782.508,581.452,37.088
717.848,556.808,49.776
682.224,520.94,80.032
637.084,457.988,128.588
577.304,380.884,175.192
531.676,298.656,174.216
509.716,229.116,186.904
503.128,171.044,195.444
516.548,119.804,170.556
540.216,69.784,161.772
577.792,0.732,146.888
601.216,-55.388,113.948
663.924,-99.796,51.484
734.44,-149.328,-6.832
799.588,-202.52,-31.232
906.46,-250.344,-91.256
1039.928,-284.748,-149.816
1142.408,-324.032,-179.584
1244.156,-335.256,-174.216
1325.652,-346.48,-198.128
1394.216,-332.816,-214.72
1471.32,-315.98,-225.212
1538.42,-282.552,-218.136
1579.9,-261.324,-190.564
1578.68,-249.368,-139.568
1603.568,-256.444,-80.032
1613.084,-258.152,-19.276
1610.156,-249.368,40.016
1588.928,-232.532,91.988
1563.796,-213.256,140.544
1549.4,-200.812,188.368
1562.82,-191.784,241.316
1586.732,-217.404,295.24
1620.648,-250.1,357.704
1655.052,-289.14,380.396
1659.932,-335.012,406.26
1645.78,-366.976,431.88
1597.956,-383.568,419.924
1532.32,-388.204,399.428
1463.756,-386.984,373.808
1405.44,-375.028,338.428
1348.588,-362.096,299.144
1298.568,-346.968,259.86
1234.64,-328.424,237.412
1163.88,-317.2,213.744
1082.628,-300.12,206.18
989.908,-277.428,201.788
875.96,-247.416,181.048
760.792,-202.52,150.792
659.288,-152.744,109.556
551.684,-106.14,73.688
431.148,-49.044,51.728
359.9,14.884,33.184
332.816,81.252,-3.172
314.028,138.104,-29.768
309.392,203.496,-56.364
325.008,266.692,-71.004
392.108,311.588,-67.832
480.192,352.336,-60.268
563.152,380.884,-53.68
633.424,404.796,-13.42
711.016,429.928,34.892
799.588,438.712,64.904
880.352,437.492,95.16
947.208,431.88,118.34
1016.992,423.34,147.864
1072.38,398.208,179.584
1117.276,382.592,193.492
1134.112,357.216,251.32
1170.956,314.76,299.144
1215.12,273.036,323.544
1240.74,270.352,237.656
1202.676,283.04,201.544
1138.504,324.52,174.216
1009.672,354.288,124.196
885.964,411.872,77.104
762.012,432.368,-6.344
533.628,473.604,-28.792
344.284,568.032,-65.392
179.34,656.604,-51.728
22.448,787.388,17.08
-104.432,897.676,49.532
-235.216,986.492,104.92
-326.228,1043.1,85.888
-433.344,1047.004,55.632
-480.68,1073.112,38.552
-490.684,1124.596,51.728
-476.532,1123.864,35.136
-517.768,1095.316,37.576
-480.68,1069.452,22.692
-410.652,1058.96,20.74
-333.304,1044.808,12.688
-278.404,1023.092,-6.1
-243.756,989.664,-40.016
-250.1,965.752,-8.54
-244.488,973.072,22.204
-245.464,972.584,31.72
-236.68,984.296,69.296
-180.072,973.072,43.676
-147.864,975.512,39.284
-106.384,974.292,24.644
-108.58,965.752,42.7
-118.828,951.356,58.072
-154.452,942.084,64.66
-180.56,943.06,73.2
-183.0,963.556,65.636
-162.26,982.832,42.212
-146.4,993.324,31.964
-131.028,988.444,18.056
-149.816,985.028,22.448
-165.92,980.148,25.864
-181.048,982.344,40.016
-187.636,967.704,41.968
-153.72,981.124,33.184
-142.496,990.884,30.256
-118.828,998.204,16.592
-125.416,983.076,20.984
-124.44,974.536,26.352
-140.3,958.188,34.16
-130.296,969.9,37.088
-112.484,982.344,41.724
-95.16,989.908,31.72
-95.648,982.832,27.084
-106.14,978.928,30.744
-114.68,982.344,28.06
-116.632,983.32,30.5
-107.36,978.684,30.012
-93.94,975.024,30.012
-104.188,977.464,28.792
-115.9,984.54,34.404
-116.632,980.636,31.476
-114.436,976.732,32.696
-105.652,978.44,30.256
-89.792,1002.352,30.012
-74.664,1007.232,27.572
-66.612,1000.4,36.356
-72.712,987.224,39.528
-89.304,977.708,49.776
-103.212,979.66,49.532
-97.844,986.736,37.088
-86.62,993.08,23.668
-61.732,999.912,13.908
-58.56,993.08,11.712
-79.3,982.1,23.18
-107.116,972.34,34.16
-126.636,970.388,37.332
-111.752,982.588,28.548
-93.696,996.496,17.812
-65.88,997.716,1.464
-60.756,998.936,4.88
-72.468,996.008,17.08
-93.452,992.104,30.5
-104.432,989.176,31.232
-101.016,991.128,27.084
-103.7,999.424,26.352
-114.924,1001.62,24.644
-117.12,997.228,15.616
-113.704,993.568,15.616
-106.628,998.692,15.86
-115.412,1008.94,20.984
-122.488,1012.112,29.524
-130.296,1011.38,38.308
-146.888,1005.28,44.896
-157.868,999.18,51.728
-170.312,993.324,59.292
-175.68,992.104,66.612
-173.972,997.716,68.076
-166.896,1005.28,58.804
-171.044,1008.452,56.364
-164.212,1005.768,56.12
-170.8,997.96,65.392
-162.504,983.32,77.104
-144.448,967.46,76.372
-148.352,956.724,89.548
-143.96,945.744,83.936
-160.552,937.692,79.544
-188.368,943.304,85.156
-219.6,952.82,84.912
-249.612,950.624,83.448
-274.256,939.4,94.916
-310.124,928.908,109.312
-351.116,918.904,119.804
-420.656,886.452,138.592
-460.672,852.536,128.344
-521.184,818.376,124.928
-574.62,795.196,124.928
-572.424,777.628,103.456
-589.26,768.6,85.4
-658.068,760.792,74.176
-662.46,763.964,59.292
-553.88,746.152,27.328
-419.192,686.86,36.356
-156.648,596.336,53.192
304.024,465.308,-29.036
795.44,370.148,-280.6
930.372,237.9,-257.908
1138.504,21.716,-33.428
1459.12,-127.856,53.68
1519.388,-97.844,145.424
1454.972,-30.744,280.112
1445.7,52.704,287.188
1409.588,113.948,279.868
1351.272,175.436,314.76
1316.136,200.324,280.356
1209.752,211.304,279.868
1146.556,252.54,254.004
1089.46,301.584,207.888
981.124,342.332,197.152
901.092,373.32,163.968
828.136,372.1,143.472
779.336,350.384,123.22
743.712,317.2,81.008
707.112,264.74,50.02
662.46,213.988,57.096
615.124,158.6,93.94
568.276,94.428,119.316
538.02,35.38,137.372
526.308,-8.296,141.032
569.496,-51.484,100.284
648.552,-92.476,48.312
729.804,-138.104,-6.1
801.052,-199.348,-26.84
874.496,-253.516,-32.696
953.796,-308.172,-31.232
1079.944,-340.38,-60.268
1193.16,-354.288,-66.368
1272.704,-368.44,-83.936
1308.816,-345.992,-70.272
1378.112,-332.084,-95.892
1429.596,-318.42,-101.504
1467.66,-301.828,-80.764
1496.452,-304.512,-43.676
1486.692,-325.74,52.948
1503.772,-335.5,140.788
1539.396,-337.696,174.46
1537.688,-295.972,229.116
1541.836,-248.636,270.596
1532.808,-216.916,293.776
1556.72,-212.524,315.736
1589.66,-236.436,326.472
1596.736,-270.84,373.564
1612.108,-305.488,396.012
1584.78,-336.964,401.38
1544.032,-345.748,402.356
1507.432,-353.312,388.204
1474.004,-371.124,370.148
1422.764,-383.568,365.024
1366.888,-375.028,345.504
1316.38,-376.98,336.476
1289.54,-367.952,323.3
1208.776,-356.484,307.196
1119.472,-327.936,288.896
1052.372,-279.38,263.032
963.556,-242.536,228.384
865.468,-217.892,189.588
704.184,-164.212,173.24
611.464,-94.428,136.152
521.916,-46.36,106.384
420.656,9.272,80.276
361.852,76.86,26.84
303.78,146.156,-11.224
251.076,226.432,-22.692
259.86,287.432,-48.312
298.168,323.3,-60.268
366.244,366.732,-37.576
438.224,382.836,-1.464
539.972,403.576,30.744
627.812,423.096,44.896
722.972,445.788,50.264
815.936,477.752,58.804
878.156,504.592,70.028
976.976,504.104,75.152
1065.06,482.388,117.12
1151.924,451.888,156.648
1221.464,426.756,174.704
1219.024,411.384,203.252
1179.74,406.992,244.244
1144.848,377.224,236.436
1104.588,352.336,230.58
1028.46,343.552,228.628
941.84,333.792,242.292
893.528,322.812,241.56
876.448,335.744,210.572
869.128,335.744,205.204
854.976,361.364,222.528
776.408,349.652,219.112
668.804,334.768,200.568
613.904,391.864,162.016
592.188,473.604,119.072
424.804,564.128,136.884
200.568,691.984,157.38
58.804,840.58,135.176
-2.684,994.3,77.104
-74.908,1089.216,17.08
-224.968,1152.168,55.632
-162.26,1196.332,-34.404
-155.428,1155.34,-93.696
-152.012,1120.448,-121.512
-136.396,1085.068,-207.4
-255.224,1105.32,-193.004
-256.444,1129.964,-215.94
-261.08,1189.012,-204.472
-274.744,1194.868,-193.004
-204.716,1175.104,-196.176
-120.536,1131.672,-235.46
-77.836,1094.584,-212.28
-38.552,1055.056,-215.208
-34.404,1037.732,-198.372
-14.396,1032.608,-175.924
-0.488,1025.044,-161.772
20.984,1020.652,-163.236
16.348,1006.744,-134.688
30.988,995.52,-114.192
18.056,982.832,-81.496
6.588,965.752,-39.284
20.496,966.484,-17.812
15.86,958.676,0.0
35.624,955.016,-3.416
51.484,959.408,-5.612
53.192,965.264,-8.54
58.804,972.34,-16.592
41.968,978.684,-5.368
14.884,973.56,4.392
-10.248,971.12,12.688
-11.224,976.0,10.004
-4.636,972.096,-7.808
17.324,980.88,-28.548
38.308,986.492,-44.652
49.044,997.228,-42.456
48.556,993.812,-39.284
13.908,985.272,-20.74
-2.44,986.248,-14.884
10.248,996.496,-26.352
43.188,1011.868,-37.332
70.028,1014.064,-54.9
53.436,1006.256,-56.608
29.768,1000.156,-47.336
14.396,1005.036,-40.016
11.224,1002.352,-31.476
21.716,994.544,-32.452
6.588,983.564,-28.548
-3.66,977.22,-27.816
-24.644,969.9,-20.252
-13.42,968.68,-21.96
-2.44,966.728,-21.228
29.28,973.56,-25.132
23.912,979.904,-20.74
-2.196,981.612,-9.028
-20.984,986.98,-0.488
-12.932,987.224,-7.32
7.076,987.224,-24.644
11.712,987.468,-27.328
12.2,984.54,-17.568
4.148,982.1,-11.956
1.708,985.76,5.124
18.544,990.64,-0.244
27.328,993.812,-0.244
40.26,1004.06,-6.344
33.916,1006.256,-6.832
23.424,1003.572,0.488
15.372,999.18,4.392
25.132,998.936,-0.488
22.692,997.96,-2.928
14.884,994.056,-7.32
-6.1,994.788,-2.928
-7.564,995.764,-7.32
-10.492,989.908,0.732
20.496,992.348,-6.344
19.764,993.812,0.732
17.08,988.932,-5.612
-3.904,981.856,0.0
-9.272,978.928,-5.368
-13.42,980.148,-4.636
-5.856,979.904,-13.908
1.22,987.956,-18.056
5.368,991.616,-18.788
6.344,996.252,-10.736
-0.976,993.324,-8.296
-4.148,997.716,4.636
-6.588,997.472,-0.244
10.004,1001.864,-10.248
11.712,1009.428,-4.636
11.956,1014.552,-9.76
1.708,1017.968,-2.196
-17.324,1017.968,2.928
-7.32,1010.648,-8.784
-5.856,1011.624,-11.712
-8.784,1015.284,-15.372
-22.204,1011.624,-15.128
-38.552,1016.748,-4.148
-50.02,1010.16,-0.976
-40.504,1007.964,-4.636
-36.356,1003.328,-4.148
-34.648,1004.06,-0.976
-46.36,1017.236,12.444
-72.956,1021.628,31.72
-81.984,1030.9,42.7
-87.352,1030.656,45.384
-74.908,1029.924,32.208
-79.788,1025.532,19.52
-107.36,1028.46,22.692
-140.056,1039.44,35.624
-179.096,1048.712,55.876
-205.448,1041.148,68.32
-226.92,1030.9,69.54
-244.0,1024.068,65.636
-261.812,1005.036,54.656
-288.652,976.0,40.26
-336.232,933.788,41.236
-433.588,880.352,51.24
-506.056,830.332,63.44
-532.896,793.732,82.228
-529.236,752.984,83.204
-480.68,737.612,80.032
-419.924,713.456,52.704
-339.648,699.06,35.624
-183.244,666.12,25.376
150.304,587.308,-16.592
430.172,471.164,-190.32
729.804,409.432,-315.98
1079.212,256.2,-243.024
1336.632,159.088,-167.14
1472.784,67.1,-146.156
1485.472,83.692,34.404
1449.848,148.108,131.028
1393.728,220.088,144.692
1292.224,274.988,140.056
1200.968,345.748,115.168
1153.388,382.348,63.928
1092.144,397.72,62.708
1042.368,410.652,44.164
996.74,432.124,36.844
911.828,461.648,57.828
835.7,472.628,71.492
802.272,476.288,62.708
782.264,460.428,52.216
766.648,437.736,38.796
727.12,404.796,49.288
699.304,358.192,71.248
685.396,304.024,83.692
649.528,256.932,101.016
605.608,226.432,132.736
554.856,194.956,145.18
526.308,150.304,138.104
520.452,113.704,115.412
549.244,66.856,89.06
548.024,-0.488,72.224
600.484,-93.696,41.724
670.024,-180.804,30.988
748.836,-246.196,-4.88
833.992,-284.748,-48.8
922.32,-315.004,-124.928
1119.96,-320.372,-238.876
1238.056,-345.748,-263.764
1340.536,-352.824,-310.856
1406.172,-352.092,-334.28
1393.972,-332.816,-307.44
1445.212,-324.52,-292.068
1479.128,-324.52,-262.788
1519.144,-312.808,-217.404
1521.828,-294.996,-141.276
1502.796,-266.936,-61.488
1507.432,-240.584,2.44
1500.112,-214.232,75.884
1481.568,-189.832,139.812
1461.316,-180.56,197.884
1446.188,-179.584,239.608
1435.696,-183.732,277.184
1473.028,-202.032,276.452
1520.852,-234.24,273.768
1536.956,-259.616,283.528
1525.488,-281.332,290.604
1506.456,-285.724,269.132
1456.192,-285.968,264.74
1436.184,-287.92,248.148
1425.936,-282.552,221.308
1389.824,-295.24,212.768
1384.212,-296.948,201.544
1365.18,-291.824,178.852
1322.968,-261.324,160.064
1330.776,-229.604,104.188
1311.256,-217.648,70.028
1256.356,-189.588,48.8
1160.464,-184.708,48.312
1074.82,-162.748,54.9
976.0,-146.888,41.724
861.564,-116.632,40.992
736.392,-81.496,30.5
623.908,-41.968,22.936
498.736,5.124,23.18
394.548,59.78,24.644
319.64,104.188,9.76
273.524,167.872,-8.052
238.876,233.02,-30.744
258.396,285.48,-56.608
281.332,332.572,-52.46
369.172,352.58,-38.064
451.888,374.784,-2.44
545.584,391.376,6.344
628.3,416.996,40.016
718.092,444.812,59.048
805.444,471.408,46.36
879.864,492.392,55.144
956.968,505.812,74.42
1042.368,492.636,84.668
1125.084,472.384,94.916
1162.172,454.816,107.36
1177.544,437.736,113.948
1155.828,408.7,141.032
1114.348,388.692,180.316
1087.752,363.316,197.152
1063.108,345.504,210.572
1065.304,328.668,184.708
1123.376,300.608,136.152
1145.824,283.528,105.408
1039.928,273.768,107.848
823.988,338.428,187.636
747.86,438.224,170.312
691.984,523.136,142.252
562.664,567.544,17.324
296.216,612.928,-16.348
172.752,708.82,-53.924
155.672,810.812,1.22
172.02,907.68,56.12
162.26,962.824,106.628
-0.732,985.272,147.132
-173.24,997.96,80.032
-234.484,1020.164,-6.1
-325.008,1084.336,28.304
-364.292,1163.88,-8.54
-422.608,1218.048,-68.564
-486.536,1204.14,-98.332
-454.572,1185.352,-143.228
-402.112,1149.728,-172.996
-367.464,1095.072,-171.288
-313.052,1039.684,-205.204
-284.748,1010.892,-188.368
-200.324,1009.428,-161.772
-153.232,992.348,-143.96
-163.968,979.172,-122.0
-169.58,963.556,-114.924
-202.764,955.992,-82.472
-193.004,973.804,-77.104
-202.032,962.336,-73.444
-183.244,968.68,-66.368
-161.772,956.48,-59.536
-111.508,955.016,-70.76
-148.596,933.3,-37.576
-128.588,936.716,-30.5
-145.18,928.908,-17.324
-141.52,944.524,2.44
-136.152,933.056,-0.488
-99.796,969.168,-8.296
-81.008,974.78,-13.908
-67.1,985.76,-12.688
-47.824,990.396,-24.156
-49.532,1014.064,-12.932
-48.556,1009.672,-12.444
-53.436,998.448,-7.564
-63.928,984.052,-0.976
-62.22,986.248,-7.076
-95.404,973.56,0.488
-84.18,979.904,-5.368
-91.988,970.876,-16.348
-82.716,976.732,-12.444
-69.052,983.32,-22.448
-68.32,990.152,-23.912
-63.928,989.908,-25.376
-71.492,983.564,-22.936
-74.664,978.684,-12.932
-72.468,979.416,-10.98
-79.3,976.976,-4.392
-53.436,983.564,-7.076
-53.436,981.368,-3.904
-21.472,999.18,-11.956
-17.08,1010.404,-15.128
-13.42,1015.04,-15.128
-34.16,1014.552,-11.468
-44.164,1019.432,-16.104
-65.392,1013.82,-4.392
-64.416,1007.476,-2.44
-61.0,1006.988,4.392
-47.336,1001.62,-1.464
-46.116,994.3,0.732
-49.044,986.736,-2.196
-59.536,990.884,6.344
-69.296,983.564,2.196
-77.104,980.88,3.416
-74.176,972.828,-4.88
-69.784,966.972,-7.076
-58.56,965.264,-1.708
-51.972,968.924,3.172
-52.46,974.78,9.272
-65.148,977.22,7.808
-56.12,985.76,2.44
-59.048,979.172,-11.224
-55.388,988.932,-8.052
-45.14,987.468,-20.008
-60.268,994.788,-4.636
-53.68,994.788,-6.344
-63.44,996.984,-3.66
-60.268,990.884,-4.636
-63.44,985.272,-5.368
-62.952,977.708,-9.272
-72.712,980.636,-4.148
-67.588,977.952,-10.736
-72.224,981.368,-10.248
-55.876,986.736,-15.86
-44.408,994.544,-13.176
-29.28,988.932,-11.712
-41.724,980.88,-5.124
-58.56,974.78,3.172
-81.252,971.852,9.76
-84.668,974.292,1.708
-71.004,976.0,-13.176
-45.872,983.564,-24.4
-24.888,991.372,-30.988
-26.352,999.668,-25.864
-44.652,999.18,-13.42
-64.66,999.18,-8.296
-73.688,999.668,-6.832
-66.124,1000.644,-16.836
-51.728,996.252,-26.352
-43.432,996.252,-22.692
-49.288,1001.62,-13.664
-69.784,1003.572,2.684
-80.032,1001.864,9.76
-71.736,995.276,8.54
-53.68,990.152,-2.928
-33.184,995.52,-19.032
-32.696,1007.232,-22.692
-40.748,1014.552,-21.228
-56.364,1015.04,-12.2
-68.808,1005.036,-5.368
-77.836,990.64,-5.612
-78.812,990.396,-4.636
-71.492,996.008,-17.568
-75.152,1012.112,-16.592
-80.52,1025.044,-8.784
-97.112,1029.924,6.832
-114.924,1033.34,20.008
-132.004,1041.392,20.496
-153.476,1053.836,24.644
-175.68,1070.184,21.472
-190.808,1084.336,18.3
-215.94,1097.512,18.788
-229.848,1113.86,18.3
-255.712,1128.988,27.572
-286.7,1126.548,27.572
-355.264,1098.488,28.304
-493.856,1051.396,21.716
-569.496,1010.892,30.988
-556.32,961.848,28.548
-549.244,899.872,9.76
-549.244,852.78,0.244
-564.86,841.312,13.42
-525.82,807.64,6.344
-428.708,772.748,4.148
-236.436,724.436,-38.552
-112.24,681.736,-76.128
2.44,634.4,-76.372
148.84,568.764,-68.076
404.064,535.58,-142.984
678.32,502.396,-181.536
776.164,398.452,-8.052
973.072,276.696,61.244
1224.88,93.452,-142.984
1220.244,190.076,-99.064
1036.024,357.46,62.952
1049.932,391.132,113.46
1047.736,355.264,115.168
1049.688,320.86,65.392
1021.628,336.476,39.528
944.768,391.132,50.752
920.856,439.444,19.032
923.052,450.668,-1.708
865.712,442.616,17.812
829.112,412.36,18.544
815.204,386.252,23.18
804.224,366.0,15.616
769.82,339.16,28.792
741.028,298.412,38.552
720.532,230.58,57.828
688.324,175.68,110.288
658.8,126.392,135.176
655.384,85.156,135.664
616.832,49.288,160.064
596.092,10.248,162.26
612.928,-34.648,126.636
664.168,-85.4,81.74
766.404,-144.448,17.08
833.748,-212.768,-12.688
923.784,-259.372,-67.344
1004.06,-283.772,-143.472
1120.936,-289.384,-214.72
1188.28,-309.88,-247.904
1249.524,-303.292,-274.744
1261.968,-308.66,-251.32
1290.272,-332.328,-242.292
1399.584,-345.26,-255.224
1463.512,-349.652,-256.2
1520.608,-343.308,-225.7
1533.052,-310.124,-216.672
1524.512,-273.768,-202.276
1520.608,-230.336,-186.172
1518.9,-194.224,-176.656
1525.976,-169.58,-159.332
1506.212,-158.356,-103.456
1493.524,-166.652,-58.56
1504.26,-180.072,-11.468
1498.404,-210.328,64.416
1520.852,-252.052,118.34
1563.796,-276.696,145.912
1606.496,-312.564,178.364
1625.528,-339.404,213.988
1622.112,-363.072,251.076
1581.12,-368.928,282.308
1528.416,-374.052,303.292
1507.432,-374.784,296.704
1483.764,-379.42,263.52
1433.5,-374.052,239.852
1356.396,-362.828,207.4
1271.484,-342.332,182.512
1166.076,-333.792,173.484
1037.244,-318.664,153.232
887.916,-291.092,150.304
775.676,-252.296,113.46
634.156,-211.304,95.16
496.784,-152.256,85.4
390.156,-96.38,61.488
313.784,-30.012,38.308
264.984,28.792,21.228
258.884,98.332,-1.952
292.556,159.088,-38.308
339.404,209.108,-48.8
417.484,273.28,-65.636
506.056,319.884,-56.608
572.668,358.68,-26.352
666.364,389.912,18.788
779.336,395.28,44.652
889.136,415.776,65.148
973.56,430.172,94.184
1059.936,439.444,116.876
1159.732,425.292,118.828
1182.912,418.46,157.868
1228.052,416.996,164.456
1217.56,401.136,197.64
1188.524,389.424,229.604
1158.268,385.032,247.66
1137.04,382.104,240.828
1080.188,404.796,242.536
1071.404,423.096,186.904
1010.648,453.352,172.996
877.668,475.8,170.8
784.948,510.692,144.936
657.092,536.556,144.448
601.948,575.84,121.756
493.124,584.38,122.976
498.736,620.248,48.8
394.548,645.38,31.72
267.424,720.288,59.292
119.072,780.068,69.052
-8.296,832.284,70.272
-106.384,892.064,63.44
-148.352,930.616,18.544
-211.06,957.944,-23.912
-277.672,968.436,-40.992
-244.976,1002.84,-68.808
-245.464,1010.16,-50.508
-238.144,1033.096,-46.848
-274.988,1028.948,-58.316
-309.392,1046.76,-50.752
-292.8,1063.108,-64.172
-266.448,1065.304,-105.408
-238.144,1078.48,-119.804
-196.908,1092.144,-115.412
-187.392,1098.976,-80.276
-153.964,1074.82,-53.924
-111.02,1053.592,-59.536
-85.644,1021.14,-67.588
-75.64,1007.232,-57.096
-78.812,997.228,-49.044
-97.356,992.592,-37.088
-91.256,994.544,-32.94
-90.28,1008.452,-22.448
-66.612,1006.012,-17.568
-44.896,993.08,-11.956
-24.156,992.836,1.952
-20.74,991.86,12.2
-36.356,984.052,24.888
-53.436,979.904,38.064
-63.684,969.412,38.308
-65.88,964.044,28.06
-56.364,974.048,22.936
-34.892,991.86,21.96
8.296,1008.452,13.664
32.452,1008.696,14.884
36.356,998.936,16.836
24.156,993.08,21.96
-5.124,985.516,22.692
-38.308,978.196,16.836
-48.312,973.56,3.172
-49.532,979.66,-3.904
-19.276,986.248,-17.324
-1.22,1003.084,-15.128
17.568,1008.208,-36.6
4.88,1013.088,-14.152
0.488,1004.304,-2.196
-7.076,1001.132,1.22
-9.272,997.228,6.832
-17.568,994.544,11.224
-17.812,988.444,6.588
-32.696,990.884,17.08
-1.464,1012.356,19.032
1.22,1009.916,20.496
21.96,1003.084,25.376
16.104,993.812,32.208
6.1,978.44,35.38
-14.884,976.488,44.408
-10.736,981.612,34.892
-6.588,988.688,30.744
18.544,992.592,25.864
31.232,988.932,20.984
17.568,985.028,27.572
3.416,981.368,27.084
-16.104,979.66,29.28
-20.252,978.44,23.912
-7.076,991.616,14.152
12.2,1001.864,10.248
20.496,1001.62,8.296
14.152,996.984,13.664
-2.928,989.176,20.496
-27.816,980.392,28.06
-31.232,985.76,25.864
-19.764,993.08,21.716
2.684,1000.4,14.152
15.86,1003.572,11.468
18.056,1008.94,12.444
4.88,1014.552,16.104
-2.928,1020.408,11.712
-4.148,1021.872,2.196
3.904,1018.944,-8.052
9.028,1020.652,-10.248
5.612,1017.48,-5.124
-13.42,1017.48,3.904
-26.84,1023.824,15.86
-37.332,1023.092,16.104
-40.748,1024.068,17.568
-52.46,1021.14,28.548
-63.684,1016.992,30.256
-87.84,1012.844,45.628
-109.556,1009.184,58.804
-123.22,1008.452,65.148
-126.392,1009.916,45.14
-136.152,1019.432,32.94
-136.396,1032.852,15.128
-154.94,1033.34,5.124
-176.168,1029.924,9.76
-205.204,1019.676,20.008
-225.7,1018.456,38.552
-231.8,1010.648,50.02
-247.172,997.228,57.34
-245.708,978.196,54.9
-238.632,952.088,46.116
-236.924,914.268,39.528
-303.536,857.904,37.088
-421.876,823.744,39.284
-525.82,812.032,57.34
-470.188,805.2,54.412
-387.96,802.272,31.964
-407.48,794.464,43.432
-375.272,769.332,86.864
-248.148,703.208,97.112
-89.06,619.272,67.1
68.808,482.144,48.312
494.1,430.66,21.472
867.176,275.232,-23.18
1164.368,73.2,49.044
1499.136,-13.176,-30.012
1528.66,76.128,-0.488
1467.416,190.32,102.968
1452.532,265.96,94.428
1418.616,289.384,135.908
1346.636,299.144,158.844
1248.792,324.52,166.896
1173.64,347.944,159.088
1097.512,361.608,121.512
1004.304,413.336,106.628
958.432,447.74,72.468
873.032,452.864,57.096
802.272,437.736,55.388
752.008,403.576,49.044
696.132,362.584,48.556
630.74,315.736,51.972
579.744,273.524,84.18
565.104,210.572,106.628
561.2,152.744,129.076
546.804,112.728,137.86
571.448,68.076,108.092
616.588,5.368,92.232
652.212,-45.384,76.372
691.74,-86.62,61.976
731.024,-136.396,28.792
782.264,-172.996,-2.196
852.048,-193.492,-32.696
961.116,-216.428,-77.592
1028.704,-234.484,-97.356
1103.856,-258.396,-126.392
1208.288,-278.404,-141.52
1303.448,-284.504,-159.088
1372.988,-275.964,-155.428
1408.856,-246.44,-139.08
1462.536,-229.848,-146.644
1499.38,-214.232,-128.1
1552.084,-207.644,-106.14
1610.644,-207.156,-86.864
1625.772,-203.252,-27.328
1649.928,-195.932,21.472
1654.564,-180.56,66.856
1641.632,-174.704,113.216
1624.308,-176.168,164.944
1611.376,-184.952,214.72
1627.724,-202.276,240.828
1626.26,-228.628,266.204
1615.524,-261.08,288.408
1600.884,-272.792,314.272
1575.264,-293.532,322.812
1536.956,-305.0,331.352
1474.248,-301.34,327.204
1423.496,-302.804,331.352
1375.672,-297.68,316.468
1341.756,-299.876,289.872
1258.552,-301.584,275.964
1140.944,-291.336,260.104
1006.256,-265.228,251.808
904.752,-225.212,222.04
804.224,-180.56,173.972
689.788,-149.816,134.932
553.392,-106.14,110.532
456.524,-50.996,80.764
371.612,4.636,40.992
320.128,68.32,2.196
275.964,123.22,-25.62
262.788,190.564,-59.292
280.112,258.152,-80.52
309.88,314.516,-70.76
398.452,353.8,-64.416
500.2,376.004,-35.624
601.216,395.28,16.348
757.864,411.384,46.848
887.672,439.2,57.096
968.924,463.6,52.704
1001.62,488.732,59.536
1014.796,511.912,82.228
1035.536,518.988,116.144
1113.86,516.792,113.216
1161.196,505.568,126.148
1174.616,510.692,138.592
1176.568,501.176,139.08
1152.9,507.276,140.056
1084.824,503.616,166.408
1046.76,503.372,166.408
991.616,513.376,148.84
946.964,521.428,113.704
895.724,530.944,69.784
816.668,538.02,71.736
730.292,545.096,56.364
625.616,548.024,85.4
508.252,561.2,125.904
445.056,591.212,158.356
393.084,589.748,155.428
274.744,596.58,180.072
214.72,654.652,151.036
203.008,721.996,67.588
123.464,810.324,47.824
-26.352,904.508,101.016
-41.724,993.08,103.7
-71.98,1045.052,44.652
-180.072,1060.18,37.088
-193.248,1087.996,-6.344
-157.624,1110.444,-70.028
-182.756,1144.36,-94.184
-216.916,1176.08,-115.412
-199.104,1183.644,-159.82
-198.616,1175.836,-151.768
-198.616,1153.876,-149.572
-180.56,1137.528,-130.784
-167.872,1108.736,-89.792
-135.42,1084.336,-85.4
-105.652,1057.74,-88.084
-50.996,1050.908,-112.484
-29.524,1037.976,-103.7
-36.112,1018.456,-86.62
-61.976,1000.644,-45.872
-56.608,995.764,1.708
-56.852,966.728,28.792
-17.324,949.404,34.16
-22.936,931.592,37.576
-9.272,945.988,31.476
-21.228,952.332,29.768
-22.448,963.8,36.356
-13.664,970.876,21.472
-13.908,969.412,30.012
-26.108,973.56,34.892
-30.5,979.172,38.796
3.416,989.908,11.224
12.932,995.764,10.248
43.676,1016.016,-2.44
33.428,1007.232,-8.052
26.596,1015.772,-4.148
20.008,1012.356,-10.004
-11.224,996.74,-1.952
3.904,996.252,-14.396
0.244,985.76,-22.204
18.056,996.984,-22.448
9.516,989.664,-18.788
0.488,983.32,-9.516
-23.18,968.68,1.952
-7.076,974.78,-6.344
-17.08,977.464,4.148
4.148,989.176,-3.904
17.812,992.348,-6.344
31.476,1002.108,-2.196
45.872,1008.94,-7.808
29.28,1011.624,3.66
26.352,1013.088,-8.052
-2.44,1004.304,1.464
12.932,1001.376,-13.176
0.732,1003.328,1.952
21.472,1002.84,-5.856
12.2,994.056,1.708
7.076,977.708,7.076
-8.784,969.9,10.98
-8.54,967.704,9.272
-9.028,966.972,11.712
10.492,968.192,-1.708
23.668,972.584,4.392
33.672,977.22,-0.244
22.448,980.636,-0.976
11.712,984.296,-3.172
6.588,994.788,-9.272
9.76,996.496,-11.956
20.252,998.692,-19.764
20.252,997.228,-22.204
18.544,1006.012,-22.448
20.008,1020.408,-21.472
29.036,1031.632,-27.816
40.26,1044.808,-30.012
51.484,1048.468,-31.476
34.16,1042.856,-19.276
13.664,1032.852,-19.52
-4.148,1035.292,-16.104
-9.272,1031.632,-20.496
-1.952,1030.9,-22.692
-4.148,1026.508,-20.496
-22.204,1029.192,-4.148
-50.752,1031.632,10.736
-75.396,1033.096,29.524
-83.936,1030.168,29.28
-90.524,1028.46,25.864
-94.184,1038.952,20.74
-116.876,1049.2,18.788
-144.204,1055.544,21.716
-173.484,1058.228,26.352
-195.444,1061.156,24.888
-213.5,1059.448,27.084
-241.804,1047.98,30.5
-284.992,1022.604,30.988
-327.204,983.076,41.48
-363.316,926.956,53.192
-370.88,874.252,60.268
-373.076,818.864,55.632
-439.2,758.352,50.264
-430.172,738.588,45.14
-424.072,699.304,40.016
-386.496,680.76,31.964
-358.924,655.14,19.764
-282.552,638.548,3.172
-167.872,614.148,0.488
-23.424,565.592,39.772
248.392,437.736,10.248
632.448,359.656,-57.096
846.192,150.548,-44.164
1277.096,-102.968,-140.3
1533.296,-91.744,-148.84
1407.636,65.636,56.852
1496.208,88.816,76.86
1599.176,92.964,44.408
1543.788,133.224,91.5
1450.824,185.196,132.98
1262.212,208.132,151.036
1154.12,285.48,143.228
1109.224,332.328,89.06
1036.268,367.464,61.976
944.768,396.744,57.828
888.16,387.96,49.288
820.816,351.604,50.508
740.54,305.0,52.704
676.124,276.94,72.468
617.076,216.672,81.74
589.992,157.624,119.804
577.304,100.04,109.556
568.032,52.216,100.284
560.956,8.296,76.372
583.892,-36.112,43.676
615.368,-93.208,30.5
684.664,-160.064,2.44
736.88,-214.964,-11.468
819.84,-262.3,-35.136
926.224,-295.972,-50.996
1023.336,-328.424,-75.152
1128.5,-355.02,-96.136
1238.056,-376.248,-86.376
1328.58,-391.62,-63.928
1346.636,-378.444,-53.68
1393.972,-361.12,-45.384
1418.372,-350.384,-33.428
1465.952,-335.744,-15.372
1524.756,-337.94,12.2
1560.624,-354.288,82.472
1558.916,-346.48,142.984
1538.908,-316.468,190.564
1516.704,-274.5,225.944
1491.328,-236.436,248.636
1498.16,-221.796,259.372
1527.196,-234.24,267.912
1558.672,-261.324,286.7
1582.096,-289.872,288.652
1572.58,-322.08,317.932
1537.688,-343.552,345.26
1489.376,-366.0,368.44
1448.872,-379.42,385.52
1404.464,-387.716,399.672
1361.52,-390.888,381.86
1334.924,-380.152,359.168
1307.84,-372.832,334.036
1253.184,-362.584,320.372
1187.304,-335.988,321.104
1144.36,-310.856,304.024
1071.892,-283.04,292.068
1032.852,-250.588,258.64
949.16,-218.38,248.392
851.072,-179.34,220.088
750.788,-132.248,192.516
673.684,-81.008,147.62
605.364,-23.668,106.872
544.12,34.404,65.636
492.636,93.696,23.668
419.192,147.376,4.148
362.34,190.32,-26.352
333.792,234.24,-49.532
343.308,288.164,-74.42
388.204,325.252,-77.836
451.4,345.016,-62.708
547.048,352.58,-35.136
629.52,357.216,27.572
729.072,356.484,73.444
807.64,367.464,102.968
866.932,384.544,162.992
938.424,387.228,220.82
1011.136,405.284,238.144
1096.048,418.46,201.788
1134.112,440.664,177.632
1104.1,473.604,204.228
1091.168,501.908,168.36
1120.204,522.16,108.336
1043.1,512.4,69.296
892.796,531.188,79.788
817.888,557.052,65.392
697.84,577.304,102.236
599.752,598.532,58.072
513.62,618.052,20.984
396.5,638.06,20.496
289.14,684.908,35.624
272.548,712.968,-12.688
273.768,733.952,-24.888
152.988,788.12,13.176
69.296,830.332,3.66
-30.5,863.76,-22.936
-94.672,922.076,-13.176
-109.556,985.76,-53.192
-162.26,1043.1,-78.08
-228.628,1129.72,-79.056
-273.036,1192.184,-98.82
-285.236,1243.912,-146.888
-255.712,1278.804,-147.132
-221.308,1259.772,-162.26
-182.024,1229.76,-196.42
-194.956,1199.26,-162.26
-199.836,1167.296,-128.1
-190.076,1143.872,-97.844
-144.692,1117.032,-73.932
-82.472,1087.752,-51.728
-34.404,1039.44,-49.044
19.764,991.616,-54.656
50.264,971.12,-67.1
24.644,958.188,-41.968
0.244,964.532,-17.812
-12.688,974.292,0.732
8.052,982.832,-5.856
24.4,983.808,-9.516
35.624,977.952,-11.712
46.116,975.512,-18.544
44.896,985.028,-16.104
57.34,995.032,-11.712
60.512,998.204,-19.276
54.9,1004.548,-26.352
32.208,1013.576,-26.84
3.904,1004.792,-35.38
-10.004,999.424,-42.944
-6.344,997.716,-39.528
26.108,987.224,-52.948
39.04,978.684,-53.192
24.644,975.512,-50.996
-1.22,986.004,-47.824
-13.42,1002.596,-44.164
-5.124,1006.012,-47.336
11.224,996.008,-61.732
34.16,983.564,-60.024
39.04,974.292,-60.268
52.46,976.0,-49.288
38.796,977.464,-33.428
25.132,985.028,-35.38
10.248,990.64,-30.5
14.884,988.444,-40.992
16.348,981.856,-46.604
19.276,979.416,-50.996
22.448,984.296,-45.872
22.692,984.296,-40.26
35.624,997.716,-32.208
42.7,994.3,-25.62
43.432,988.2,-22.204
37.82,984.296,-25.62
33.184,987.224,-28.548
29.036,986.004,-37.332
33.428,988.932,-33.672
39.528,986.004,-44.408
30.744,984.052,-34.404
21.472,987.712,-33.428
9.028,992.104,-27.816
12.2,995.276,-30.988
28.792,1001.132,-41.48
42.456,1010.404,-48.8
51.484,1021.384,-43.676
47.58,1026.508,-36.844
40.504,1031.388,-30.988
32.696,1038.22,-30.5
26.108,1044.808,-30.744
19.52,1052.128,-31.232
14.64,1060.912,-33.916
6.344,1068.964,-28.548
-10.004,1069.696,-22.448
-40.016,1066.768,-15.86
-62.952,1065.06,-9.028
-89.792,1070.428,1.952
-104.676,1080.188,0.244
-109.556,1089.704,-0.732
-127.856,1087.02,6.1
-158.844,1079.212,9.76
-206.912,1081.896,20.252
-245.22,1084.336,32.208
-298.168,1062.376,49.044
-359.9,1035.78,61.732
-390.156,1007.964,68.32
-457.012,962.824,63.196
-478.484,912.316,30.988
-464.576,890.6,12.444
-420.412,848.876,-14.396
-411.628,811.056,-18.3
-325.74,772.016,-11.956
-256.444,689.3,-3.66
-117.852,600.484,5.856
40.748,495.076,83.448
277.916,350.384,89.548
704.428,241.56,-149.816
1009.428,135.664,-305.976
1058.96,14.396,58.56
1338.584,-81.74,154.94
1511.092,-122.488,140.544
1386.408,14.396,203.008
1321.504,150.548,173.484
1238.788,267.424,119.072
1130.208,355.752,106.384
1070.672,395.28,64.172
1007.964,426.756,29.768
939.644,425.78,-3.416
906.216,423.584,13.42
915.976,416.752,6.344
888.404,383.568,36.356
809.592,341.112,67.1
749.568,304.268,82.716
686.616,264.008,95.648
650.26,244.732,81.496
639.768,213.744,55.876
653.676,165.432,43.676
637.084,111.996,65.148
598.044,39.284,84.424
565.104,-10.736,99.308
573.644,-52.948,81.984
649.772,-98.82,51.728
729.072,-144.936,31.72
836.676,-184.708,-21.716
910.608,-218.868,-47.092
970.144,-260.348,-71.492
1096.048,-290.604,-73.2
1178.276,-344.284,-93.94
1249.524,-375.028,-92.476
1363.472,-382.836,-116.388
1427.4,-395.036,-91.744
1470.832,-368.928,-66.368
1513.044,-338.428,-56.852
1528.172,-313.296,-16.592
1583.56,-292.556,14.152
1625.04,-276.696,69.784
1637.728,-268.156,109.068
1628.944,-256.2,159.332
1603.812,-258.64,213.012
1575.996,-254.492,275.232
1574.776,-266.448,315.492
1587.952,-275.964,353.068
1594.052,-299.388,380.396
1595.028,-326.96,405.284
1573.312,-347.456,424.316
1531.832,-345.504,429.196
1484.74,-343.064,433.1
1440.82,-351.848,421.632
1410.564,-351.36,420.9
1361.764,-350.872,385.764
1282.708,-338.672,363.804
1208.288,-318.176,339.16
1141.92,-297.68,306.22
1053.348,-268.888,287.188
964.044,-242.048,259.86
893.04,-202.764,212.768
795.196,-173.484,183.488
697.352,-127.612,133.956
599.508,-76.128,101.748
517.28,-26.352,67.588
472.384,28.304,24.156
393.816,72.224,-1.708
355.264,136.152,-39.284
346.236,201.056,-66.612
356.728,254.98,-90.036
361.608,307.684,-101.26
395.524,342.82,-81.252
445.3,370.636,-61.0
557.54,385.276,-58.804
675.88,407.968,-29.768
783.484,432.368,-0.732
883.28,456.768,24.888
976.244,448.472,71.736
1095.56,436.516,101.26
1176.324,423.34,126.148
1228.784,431.88,120.292
1195.112,459.452,138.104
1169.492,478.24,115.9
1109.224,488.976,121.756
1087.264,498.492,81.008
1044.32,499.468,49.776
999.912,502.152,52.948
993.08,518.256,22.936
835.944,508.008,62.464
696.864,554.856,88.084
648.308,591.7,25.62
564.86,628.544,-21.96
446.764,668.316,-51.972
400.892,759.572,-92.476
272.792,817.156,-76.86
185.928,879.62,-60.512
100.772,881.816,-95.16
-119.804,876.448,-47.58
-196.908,933.544,-1.952
-216.184,972.34,50.508
-213.744,993.08,85.156
-223.016,969.9,88.572
-284.26,940.132,87.84
-327.204,914.756,54.412
-356.24,939.888,31.232
-344.528,980.148,14.152
-339.404,1015.284,-20.008
-323.788,1043.832,-47.824
-289.384,1066.768,-85.644
-259.616,1071.892,-103.7
-203.008,1071.16,-131.516
-170.8,1067.744,-158.844
-151.036,1066.28,-152.988
-121.024,1063.352,-155.672
-104.676,1046.028,-151.28
-80.52,1046.272,-144.448
-46.848,1049.444,-138.836
-28.06,1044.564,-129.808
0.244,1036.756,-113.948
-24.888,1011.624,-78.08
-36.6,1008.696,-40.504
-68.564,980.88,-10.248
-52.704,972.828,-1.708
-42.7,963.068,8.296
-14.396,960.628,15.616
-1.708,960.872,24.4
6.344,959.408,22.448
-15.86,962.092,35.624
-22.204,978.928,32.208
-9.516,995.032,15.86
-15.128,987.468,8.784
-20.496,972.34,0.488
-39.04,975.756,0.976
-55.876,986.736,0.488
-39.772,1011.868,0.732
-14.64,1012.112,-22.204
-11.956,1004.548,-23.668
-2.928,996.74,-33.916
-24.4,994.544,-24.888
-31.72,997.716,-16.348
-48.312,992.104,-12.688
-46.116,996.496,-11.468
-36.6,1001.864,-14.884
-24.4,1000.4,-9.516
-10.248,993.812,-6.832
2.44,982.832,-10.004
-5.368,976.244,-8.296
-23.424,975.512,-9.76
-46.36,981.124,-9.76
-45.872,990.396,-17.568
-33.184,998.448,-14.884
-11.956,991.616,-16.348
-1.952,985.76,-15.128
-15.128,977.464,-8.54
-30.256,976.244,-4.392
-38.308,976.732,-7.32
-38.796,977.708,-11.712
-28.06,987.224,-15.128
-14.64,992.348,-16.348
-17.324,990.152,-12.932
-27.084,983.32,-6.832
-31.964,979.66,-9.516
-30.988,981.856,-8.54
-18.544,987.224,-9.76
-9.516,992.592,-10.492
1.464,996.74,-7.076
-4.392,1002.108,-3.904
-11.712,1006.988,-3.66
-15.616,1000.156,-10.98
-15.86,1005.768,-17.08
-12.688,1008.696,-23.18
-9.028,1021.628,-26.596
-14.884,1034.56,-30.012
-27.328,1043.1,-30.744
-45.628,1049.444,-29.036
-66.612,1060.18,-18.788
-90.768,1070.916,-17.568
-105.408,1084.58,-14.152
-112.728,1109.712,-10.736
-95.648,1126.548,-5.124
-96.136,1132.16,5.856
-93.452,1131.672,16.592
-116.632,1136.796,26.108
-146.4,1138.26,41.236
-190.808,1129.964,50.752
-224.968,1114.592,38.796
-254.004,1088.728,28.304
-262.788,1060.912,17.568
-256.932,1037.976,20.496
-237.656,1011.136,29.036
-228.628,968.192,34.16
-225.7,915.976,22.936
-255.468,873.276,8.784
-287.676,847.9,-3.66
-282.308,820.572,-22.448
-242.292,803.248,-25.376
-270.352,749.568,-44.164
-279.38,726.632,-13.42
-215.696,681.492,2.44
-103.212,631.716,-9.272
28.304,590.724,-89.06
180.316,586.576,-146.156
345.016,547.536,-146.644
473.36,506.544,-20.984
755.424,453.108,-33.184
1021.14,322.568,-156.648
1048.224,295.24,-60.024
1037.244,342.332,142.008
1157.048,295.728,185.44
1276.608,254.98,196.176
1272.216,292.556,170.556
1187.548,345.748,123.22
1082.14,423.34,98.088
1026.996,487.268,52.704
957.944,520.696,40.26
890.356,518.012,33.428
821.792,465.796,41.236
786.9,430.172,76.372
731.268,368.44,85.156
696.62,325.984,100.284
639.28,282.064,107.848
606.584,247.66,113.46
619.272,208.376,100.528
631.716,179.584,79.788
640.744,147.132,78.08
652.944,81.74,76.372
602.192,17.812,108.824
627.812,-54.9,134.444
713.944,-135.42,109.312
815.692,-176.168,71.98
886.208,-205.448,14.64
981.368,-235.216,-29.768
1047.248,-274.988,-72.712
1090.924,-303.536,-76.86
1186.572,-345.016,-71.736
1267.092,-383.812,-60.268
1283.928,-395.28,-27.328
1343.952,-396.744,-37.332
1377.868,-358.68,-41.968
1413.492,-330.132,-37.088
1452.776,-322.812,-21.472
1506.456,-321.836,4.148
1557.208,-327.936,13.42
1604.056,-317.2,15.616
1602.836,-306.22,8.54
1576.972,-280.844,21.228
1549.644,-272.548,17.324
1511.58,-268.888,50.02
1476.2,-284.992,75.884
1449.848,-303.048,103.944
1442.284,-319.396,127.368
1426.668,-341.6,145.424
1421.3,-351.848,173.24
1418.616,-363.072,195.688
1409.832,-363.804,207.888
1395.68,-361.852,219.844
1397.388,-352.092,239.12
1408.612,-354.776,240.584
1394.704,-358.68,261.568
1365.912,-360.876,272.548
1327.116,-349.652,256.932
1283.196,-320.86,214.964
1210.484,-298.656,169.58
1068.72,-286.212,147.62
965.02,-233.752,135.664
868.64,-217.892,97.6
735.904,-184.22,82.716
650.992,-137.128,67.344
563.64,-99.308,47.58
492.148,-39.772,10.004
438.468,22.692,-31.72
412.36,76.616,-49.532
389.668,138.104,-68.564
351.848,190.564,-71.98
388.936,249.124,-91.012
466.772,282.064,-98.332
569.74,310.612,-92.476
669.536,334.524,-90.036
712.48,349.652,-60.512
761.524,367.952,-25.376
793.244,386.74,5.856
874.984,401.136,1.708
951.356,396.744,-9.516
1004.304,410.408,-4.88
1067.744,407.48,-21.228
1103.856,402.356,-18.544
1097.756,387.96,20.496
1131.428,377.468,32.208
1154.12,353.556,56.852
1170.956,338.916,80.032
1215.12,316.224,80.276
1245.376,279.868,97.844
1248.792,247.66,129.076
1251.964,227.652,140.544
1247.084,201.544,146.888
1227.808,204.96,163.236
1134.356,209.84,140.788
962.58,229.604,168.604
813.984,291.092,154.696
746.396,365.756,88.572
624.396,420.9,45.628
425.78,474.58,38.552
291.336,574.132,69.784
176.168,659.044,112.972
63.44,735.904,125.172
19.52,849.12,92.476
-42.944,926.224,5.368
-158.112,985.76,-68.564
-262.788,1025.044,-93.94
-284.26,1101.416,-102.236
-338.916,1146.312,-88.572
-350.872,1165.832,-122.488
-382.592,1139.236,-158.6
-360.388,1112.64,-203.252
-341.6,1094.828,-215.208
-323.056,1071.892,-237.9
-309.148,1069.208,-219.112
-248.392,1061.888,-186.66
-197.884,1060.424,-153.964
-165.432,1042.856,-107.36
-152.744,1022.36,-63.928
-170.312,983.564,-28.304
-190.564,949.404,-19.52
-192.516,915.976,-7.32
-185.928,905.484,2.684
-167.14,925.004,20.984
-148.108,952.82,14.152
-144.936,972.584,18.3
-146.4,983.076,21.228
-147.864,985.76,28.792
-143.228,976.488,30.5
-144.204,960.872,19.276
-159.088,950.38,25.132
-154.208,961.116,27.084
-140.3,972.828,18.544
-105.408,989.176,8.54
-90.28,995.52,6.1
-73.444,997.96,4.148
-91.744,994.3,8.052
-108.336,986.004,9.516
-127.124,980.636,20.74
-118.584,972.34,19.52
-104.92,970.388,19.52
-94.672,976.732,20.74
-95.404,989.908,18.788
-111.752,990.884,25.376
-109.556,991.372,24.888
-109.068,984.296,18.544
-89.548,985.516,16.348
-75.884,984.052,17.324
-91.256,983.32,35.38
-106.14,984.296,43.432
-131.028,980.88,44.652
-132.248,984.296,31.964
-118.34,979.904,12.932
-102.236,985.516,6.832
-101.992,987.468,14.152
-111.996,977.708,22.448
-128.1,969.9,35.38
-103.944,976.488,28.792
-90.524,981.856,33.916
-66.856,982.344,19.032
-50.752,993.812,6.832
-76.616,991.372,14.152
-101.992,990.396,14.884
-134.932,986.492,24.4
-131.272,988.444,29.768
-96.868,986.004,22.204
-68.808,979.172,8.784
-72.468,979.66,9.516
-105.896,980.148,16.592
-138.104,983.076,17.568
-152.256,984.784,13.664
-127.612,984.784,3.416
-84.668,986.98,-9.028
-54.656,991.372,-12.2
-68.32,986.492,6.588
-104.676,979.416,24.888
-137.128,977.22,34.16
-150.548,979.172,37.332
-127.368,980.636,21.472
-104.92,981.856,16.104
-85.888,982.1,5.856
-96.136,982.1,13.42
-119.072,983.32,25.62
-133.468,989.42,30.012
-131.516,989.908,30.012
-120.292,984.296,23.912
-107.36,981.856,16.836
-111.508,984.296,20.496
-111.996,987.956,20.984
-129.32,984.296,23.18
-144.448,979.66,36.112
-155.916,985.76,37.82
-161.772,996.74,37.332
-157.624,1013.088,30.012
-172.264,1035.292,30.256
-195.444,1065.548,40.016
-236.924,1099.708,65.148
-265.716,1126.792,86.132
-277.184,1154.608,90.036
-296.216,1172.664,97.356
-318.176,1170.956,105.164
-345.016,1150.948,101.26
-367.952,1100.44,73.932
-415.288,1023.092,60.268
-467.26,951.6,41.724
-531.432,886.696,51.972
-630.74,823.5,70.516
-761.036,775.432,118.584
-804.224,728.828,134.688
-790.804,664.412,133.956
-696.864,596.58,124.196
-557.784,523.868,95.404
-417.24,461.16,61.0
-269.132,380.396,20.008
61.244,319.884,-4.636
474.336,209.596,-78.08
1043.588,123.22,-279.136
1496.696,-30.012,-319.152
1733.376,64.904,-117.852
1407.88,170.556,21.228
1288.808,271.816,232.044
1386.896,228.384,186.904
1277.34,268.4,192.76
1068.476,319.152,230.58
950.624,380.396,191.296
863.516,416.508,118.584
752.496,429.928,88.328
675.88,430.904,74.664
601.46,381.616,52.216
529.48,317.688,44.408
441.884,230.092,89.06
394.548,129.564,132.492
371.612,13.664,175.192
373.32,-103.212,199.348
403.332,-192.76,190.076
495.32,-241.804,106.872
586.332,-274.988,19.032
736.88,-306.952,-88.328
959.652,-358.436,-184.708
1086.288,-395.28,-195.932
1220.732,-415.288,-233.02
1338.096,-423.096,-315.98
1447.164,-427.0,-314.516
1614.304,-437.492,-283.04
1746.552,-412.848,-251.564
1784.86,-365.024,-237.656
1790.716,-289.14,-191.784
1785.592,-231.312,-116.388
1790.96,-213.744,-43.188
1802.428,-208.62,72.224
1850.984,-207.888,154.208
1903.932,-193.98,205.204
1945.9,-193.492,291.336
2007.876,-241.072,388.936
2065.216,-323.788,478.972
2074.976,-423.584,553.88
1995.676,-487.268,618.784
1839.516,-523.624,634.156
1667.008,-535.336,607.072
1509.628,-532.896,544.608
1364.936,-504.348,457.012
1197.064,-490.44,385.032
1023.336,-460.184,314.272
860.344,-419.436,239.364
680.516,-349.652,183.976
536.312,-275.72,130.54
416.752,-211.304,70.272
280.6,-139.08,21.716
174.46,-47.58,-7.808
107.848,44.164,-40.26
88.084,125.904,-80.276
99.796,199.592,-126.148
141.52,265.96,-129.808
250.1,320.372,-137.128
350.628,363.072,-97.6
498.248,396.744,-68.076
646.112,428.22,-41.724
765.428,455.06,-4.392
829.112,490.44,18.056
881.328,525.088,21.472
925.492,543.632,26.108
979.66,546.804,30.988
1031.876,531.432,38.064
1089.46,496.54,61.0
1148.996,464.332,68.32
1176.568,437.98,97.6
1184.132,394.792,137.616
1172.42,336.476,192.272
1138.748,295.24,210.816
1089.216,275.476,228.14
1023.58,278.16,265.472
1026.02,268.156,251.076
1037.732,306.952,164.944
968.68,318.42,132.004
969.9,383.568,86.62
967.704,418.948,-4.148
857.904,432.124,-15.616
754.448,458.72,3.172
614.148,539.972,-1.708
391.864,605.364,-40.748
157.136,666.364,-57.584
-68.076,781.044,-22.936
-231.312,878.888,-43.432
-316.712,983.808,-38.064
-329.888,1087.508,7.808
-392.84,1123.62,61.244
-408.7,1095.804,5.368
-433.1,1079.212,-33.672
-467.016,1072.624,-46.116
-423.096,1077.016,-74.908
-380.64,1074.332,-85.156
-314.516,1081.896,-91.5
-257.664,1069.452,-69.052
-235.46,1046.76,-45.14
-242.536,1016.992,-3.416
-232.776,999.424,15.86
-220.088,1002.352,11.468
-184.464,1010.16,-16.104
-135.42,1028.216,-45.872
-110.776,1031.144,-40.016
-79.788,1027.24,-27.572
-93.94,1011.38,7.564
-75.64,992.836,14.396
-106.628,965.996,30.988
-120.78,962.58,30.988
-121.512,955.504,23.912
-117.364,954.772,50.752
-73.688,952.332,54.656
-71.736,950.624,74.176
-57.096,953.796,81.008
-68.564,949.648,83.448
-71.736,954.04,77.348
-87.108,956.724,67.832
-82.228,979.904,60.024
-78.324,985.028,38.064
-87.596,1003.816,49.532
-66.124,998.204,14.884
-80.52,1007.232,38.064
-66.368,995.032,24.644
-110.044,997.228,43.432
-111.02,1010.892,46.604
-100.772,1021.628,50.752
-74.176,1007.964,35.624
-37.82,990.152,39.772
-18.3,973.56,42.212
-34.648,964.288,65.392
-75.884,962.092,87.84
-99.064,972.096,89.06
-98.82,982.1,82.472
-71.736,984.296,65.88
-49.288,980.392,49.044
-41.724,977.464,37.332
-71.492,977.952,54.168
-94.916,978.196,56.852
-107.36,984.54,61.244
-78.324,993.08,52.704
-47.092,1001.376,48.8
-13.664,1006.988,42.456
-19.52,1012.112,46.848
-35.38,1012.356,51.728
-58.072,1003.816,59.292
-70.76,994.056,60.268
-60.268,987.956,50.996
-54.412,993.568,48.312
-58.316,1001.376,48.312
-61.976,1009.428,49.288
-62.22,1018.456,59.292
-60.024,1009.428,61.732
-69.296,1004.06,64.904
-75.64,1004.548,65.148
-99.552,1006.5,78.812
-118.096,1001.62,88.816
-137.86,996.252,94.916
-133.712,992.104,96.38
-135.908,993.324,94.428
-126.636,999.18,84.668
-152.012,1006.256,95.892
-167.14,1006.988,103.456
-195.688,1008.452,122.976
-206.18,1001.62,118.096
-204.228,1002.596,114.436
-181.048,1002.108,92.964
-193.004,998.448,87.84
-211.548,990.884,91.256
-246.684,985.272,98.088
-284.748,987.468,105.652
-290.36,986.736,107.604
-327.204,975.024,115.656
-349.896,955.504,119.804
-410.408,926.712,112.24
-470.432,911.34,112.484
-541.192,892.552,121.268
-566.324,871.324,109.068
-604.632,887.672,116.388
-600.24,894.016,116.144
-485.804,885.964,126.392
-276.94,825.696,100.772
-192.272,723.704,104.676
-84.424,621.468,97.112
182.512,530.7,13.176
509.228,480.68,-129.564
705.16,406.992,-107.604
946.476,359.412,-103.944
1053.348,259.128,-97.112
1122.644,216.916,22.692
1303.692,233.508,9.76
1312.964,267.424,18.3
1229.76,342.576,92.72
1153.876,360.632,148.108
1053.836,362.584,210.572
1074.576,326.228,227.408
1105.32,293.776,220.332
1014.552,330.376,213.256
948.428,381.128,165.676
859.856,402.844,139.324
783.484,418.948,120.048
719.556,397.476,107.848
643.184,346.48,109.312
582.672,299.876,98.82
519.476,251.564,110.044
463.6,200.08,158.6
462.136,126.636,167.14
478.24,72.468,177.144
519.476,-5.124,164.944
577.304,-67.1,138.348
633.18,-137.86,101.992
696.132,-191.784,39.284
795.196,-234.484,-23.18
904.996,-280.844,-74.176
995.032,-310.856,-103.944
1120.692,-331.84,-117.12
1249.524,-366.244,-127.612
1330.044,-407.48,-69.052
1407.148,-431.392,-72.224
1485.472,-421.632,-88.816
1544.032,-382.348,-67.832
1557.696,-343.796,-28.792
1578.192,-315.004,9.272
1580.144,-297.192,68.808
1606.008,-277.428,110.288
1619.672,-256.2,166.652
1591.612,-239.852,242.048
1594.052,-233.264,308.416
1614.548,-237.656,377.468
1654.564,-254.248,428.22
1696.532,-294.996,457.988
1689.7,-330.62,488.488
1681.892,-358.924,521.428
1635.532,-381.86,561.932
1584.536,-393.084,570.716
1540.616,-404.552,552.66
1490.352,-418.704,521.672
1425.692,-423.584,502.152
1350.296,-426.268,484.34
1275.632,-414.312,462.38
1188.768,-390.644,429.44
1111.176,-360.876,386.984
1028.948,-331.84,334.768
928.908,-283.772,271.572
821.06,-233.02,216.672
708.332,-177.876,169.824
632.692,-128.344,125.172
540.46,-83.448,71.248
456.524,-26.108,19.276
376.004,36.356,-32.94
314.76,109.312,-61.976
264.74,176.168,-56.364
302.072,224.968,-105.164
314.76,272.792,-112.728
354.532,305.732,-115.9
453.84,314.76,-100.04
566.324,323.3,-69.54
660.508,347.7,-33.672
746.396,354.532,-1.952
817.644,362.828,49.532
900.604,365.512,75.64
1014.064,364.536,83.448
1124.108,349.408,117.852
1191.94,352.092,142.252
1219.756,346.48,123.708
1209.996,340.38,130.784
1143.628,334.524,141.764
1067.744,348.432,138.836
1020.896,337.452,148.84
992.836,357.948,155.184
995.52,362.34,92.476
934.52,372.832,69.54
903.044,395.036,36.112
795.44,448.472,68.564
792.756,479.704,67.344
848.388,479.216,5.612
802.272,460.184,-34.648
709.552,488.0,-46.116
640.988,559.736,-102.48
