acc_x[mg],acc_y[mg],acc_z[mg]
-236.436,953.552,66.368
-240.096,950.38,72.956
-238.388,950.136,76.616
-240.828,949.892,79.788
-237.9,949.892,77.104
-237.656,949.404,75.152
-238.632,948.428,69.296
-241.072,952.088,66.368
-241.072,955.748,63.928
-237.412,955.748,61.976
-236.192,956.968,63.196
-234.24,956.236,63.928
-239.12,953.552,66.856
-244.0,950.624,67.344
-247.66,952.576,68.564
-246.684,953.796,68.076
-241.804,953.796,68.564
-239.852,953.308,67.588
-234.24,953.796,64.172
-240.34,952.82,67.1
-242.78,948.916,64.904
-247.66,948.428,64.904
-247.904,951.6,65.88
-247.172,950.38,66.124
-240.096,951.6,67.344
-238.632,954.04,67.832
-235.216,956.48,65.148
-239.852,956.48,64.66
-238.876,959.164,61.244
-235.216,960.14,60.268
-236.924,958.92,66.124
-235.216,956.236,68.32
-240.584,952.82,67.832
-244.0,951.356,67.344
-248.636,948.672,61.976
-246.928,950.868,61.488
-244.244,954.528,64.172
-234.972,956.48,68.808
-233.264,954.04,73.688
-233.508,952.332,73.444
-234.972,955.992,66.612
-241.316,957.456,57.584
-240.584,959.408,48.556
-236.436,961.604,44.652
-232.776,960.14,46.604
-232.044,955.504,53.924
-233.996,951.844,58.072
-236.68,948.916,64.416
-243.756,946.964,67.588
-246.684,946.964,68.808
-251.32,952.088,72.224
-247.172,951.6,75.152
-228.872,949.16,65.88
-230.824,949.404,67.344
-231.556,952.576,61.0
-239.12,956.236,58.072
-246.928,958.676,57.584
-245.22,958.188,54.656
-240.34,956.48,58.804
-234.728,956.724,59.048
-230.336,957.7,63.684
-233.264,957.7,67.588
-237.412,958.432,71.248
-243.268,956.968,73.932
-246.196,953.552,73.2
-242.048,954.284,74.176
-243.756,952.332,75.64
-241.316,951.6,72.956
-244.0,953.064,72.224
-245.22,952.576,69.54
-251.564,949.892,68.32
-252.54,946.964,67.344
-249.856,948.428,66.368
-245.464,948.916,68.076
-244.488,949.892,67.832
-241.072,953.552,66.612
-240.096,957.456,62.952
-241.316,957.944,64.172
-242.78,957.944,67.344
-244.732,954.772,68.808
-247.66,950.38,71.492
-251.808,946.72,70.272
-254.492,945.744,71.004
-264.252,943.548,72.224
-264.008,945.988,70.272
-263.276,949.404,70.272
-261.568,946.476,66.856
-262.056,945.744,65.636
-264.496,950.136,65.88
-269.62,952.332,66.612
-273.28,950.868,66.856
-272.548,953.308,70.272
-276.94,953.796,74.42
-279.624,954.772,75.64
-288.896,954.772,81.252
-285.724,959.164,83.448
-278.16,960.14,87.352
-286.944,952.332,91.012
-300.852,943.792,87.352
-329.4,934.52,89.548
-381.616,898.652,95.648
-450.18,857.904,90.28
-538.996,813.008,98.332
-652.212,757.376,94.184
-731.024,713.944,78.812
-777.384,694.912,53.192
-780.556,692.716,41.968
-749.568,666.364,28.792
-608.78,650.748,-14.64
-349.164,665.388,-49.776
-62.22,649.772,-35.868
387.472,593.408,-133.956
785.68,547.292,-240.584
1115.324,516.548,-262.544
1142.652,412.848,-137.86
1232.2,435.54,-8.052
1189.744,484.828,62.464
1099.22,572.18,74.908
1041.88,628.056,70.76
920.368,654.652,88.084
850.584,659.044,86.376
759.816,644.404,101.26
705.16,621.956,95.404
656.604,580.232,84.18
622.444,553.392,72.712
587.796,545.096,75.396
570.716,543.632,63.928
551.684,528.504,50.996
591.944,481.412,16.592
677.588,429.928,26.84
711.26,373.564,47.092
727.12,335.5,49.288
696.62,311.344,72.224
677.588,282.064,81.496
676.368,224.48,82.472
746.64,168.36,91.5
765.428,128.1,125.904
769.82,52.948,140.3
787.632,-10.492,133.956
793.976,-44.164,138.592
865.712,-75.152,109.068
945.744,-112.728,78.324
1067.744,-177.388,55.632
1155.096,-238.632,89.06
1270.752,-286.7,77.104
1349.564,-310.124,82.716
1406.904,-307.44,67.344
1500.356,-300.12,48.312
1586.0,-298.412,29.768
1628.7,-284.504,3.904
1615.036,-274.256,-10.98
1555.5,-258.152,-3.904
1479.372,-249.368,-2.44
1403.976,-252.784,12.932
1339.804,-264.008,24.888
1288.808,-270.596,32.452
1224.148,-270.596,23.18
1176.568,-263.764,-5.368
1129.72,-264.252,-28.06
1111.664,-256.688,-45.872
1110.2,-258.64,-63.684
1082.628,-268.4,-52.704
1059.936,-287.92,-32.208
1052.616,-299.144,-11.712
1053.592,-307.684,-6.588
1055.056,-310.612,-6.344
1071.648,-311.1,4.636
1115.812,-298.9,-16.348
1145.824,-286.456,-15.86
1190.232,-271.816,-15.616
1241.716,-259.86,-10.98
1292.956,-249.368,-7.564
1281.0,-256.688,15.128
1294.908,-229.604,38.796
1380.308,-210.816,35.38
1417.152,-202.52,33.672
1429.596,-189.344,52.46
1440.088,-171.776,75.152
1431.06,-134.688,103.7
1424.228,-94.916,97.356
1435.696,-70.272,63.684
1389.336,-23.912,111.508
1377.868,22.692,89.304
1216.096,70.76,105.652
1082.872,151.768,106.872
1043.1,223.26,61.0
1041.148,254.98,34.404
942.572,274.012,48.8
711.26,318.42,135.908
601.46,338.428,97.6
514.352,358.924,46.116
460.916,394.792,15.86
289.384,419.192,40.748
153.476,486.78,65.636
101.26,507.764,57.096
38.552,528.504,68.32
-33.916,528.26,75.884
-170.312,538.996,121.268
-227.408,568.764,127.368
-269.62,601.216,100.528
-304.268,661.972,104.188
-267.668,724.924,72.712
-252.54,791.78,45.872
-268.156,835.212,18.056
-306.708,888.648,25.132
-298.168,918.416,23.18
-314.272,948.184,26.352
-291.092,997.96,11.712
-228.872,1055.544,-16.348
-201.544,1081.164,-18.3
-197.152,1076.528,-6.832
-187.636,1079.7,24.4
-195.688,1060.912,44.164
-175.436,1052.616,40.26
-135.176,1047.98,33.916
-78.812,1041.636,23.18
-88.328,1021.14,31.476
-108.58,1002.352,52.948
-133.224,981.368,68.32
-128.1,971.852,63.928
-107.36,966.24,65.636
-94.916,957.944,65.148
-107.116,954.528,65.392
-122.0,954.528,68.32
-126.636,958.188,61.488
-125.66,949.648,54.9
-134.2,939.4,52.948
-153.232,932.08,59.78
-161.528,942.084,66.612
-167.384,951.356,71.248
-163.236,956.236,63.44
-153.476,960.872,55.144
-137.372,972.828,34.892
-132.736,981.124,32.208
-127.368,986.98,31.476
-140.788,992.348,36.112
-135.42,1005.28,35.38
-128.832,1009.184,30.012
-120.048,1000.888,21.716
-131.028,996.984,27.572
-131.272,992.836,32.452
-139.568,982.832,38.064
-145.912,976.244,39.284
-144.936,978.196,42.7
-141.032,976.976,40.016
-143.716,972.584,38.308
-155.428,967.948,40.992
-160.064,968.924,39.284
-164.456,971.364,43.676
-153.72,972.828,47.336
-142.496,976.976,44.164
-145.668,977.22,44.896
-141.764,985.028,42.212
-154.94,984.296,45.628
-154.452,977.952,45.384
-164.456,971.852,51.484
-163.968,975.024,48.8
-166.652,991.86,43.92
-164.212,1013.088,34.648
-163.236,1033.828,35.136
-182.024,1053.592,39.04
-202.52,1064.816,41.968
-229.848,1075.796,44.652
-247.66,1091.656,49.044
-260.104,1102.392,57.096
-263.764,1096.292,58.072
-287.92,1077.748,72.468
-313.052,1068.476,85.4
-340.136,1055.544,101.016
-364.78,1029.68,101.748
-397.476,998.448,106.872
-423.096,963.8,101.26
-447.984,930.128,108.58
-466.528,884.256,105.896
-507.032,829.356,104.676
-576.328,763.964,92.232
-653.676,723.948,86.132
-657.336,709.064,76.128
-693.936,680.272,77.104
-730.048,665.876,83.692
-662.948,657.824,51.484
-655.628,664.412,29.768
-517.768,663.924,0.976
-502.64,614.392,-5.856
-394.06,549.244,-28.304
-274.988,469.212,-9.272
24.156,398.696,-14.64
472.384,309.392,-80.032
942.328,244.488,-149.328
1105.564,126.148,-148.108
1334.192,29.036,1.952
1466.44,109.556,55.632
1399.828,231.068,83.692
1394.948,340.136,39.284
1341.756,415.288,-38.064
1219.024,503.86,-40.992
1121.424,576.328,-30.5
1065.548,618.052,-51.972
1000.4,620.492,-27.328
960.384,610.0,-18.056
928.176,590.48,-35.624
878.156,571.448,-43.432
829.356,562.908,-48.312
782.264,543.388,-53.436
726.144,522.16,-49.532
677.344,495.32,-46.116
642.208,470.92,-52.948
606.34,457.256,-61.488
573.644,439.932,-68.808
560.224,429.196,-68.32
560.224,402.112,-55.876
565.836,357.46,-31.72
552.66,305.976,-0.732
548.024,271.816,25.62
546.56,242.536,42.944
599.752,214.476,50.996
636.352,168.36,43.676
672.952,141.52,37.088
744.444,110.776,35.136
783.24,73.688,48.312
828.624,21.228,48.312
894.26,-25.132,60.268
961.604,-78.568,59.292
990.152,-110.776,78.568
1112.396,-139.324,68.808
1220.976,-166.896,60.512
1330.776,-212.28,46.36
1422.764,-214.72,10.004
1485.96,-206.912,-22.204
1504.748,-196.664,-40.748
1518.412,-213.744,-12.688
1526.708,-212.768,-3.416
1548.668,-232.776,-3.416
1520.852,-223.504,-8.784
1444.48,-201.056,-37.088
1380.064,-177.632,-65.392
1345.416,-162.504,-89.548
1292.712,-167.14,-92.72
1258.552,-193.736,-80.032
1221.952,-210.816,-64.66
1175.592,-225.944,-56.364
1133.624,-226.92,-46.848
1100.928,-230.092,-52.46
1101.66,-229.848,-56.12
1099.22,-239.852,-52.704
1108.248,-249.612,-47.336
1117.032,-262.3,-37.088
1142.896,-269.864,-36.356
1184.376,-269.132,-32.696
1213.656,-265.472,-19.032
1256.112,-256.444,-34.16
1292.224,-246.196,-35.868
1310.768,-235.948,-6.1
1319.552,-219.6,10.248
1337.852,-192.028,9.272
1347.856,-160.796,4.636
1359.08,-108.58,9.516
1362.984,-65.392,-2.44
1375.672,-22.936,-20.496
1359.08,16.104,11.956
1370.548,51.24,29.524
1323.212,81.252,54.168
1210.972,136.64,73.688
1028.46,238.632,126.148
898.408,330.376,98.088
838.872,393.816,61.976
815.936,445.3,32.208
671.732,473.36,46.116
630.008,526.308,31.72
539.728,549.732,34.16
467.016,564.616,55.876
428.708,570.96,8.54
264.984,559.736,30.744
161.528,597.556,56.608
110.288,607.56,58.316
20.252,610.488,87.352
-17.568,604.388,94.672
-103.7,573.644,117.608
-205.692,619.516,156.16
-247.416,618.296,144.204
-280.6,662.704,157.868
-348.676,691.984,162.016
-325.252,744.2,120.536
-322.324,803.492,81.496
-343.064,845.948,44.164
-336.72,898.652,12.2
-355.752,935.496,18.056
-361.364,967.46,9.76
-349.896,1009.916,13.42
-309.148,1048.956,14.884
-261.324,1070.184,8.54
-224.968,1068.72,8.296
-202.764,1054.08,13.42
-188.856,1039.196,27.084
-165.676,1037.244,30.256
-133.224,1041.636,41.724
-112.972,1020.896,51.728
-122.0,989.664,71.004
-138.104,972.096,84.912
-139.568,969.168,88.572
-120.292,971.852,69.296
-107.36,970.632,52.46
-108.58,963.556,53.68
-136.884,963.068,59.536
-153.964,960.872,63.928
-181.048,948.428,72.468
-156.648,956.724,59.048
-148.352,970.388,52.46
-131.516,982.344,42.7
-144.204,982.588,42.7
-160.552,974.048,52.704
-179.34,958.432,54.9
-190.076,948.916,63.44
-175.924,949.648,49.532
-167.384,958.188,51.972
-159.332,964.044,50.996
-150.792,976.244,56.12
-143.228,978.928,55.388
-137.616,977.22,48.556
-147.376,971.852,48.8
-160.308,967.216,42.456
-173.728,967.216,46.848
-167.384,972.584,42.456
-157.136,979.66,43.676
-141.764,984.052,38.796
-138.104,985.76,38.796
-148.596,975.756,40.992
-159.088,968.192,51.484
-159.82,964.532,54.656
-154.696,965.996,50.996
-148.84,968.924,45.384
-140.3,979.172,34.892
-142.984,981.124,33.184
-151.524,971.852,37.82
-168.604,966.24,41.724
-182.024,965.508,48.068
-174.704,971.364,40.992
-158.844,975.756,36.112
-135.176,979.66,27.572
-132.004,980.392,33.428
-145.18,977.22,42.456
-163.968,969.9,46.36
-166.896,970.144,42.212
-167.628,967.948,38.064
-150.792,971.364,28.548
-144.692,975.512,30.744
-152.256,972.34,39.528
-152.744,973.072,45.14
-152.256,971.852,50.752
-143.716,973.56,49.044
-142.496,977.952,47.336
-142.74,981.124,43.432
-147.132,979.66,39.04
-151.524,978.928,35.136
-159.088,975.268,37.332
-157.868,974.536,40.748
-150.304,975.024,42.944
-150.06,975.024,46.848
-148.84,977.22,40.26
-157.136,974.292,38.308
-155.916,971.608,34.648
-156.404,966.972,36.356
-152.988,972.584,35.38
-148.108,982.832,38.552
-144.448,993.812,38.796
-137.616,997.716,33.916
-139.324,997.472,27.572
-145.668,1001.132,23.668
-145.668,1015.04,24.156
-155.428,1024.312,28.792
-156.404,1030.9,31.72
-168.36,1039.684,35.868
-189.588,1057.984,42.7
-211.792,1085.556,46.116
-233.508,1124.596,52.216
-256.932,1158.512,60.756
-285.724,1190.964,66.612
-302.316,1207.068,62.22
-321.348,1194.38,58.56
-350.14,1172.176,61.0
-375.272,1136.796,66.612
-412.848,1089.216,74.908
-449.692,1045.052,77.348
-507.032,1014.064,95.892
-532.164,974.048,111.264
-576.816,920.612,123.952
-617.808,870.592,108.336
-680.272,813.984,86.62
-700.768,772.504,78.08
-727.852,707.6,16.836
-782.264,682.956,23.18
-693.692,644.648,16.348
-732.732,559.492,14.396
-780.068,494.344,-1.22
-686.86,440.664,-44.164
-591.944,406.992,-65.392
-503.616,330.62,-17.812
-255.956,239.608,-37.576
3.66,137.86,-32.208
293.532,64.172,-53.436
313.052,6.344,-39.284
489.708,-84.18,122.0
974.536,-240.096,105.164
1287.832,-185.44,113.216
1292.224,-28.304,111.752
1447.896,97.844,23.912
1571.604,206.18,-16.592
1550.376,332.816,9.272
1525.976,409.92,60.024
1504.26,436.516,54.656
1432.28,471.896,80.032
1352.248,471.164,76.86
1260.016,464.332,82.716
1187.792,448.96,80.764
1125.816,438.956,60.512
1055.3,437.98,38.796
988.2,431.636,5.124
939.4,420.9,-14.884
901.58,398.94,-30.988
850.584,383.568,-30.988
806.176,375.516,-33.916
769.332,371.368,-44.164
725.168,366.0,-29.28
703.208,355.508,-16.836
684.176,325.252,8.052
645.38,289.14,54.168
603.9,242.292,77.592
594.872,218.136,85.888
564.128,168.116,78.08
580.476,138.836,69.052
574.376,98.576,54.9
559.248,87.108,61.976
552.66,60.268,54.412
570.96,12.932,55.876
619.272,-57.584,58.56
711.016,-132.492,75.884
834.724,-176.168,52.216
958.92,-194.712,20.496
1047.736,-216.184,-11.956
1014.796,-250.832,-9.028
1183.888,-268.4,-18.056
1397.388,-310.368,-32.696
1531.344,-345.016,-14.152
1610.888,-356.972,-6.344
1628.212,-363.072,-3.66
1623.576,-338.184,-10.492
1627.724,-293.532,-39.284
1610.156,-283.284,-43.432
1572.336,-278.648,-43.92
1532.564,-286.7,-38.064
1424.228,-295.484,-2.928
1347.856,-271.572,-7.808
1300.764,-256.2,-19.032
1305.156,-252.54,-40.26
1299.056,-250.588,-47.58
1314.184,-251.32,-57.34
1303.204,-261.812,-46.116
1298.324,-278.648,-27.572
1301.008,-292.068,20.74
1324.432,-294.752,40.748
1355.42,-311.1,65.148
1433.256,-320.616,65.88
1481.08,-320.616,43.188
1454.972,-313.052,60.512
1396.656,-277.672,89.548
1401.536,-242.048,79.3
1385.92,-194.712,85.156
1346.148,-152.744,84.668
1241.716,-93.452,93.94
1133.624,-27.816,106.628
1153.876,35.624,38.552
1123.376,84.668,48.556
963.8,146.4,113.948
900.116,210.084,92.232
793.976,238.876,57.828
568.032,315.98,118.584
488.732,410.164,142.984
457.012,456.036,92.964
339.892,481.168,89.304
270.84,500.444,74.42
188.368,531.432,75.396
98.82,540.216,82.96
-100.772,546.072,139.08
-280.356,552.172,199.592
-392.84,576.572,218.38
-466.528,603.656,226.188
-464.82,651.48,160.796
-458.72,681.492,111.752
-418.46,748.836,74.42
-376.492,787.144,25.62
-368.196,830.088,18.544
-355.264,882.792,22.692
-356.728,940.62,35.868
-290.848,1007.964,24.888
-251.076,1042.856,20.984
-184.22,1068.72,8.784
-157.38,1077.992,6.1
-134.444,1068.476,24.4
-139.08,1047.736,48.8
-144.204,1030.656,70.272
-138.592,1018.212,85.4
-156.404,991.372,99.796
-136.64,980.392,90.036
-123.708,984.784,81.008
-112.484,974.048,80.764
-114.436,970.876,82.716
-137.616,968.436,96.136
-148.84,964.776,106.628
-162.992,954.284,96.38
-154.208,948.916,70.272
-147.376,961.848,65.88
-146.156,962.824,57.096
-163.724,954.528,61.976
-185.44,954.284,71.98
-195.688,950.624,63.928
-191.784,956.236,53.192
-171.044,963.312,41.968
-152.012,965.264,37.332
-140.788,969.168,40.504
-149.328,970.388,54.656
-154.208,971.12,56.12
-169.336,962.824,58.804
-167.872,956.724,49.532
-154.94,962.824,41.236
-147.376,968.192,40.992
-143.472,963.8,48.556
-148.84,959.896,56.12
-156.404,964.044,62.22
-158.112,972.096,61.488
-151.036,980.636,43.676
-147.62,983.808,37.088
-143.716,982.588,35.38
-151.28,971.608,41.236
-159.82,973.804,51.484
-158.112,980.636,53.68
-159.088,984.052,49.776
-152.988,986.004,42.7
-153.964,986.004,39.284
-155.428,983.076,41.236
-161.04,985.76,49.044
-153.72,987.224,50.996
-147.376,993.324,49.044
-146.644,989.908,50.264
-150.304,989.42,55.388
-155.184,994.056,59.048
-153.72,991.86,58.316
-157.38,989.908,57.828
-154.94,1000.644,48.068
-166.652,1016.504,44.164
-182.024,1023.092,47.092
-211.304,1030.412,59.048
-235.46,1055.788,68.076
-262.056,1090.436,70.028
-280.844,1117.032,64.416
-296.46,1133.38,64.66
-304.024,1144.116,61.0
-320.372,1145.58,67.588
-351.116,1129.964,72.956
-385.032,1110.2,74.42
-404.552,1100.928,69.052
-427.488,1080.432,72.224
-457.5,1055.056,72.224
-477.996,1009.916,79.544
-508.252,951.6,89.792
-543.876,888.404,107.116
-604.632,823.5,123.22
-595.604,769.332,121.512
-604.144,704.428,129.808
-631.472,638.304,139.568
-629.032,589.748,123.952
-608.048,541.924,101.992
-591.944,511.18,110.288
-524.356,488.732,100.772
-441.884,492.88,64.904
-408.212,493.856,-14.64
-292.068,583.16,-12.932
193.004,647.332,-51.24
495.808,648.064,-35.868
763.72,610.732,-50.996
898.652,458.964,-62.708
1025.288,470.676,-99.552
916.708,685.396,-24.4
726.632,778.116,34.648
760.06,791.048,70.76
808.372,743.468,-22.204
850.828,701.988,-59.048
825.94,743.712,-73.444
749.324,821.06,-88.816
619.76,866.444,-116.876
498.98,861.076,-105.652
357.216,793.0,-86.864
262.544,706.624,-54.9
199.348,601.948,-35.136
146.156,484.828,56.12
114.924,330.864,122.244
116.876,218.624,175.436
72.224,137.616,241.072
170.8,113.948,69.052
398.696,99.308,-44.896
742.248,47.58,-67.344
1216.096,-6.832,-120.536
1630.164,-112.24,-179.34
1840.736,-85.4,-142.496
1912.472,-24.644,-63.44
1918.816,23.424,35.38
1879.044,26.596,83.692
1807.308,9.516,152.988
1687.504,-4.88,194.468
1552.816,14.884,202.52
1392.508,53.924,167.628
1277.828,86.864,102.968
1191.452,103.944,53.68
1130.696,114.68,19.032
1099.464,102.968,-10.248
1051.64,95.892,-22.692
1017.968,79.3,-22.448
991.372,62.22,-0.488
985.76,50.02,4.392
961.604,51.484,25.864
957.944,47.092,39.284
947.452,47.824,50.752
939.644,49.776,55.876
936.228,46.848,66.856
912.072,46.116,70.516
901.58,51.484,68.564
868.152,52.46,62.952
852.536,50.264,51.484
816.424,36.6,35.624
767.38,13.664,34.404
713.7,-20.984,38.552
562.908,-104.432,59.536
498.492,-122.0,74.664
437.98,-158.112,77.592
446.764,-189.588,57.096
498.004,-215.208,45.872
585.6,-241.072,-3.172
746.884,-286.944,-67.1
930.372,-323.544,-92.476
1177.788,-332.816,-136.396
1290.516,-360.144,-139.812
1354.444,-380.884,-113.216
1381.772,-380.396,-93.452
1422.032,-367.708,-79.056
1439.6,-380.884,-58.804
1457.656,-412.848,-53.68
1423.008,-408.944,-54.9
1405.684,-391.132,-62.464
1375.916,-382.592,-67.1
1354.688,-380.64,-67.588
1306.62,-377.468,-69.784
1235.616,-370.88,-89.304
1164.612,-361.364,-101.992
1124.108,-359.168,-98.088
1088.484,-369.172,-85.888
1061.156,-391.132,-73.688
1064.572,-412.848,-62.952
1072.624,-426.756,-66.612
1066.036,-429.928,-50.264
1099.22,-453.108,-43.676
1155.828,-466.528,-27.572
1213.9,-478.484,-26.352
1262.7,-480.924,-12.688
1326.872,-464.82,-4.148
1398.364,-442.128,-9.028
1382.26,-433.832,5.612
1423.984,-422.12,-8.052
1462.048,-395.036,-18.544
1405.44,-356.728,11.956
1348.588,-292.068,36.112
1295.152,-225.456,35.868
1186.328,-132.736,56.852
1070.428,-30.5,33.428
966.728,63.684,20.008
1025.776,134.2,-4.88
1158.756,151.768,-49.288
1015.284,164.7,28.548
834.48,227.896,54.412
626.592,299.388,71.736
414.068,419.192,124.928
261.568,496.052,125.904
182.512,574.864,134.2
179.828,620.004,145.668
152.256,608.78,115.412
5.368,588.772,143.716
-148.352,583.648,159.82
-278.16,590.968,202.032
-329.156,621.224,166.652
-316.712,706.38,138.348
-272.06,756.156,108.58
-226.188,809.592,54.9
-217.404,880.352,40.016
-190.32,945.744,38.552
-199.836,968.924,48.556
-171.044,1000.888,42.7
-144.204,1027.484,38.796
-107.848,1051.396,18.3
-76.616,1057.496,3.416
-48.556,1049.2,20.008
-48.312,1025.288,39.528
-56.12,1012.112,68.808
-46.604,1012.844,76.372
-14.884,1012.844,75.884
16.348,1015.772,67.832
31.964,1014.552,58.56
10.248,1012.112,75.396
-10.004,997.716,80.764
-35.624,983.32,88.084
-41.724,969.9,87.108
-34.892,962.824,80.52
-12.932,972.34,74.42
-4.636,982.588,69.784
-14.396,977.464,73.688
-32.696,972.34,80.52
-48.556,974.536,76.128
-51.728,982.588,74.176
-30.988,987.956,63.44
-14.396,995.52,53.68
-18.544,994.3,55.632
-31.964,984.784,62.22
-47.092,986.004,61.244
-58.316,977.464,63.684
-59.536,972.584,58.804
-55.876,972.34,55.876
-48.8,971.12,54.412
-43.432,976.488,53.436
-49.532,975.024,57.828
-54.168,970.632,58.56
-62.464,967.948,63.684
-59.048,971.852,58.804
-45.384,981.368,51.728
-31.964,991.616,47.092
-31.232,999.668,51.484
-44.408,1001.62,62.22
-55.632,1000.888,65.636
-54.412,1001.62,56.608
-47.58,1001.62,46.116
-40.26,1001.864,51.728
-48.8,1004.792,55.632
-58.56,1002.84,71.98
-64.172,999.912,73.932
-58.56,993.08,71.248
-48.312,996.984,58.804
-44.896,1012.6,52.704
-56.608,1027.24,57.828
-72.956,1035.048,58.316
-80.764,1053.592,60.512
-86.132,1082.14,58.072
-97.6,1104.832,67.344
-120.536,1131.916,70.272
-159.576,1161.928,75.152
-202.276,1193.404,78.568
-226.92,1215.364,64.172
-253.272,1217.56,62.464
-280.6,1207.8,63.44
-299.388,1174.86,65.88
-320.86,1123.62,71.98
-330.132,1075.552,70.272
-357.46,1016.504,70.028
-387.472,963.556,72.224
-393.084,923.052,86.864
-355.02,874.984,72.956
-357.704,826.916,73.444
-339.404,801.052,59.78
-322.812,786.412,65.636
-333.792,758.108,71.248
-363.316,720.776,72.468
-404.796,689.544,78.812
-467.016,669.78,79.788
-531.432,643.428,76.128
-589.504,604.144,66.124
-682.468,558.76,71.248
-721.752,520.696,75.64
-761.768,477.02,85.156
-705.16,437.004,77.348
-781.288,415.532,94.916
-707.844,402.6,98.088
-659.288,361.852,88.328
-637.328,316.712,103.944
-438.956,247.904,73.932
-233.996,176.656,19.52
143.96,136.64,-83.936
617.076,47.092,-114.924
962.824,-42.456,-19.52
1390.8,-250.1,79.788
1929.796,-423.584,148.108
2024.468,-173.972,192.272
1944.192,149.816,161.528
1802.428,400.892,109.068
1566.724,525.332,126.88
1460.096,522.648,76.616
1344.928,501.176,74.908
1248.304,473.116,82.96
1153.632,469.212,68.564
1035.292,477.508,60.024
923.784,471.896,63.44
818.132,448.472,91.744
755.18,414.556,94.184
740.54,388.204,54.168
719.312,377.468,-0.244
667.34,370.148,-20.984
624.152,353.312,-21.96
601.948,309.392,11.956
599.508,250.588,53.192
596.58,199.592,96.624
588.528,151.524,100.284
559.004,117.608,74.908
650.504,104.188,69.784
735.416,44.652,55.144
809.836,-13.176,59.048
839.36,-62.952,95.648
822.28,-132.736,85.644
784.46,-179.096,88.572
880.352,-206.18,59.292
998.692,-263.52,28.548
1091.168,-309.148,8.052
1182.424,-372.1,-11.712
1194.624,-409.432,9.516
1201.212,-415.776,39.772
1281.0,-427.244,37.088
1351.028,-439.2,28.792
1383.236,-423.096,-22.936
1386.896,-391.62,-41.968
1409.588,-371.856,-87.108
1404.22,-381.128,-80.276
1396.656,-388.936,-86.864
1356.64,-381.86,-75.64
1281.0,-371.612,-75.152
1226.1,-358.192,-93.208
1164.856,-349.408,-100.772
1134.112,-349.164,-134.932
1119.228,-348.188,-133.956
1120.204,-359.9,-131.272
1099.464,-376.248,-123.464
1060.18,-384.056,-95.404
1021.14,-388.936,-85.644
999.668,-388.692,-78.324
996.252,-386.252,-79.544
1016.748,-389.18,-86.864
1046.516,-388.936,-88.816
1073.112,-406.016,-85.4
1097.756,-408.7,-53.924
1151.924,-432.856,-29.768
1195.844,-439.688,-8.54
1223.416,-440.42,10.736
1271.972,-426.512,10.98
1285.88,-411.14,22.936
1311.012,-384.3,26.84
1335.656,-378.2,34.648
1369.816,-361.12,42.456
1373.232,-355.508,57.584
1354.444,-343.064,89.304
1376.648,-324.52,87.596
1418.616,-294.996,72.224
1377.868,-264.252,95.648
1365.912,-234.972,75.396
1375.672,-212.768,27.328
1203.408,-172.264,92.964
1114.104,-20.252,107.36
1022.36,63.44,97.6
853.512,174.704,139.324
749.08,278.16,118.096
616.832,312.808,105.896
466.528,389.912,151.524
482.388,432.124,81.984
382.348,443.348,105.896
148.352,456.768,154.452
-43.432,502.396,230.58
-119.072,539.728,238.144
-240.828,574.376,258.884
-295.484,588.04,218.136
-344.284,613.904,181.048
-389.18,637.328,134.444
-410.652,702.72,86.62
-389.912,760.304,58.072
-357.216,821.792,29.524
-335.012,883.524,13.664
-305.0,942.572,21.716
-279.136,955.992,25.864
-276.696,947.452,44.896
-258.64,945.988,48.312
-253.028,964.044,57.34
-217.404,995.52,45.384
-192.272,1021.872,26.352
-156.892,1044.564,14.396
-139.812,1039.196,18.056
-133.712,1014.308,34.648
-152.012,991.128,47.336
-176.9,986.004,59.292
-189.832,977.952,62.464
-160.064,973.072,54.656
-134.2,968.68,46.848
-117.852,962.824,48.068
-138.836,956.48,66.368
-161.528,955.016,71.248
-169.58,961.604,69.296
-158.6,965.996,60.512
-141.032,972.828,50.752
-135.176,968.436,47.336
-139.812,967.46,51.484
-158.6,966.24,59.536
-172.02,959.652,54.412
-176.9,964.532,45.14
-164.7,974.78,37.576
-142.008,979.66,34.892
-130.052,976.732,39.528
-141.032,967.46,48.8
-151.524,960.14,53.924
-166.652,956.236,58.804
-168.604,958.92,52.216
-171.532,958.92,48.556
-156.16,964.044,39.772
-138.104,970.632,33.672
-136.64,972.584,36.844
-133.956,972.584,42.456
-142.008,974.536,53.436
-148.596,974.78,55.388
-153.964,976.488,52.948
-147.864,981.368,38.796
-141.764,995.764,30.5
-125.172,1013.82,21.716
-125.172,1016.992,23.668
-119.804,1018.944,27.816
-136.396,1026.508,36.6
-153.964,1048.468,49.776
-176.412,1074.576,53.68
-196.176,1104.588,49.044
-209.108,1135.576,40.992
-213.988,1156.56,32.94
-268.888,1171.932,53.924
-301.828,1192.916,65.148
-347.944,1194.38,75.64
-378.444,1179.252,81.252
-400.892,1158.512,76.128
-426.756,1138.992,79.544
-405.528,1115.08,53.192
-381.128,1084.336,18.056
-319.152,1062.864,-1.952
-258.884,1021.14,-7.564
-252.784,962.824,22.936
-285.236,900.36,47.336
-353.8,843.996,74.664
-403.332,777.14,79.3
-447.008,732.488,103.456
-425.78,722.972,122.976
-387.96,714.92,127.368
-373.808,692.716,143.96
-394.06,647.82,157.136
-442.372,598.044,152.012
-487.512,576.572,133.956
-542.412,578.524,117.852
-535.092,612.684,116.876
-490.196,651.236,91.256
-438.956,684.176,65.88
-406.992,708.82,53.68
-399.184,722.972,19.764
-393.572,729.56,-0.976
-399.672,705.404,-22.448
-476.776,664.168,-11.468
-497.76,637.084,-20.984
-458.232,593.164,-36.356
-499.956,540.948,-13.664
-519.964,490.684,-34.892
-428.952,432.612,-30.988
-343.064,344.772,9.76
-245.464,215.696,-9.516
-28.548,109.068,-56.852
223.016,-4.392,-65.148
406.992,-102.236,56.12
766.404,-274.5,97.356
1236.836,-497.028,94.428
1630.652,-604.876,162.748
1899.296,-488.0,164.212
2044.72,-270.596,184.952
2081.564,-82.96,154.452
2022.516,1.464,160.552
1968.592,34.16,170.312
1795.108,52.704,204.716
1628.456,85.4,237.656
1474.98,110.776,192.516
1302.228,142.984,142.496
1136.064,168.116,127.856
1012.356,179.096,113.216
934.764,164.7,85.156
865.468,153.72,61.244
822.768,141.52,39.528
798.368,129.808,7.076
794.464,124.196,2.196
767.136,95.404,11.468
716.14,63.44,38.308
681.004,28.792,69.052
615.612,-8.296,100.04
583.404,-53.68,96.38
541.436,-92.964,83.692
553.392,-118.34,60.756
645.38,-144.692,47.092
727.12,-193.248,58.316
843.996,-251.564,74.908
881.328,-337.696,78.812
925.004,-359.9,56.608
1062.132,-372.1,23.18
1172.176,-365.268,6.344
1248.304,-361.852,-2.684
1299.788,-359.168,-42.212
1334.924,-364.536,-73.688
1346.636,-359.656,-75.152
1355.664,-380.152,-77.104
1366.156,-397.232,-54.412
1390.068,-412.604,-70.272
1368.352,-401.868,-73.688
1324.92,-378.444,-75.64
1286.368,-366.732,-83.692
1242.204,-347.456,-88.572
1227.564,-342.576,-102.724
1233.176,-345.748,-135.176
1240.74,-341.356,-139.568
1206.824,-345.26,-116.632
1173.64,-353.068,-93.452
1153.632,-357.46,-63.684
1128.012,-365.756,-48.8
1166.564,-351.36,-47.336
1215.364,-342.576,-50.996
1245.132,-351.604,-33.672
1257.332,-353.068,-0.244
1261.236,-349.164,30.012
1294.908,-335.256,35.868
1337.12,-324.764,34.892
1331.996,-309.88,45.628
1349.564,-308.66,29.524
1329.556,-294.752,60.512
1283.44,-251.808,95.404
1236.104,-215.208,111.752
1180.716,-189.1,185.684
1246.108,-142.252,170.556
1364.692,-108.092,64.66
1220.732,-56.364,52.948
1059.692,49.532,62.708
974.536,151.036,64.904
872.788,241.316,95.648
838.384,314.272,87.108
640.5,358.436,101.748
510.936,440.908,120.292
536.312,505.568,106.628
540.216,532.896,68.32
453.84,564.616,70.028
326.472,582.184,126.636
162.016,596.58,182.512
-52.46,664.9,224.724
-126.636,740.296,212.036
-159.82,739.564,212.036
-242.536,736.88,198.616
-257.42,755.424,130.296
-228.872,782.508,66.856
-270.596,788.364,69.784
-273.524,812.032,65.392
-274.744,858.88,55.144
-278.892,899.872,58.316
-254.736,926.468,38.064
-222.528,950.868,29.768
-203.496,964.044,31.232
-192.028,974.048,26.596
-186.904,993.568,37.088
-159.82,1021.384,23.18
-156.16,1023.092,18.788
-145.668,1001.864,7.32
-151.768,983.076,14.64
-138.836,965.996,22.936
-116.632,966.728,45.384
-106.872,963.556,66.856
-115.168,952.332,76.86
-116.632,946.964,76.86
-127.612,946.964,69.296
-117.608,961.604,54.168
-108.336,975.024,60.512
-83.448,985.028,62.952
-62.708,997.96,67.1
-61.0,1001.376,68.32
-88.328,993.812,70.76
-112.24,979.904,67.588
-120.048,973.316,64.904
-116.388,967.948,53.436
-101.016,971.364,52.948
-96.624,975.024,45.628
-101.016,983.564,46.848
-110.288,987.468,48.312
-121.512,985.272,51.24
-117.364,980.148,53.192
-110.044,976.732,47.58
-99.064,975.024,45.384
-98.332,979.416,43.676
-87.84,986.248,44.408
-109.312,978.928,42.7
-120.292,977.708,43.92
-127.612,974.78,45.384
-125.66,973.316,41.968
-115.168,974.78,41.968
-102.724,971.852,41.48
-102.724,976.488,49.532
-105.408,974.536,52.948
-119.072,973.072,57.34
-112.24,971.608,52.46
-116.632,971.852,53.68
-105.408,978.928,42.212
-110.532,979.416,48.556
-101.016,980.636,47.58
-111.264,972.828,55.388
-121.512,971.364,60.756
-119.072,980.88,54.9
-118.096,994.544,53.436
-96.136,1002.596,40.748
-92.232,1008.696,43.188
-94.672,1015.04,40.016
-109.556,1019.92,36.356
-127.856,1024.556,29.768
-147.864,1030.168,33.184
-155.428,1047.004,36.844
-157.624,1053.836,32.696
-163.968,1061.156,25.376
-168.36,1068.232,31.232
-190.076,1073.6,41.236
-215.208,1066.036,53.924
-242.78,1064.328,73.444
-268.644,1067.744,75.884
-288.408,1074.82,59.536
-315.492,1082.384,50.264
-349.896,1088.24,46.604
-390.156,1079.456,44.652
-434.32,1067.744,47.336
-475.556,1065.304,70.028
-488.244,1047.492,73.444
-525.088,1013.088,72.956
-513.132,967.948,69.54
-541.192,912.316,77.348
-564.128,845.704,79.544
-581.208,791.048,97.844
-627.568,723.46,93.94
-665.144,666.364,83.692
-648.308,619.76,73.444
-626.104,565.348,68.076
-656.36,507.52,52.948
-608.048,431.148,78.08
-417.728,317.688,89.792
-176.168,231.068,119.316
125.172,96.136,93.452
610.488,8.296,20.74
984.54,-106.872,-73.2
1253.428,-214.964,-117.852
1590.636,-113.46,-92.232
1409.832,100.528,-1.464
1321.26,268.644,26.596
1305.644,338.672,-37.332
1179.496,399.184,-59.292
1071.892,453.352,-33.184
1086.044,451.644,-18.788
1112.396,393.084,27.816
1196.088,342.82,26.84
1182.912,349.164,42.944
1131.916,374.296,44.164
1061.156,402.356,23.912
988.688,415.532,3.66
929.64,411.14,-15.128
859.856,382.592,-41.724
741.76,341.356,-56.608
633.18,314.028,-33.916
580.476,263.52,-23.912
541.68,218.868,0.244
479.704,183.976,39.528
484.584,134.932,9.76
507.52,87.352,-47.336
559.248,40.504,-63.196
705.648,-18.3,-59.536
830.82,-104.432,-20.008
864.98,-171.288,13.176
852.78,-228.628,24.156
908.168,-231.556,38.064
1019.676,-259.86,20.252
1152.9,-304.268,2.684
1316.38,-330.864,-27.816
1445.7,-353.068,-57.34
1416.908,-358.192,-44.652
1443.748,-326.716,-46.848
1518.9,-307.684,-57.096
1517.436,-307.44,-45.872
1496.208,-293.776,-29.28
1450.58,-283.04,-36.6
1364.692,-276.94,-45.384
1333.948,-263.276,-65.88
1277.828,-255.712,-76.616
1246.108,-259.616,-84.424
1222.44,-265.96,-73.444
1216.34,-285.48,-88.816
1191.452,-292.8,-82.472
1138.748,-294.752,-85.888
1104.1,-290.848,-73.932
1060.424,-291.58,-55.388
1029.192,-302.072,-38.552
1044.32,-318.42,-30.988
1061.156,-338.672,-17.324
1087.02,-346.48,-8.54
1111.908,-349.652,-7.32
1095.56,-346.48,12.444
1085.556,-329.644,48.556
1154.608,-315.492,31.72
1205.116,-299.144,19.764
1229.272,-294.02,22.692
1229.516,-262.788,28.548
1191.208,-243.512,54.656
1169.004,-194.468,82.228
1182.424,-143.472,84.18
1248.548,-102.48,46.36
1367.132,-52.46,0.976
1371.524,1.464,31.72
1343.22,108.824,90.28
1230.004,198.616,71.248
1056.764,302.804,83.692
1053.836,421.388,48.8
1021.14,513.62,41.724
998.692,589.992,33.672
927.932,640.744,9.028
744.444,671.976,62.22
609.024,719.312,68.076
535.824,770.064,30.256
479.46,811.788,28.304
409.676,813.008,44.408
298.9,772.748,19.764
175.436,724.68,66.368
43.188,696.62,74.664
-90.768,672.952,75.396
-69.052,704.672,73.444
-194.956,657.58,126.392
-186.904,667.34,103.944
-170.312,688.08,139.08
-126.636,689.056,156.404
-146.644,698.816,131.272
-193.492,731.024,143.228
-185.928,791.536,147.376
-179.34,836.92,134.688
-205.692,862.052,131.272
-188.856,886.452,92.72
-174.704,909.632,97.356
-164.212,941.596,70.516
-179.584,972.34,57.34
-193.98,986.736,49.044
-213.988,1007.476,26.596
-235.948,1000.156,15.616
-213.744,996.008,37.332
-178.12,995.276,41.236
-168.848,983.564,66.368
-172.508,976.244,83.448
-183.0,969.9,81.008
-196.176,952.576,78.08
-191.296,938.424,82.228
-170.8,934.764,91.5
-148.84,942.328,92.72
-132.736,952.82,97.356
-120.78,965.508,90.524
-109.312,972.096,83.204
-112.972,972.34,85.156
-131.76,968.68,85.4
-145.912,961.36,83.692
-137.86,967.216,67.832
-130.54,976.0,64.416
-121.756,986.98,59.78
-115.168,998.448,57.828
-125.172,990.884,64.172
-142.008,971.608,67.588
-162.016,958.676,69.052
-159.332,952.088,57.34
-151.28,950.136,54.9
-135.908,967.216,57.828
-119.072,984.784,61.488
-111.996,992.592,68.808
-112.728,989.42,67.832
-117.12,983.564,66.368
-117.364,988.688,69.052
-117.608,985.028,70.516
-128.588,984.052,74.664
-125.172,982.344,70.028
-125.172,983.808,68.808
-121.268,977.952,68.076
-121.024,973.316,69.784
-122.732,966.24,71.492
-125.66,964.288,72.224
-135.176,969.168,64.904
-127.124,976.976,55.144
-127.856,973.56,62.708
-121.512,979.172,59.78
-122.488,981.612,66.368
-122.244,980.88,66.856
-126.392,974.048,64.416
-126.88,975.024,60.756
-124.196,981.612,57.828
-130.296,988.2,59.048
-127.612,987.956,54.656
-133.956,982.1,58.072
-135.176,978.196,55.632
-138.348,986.98,55.876
-130.784,996.008,52.46
-123.22,1003.572,51.24
-116.632,1016.748,49.532
-119.804,1027.728,46.36
-151.036,1046.516,41.724
-175.436,1081.408,38.552
-212.524,1120.448,37.332
-249.612,1149.484,29.036
-288.896,1164.124,29.768
-327.448,1181.204,35.868
-363.072,1189.5,47.336
-399.184,1176.324,59.536
-435.296,1156.316,75.884
-422.608,1136.064,68.076
-439.444,1107.516,70.272
-463.6,1074.576,67.588
-477.996,1040.66,90.768
-484.34,1009.672,104.432
-492.636,971.608,126.148
-458.72,913.78,150.792
-450.668,841.312,158.112
-438.224,776.652,160.552
-438.956,700.768,149.084
-464.576,629.764,142.496
-517.768,574.62,142.008
-498.248,533.14,134.2
-579.988,469.456,105.408
-730.78,435.052,111.752
-650.26,382.104,81.496
-462.624,312.808,68.32
-403.088,230.336,54.168
-343.552,115.9,82.716
-107.604,-8.54,89.304
326.96,-68.32,101.016
716.872,-175.924,34.648
1121.668,-288.408,-61.488
1626.992,-294.752,-113.704
1751.676,-96.38,-77.592
1680.184,109.312,-90.28
1726.056,253.76,-81.252
1627.236,358.68,-95.648
1526.952,427.244,-60.512
1428.376,472.384,-16.104
1333.216,457.988,18.3
1263.432,451.156,17.324
1195.112,437.492,10.736
1128.256,431.636,2.44
1068.72,423.34,-5.124
999.912,409.188,-7.808
965.996,389.18,-25.62
935.496,371.612,-35.136
932.568,355.508,-61.244
924.76,340.38,-62.464
919.636,331.352,-64.416
888.648,332.084,-57.096
856.684,333.792,-45.872
856.684,330.62,-40.504
852.78,319.396,-24.4
851.56,294.264,3.66
833.016,261.812,31.72
789.584,234.484,52.704
760.548,220.088,66.124
738.832,200.08,59.78
725.656,172.752,65.392
728.584,132.248,56.364
644.892,73.2,42.7
598.288,56.364,39.772
627.812,57.096,19.52
651.48,20.74,7.808
726.144,-14.884,38.308
793.976,-40.504,62.464
816.18,-83.204,35.38
844.24,-93.94,-17.812
911.828,-111.264,-62.464
1034.072,-123.708,-77.348
1204.872,-173.24,-80.276
1366.888,-209.84,-75.884
1486.204,-226.188,-77.836
1529.148,-242.048,-72.224
1559.648,-244.244,-75.884
1583.56,-223.504,-104.188
1602.104,-196.664,-123.952
1558.672,-176.412,-132.98
1481.324,-165.432,-123.952
1389.824,-163.48,-95.404
1308.572,-166.164,-77.836
1250.988,-171.776,-68.808
1222.684,-170.068,-82.96
1192.184,-173.972,-98.088
1159.244,-172.996,-98.576
1128.5,-174.216,-94.916
1105.32,-174.46,-82.228
1098.0,-187.392,-69.54
1130.94,-199.836,-59.048
1155.096,-212.524,-44.164
1156.072,-213.256,-16.348
1155.096,-199.592,-1.464
1178.032,-173.24,1.22
1221.952,-154.208,3.172
1215.608,-142.984,18.056
1195.356,-117.852,26.352
1180.228,-95.404,22.204
1184.132,-73.688,29.768
1183.156,-50.02,43.188
1224.88,-14.152,28.548
1202.92,26.596,15.86
1165.588,75.396,27.328
1234.396,97.6,-18.788
1213.168,89.548,-28.792
1205.848,193.248,29.28
1256.356,263.52,23.912
1128.012,346.724,36.112
884.256,445.056,68.808
696.132,562.42,91.744
670.512,667.828,76.86
595.116,708.088,39.284
435.54,714.432,61.0
252.54,717.848,91.012
82.96,713.456,110.288
-45.384,735.66,110.288
-46.848,734.928,74.664
-96.38,723.216,51.24
-182.024,688.568,64.66
-184.708,675.636,76.86
-203.008,674.66,70.028
-252.54,704.672,74.176
-248.88,778.604,72.224
-169.092,883.524,56.364
-166.896,921.1,69.784
-134.932,939.4,50.264
-139.812,958.676,58.072
-140.3,984.54,42.212
-117.608,1006.744,45.628
-95.16,1024.068,30.988
-87.352,1026.264,31.964
-71.98,1009.672,42.7
-69.296,976.244,46.848
-86.132,955.504,60.268
-59.78,961.36,54.412
-27.084,994.056,43.188
-28.304,1012.844,29.036
-36.6,1021.14,27.816
-36.356,1007.72,35.136
-44.896,981.368,44.652
-32.696,945.012,66.124
-17.812,931.592,61.0
-8.052,943.548,65.88
-24.156,961.604,65.88
-37.332,976.488,50.02
-34.892,984.784,41.48
-32.94,977.22,36.356
-26.84,976.244,36.112
-20.496,972.584,42.7
-19.52,978.684,43.188
-14.64,994.544,44.164
-11.468,1003.328,35.624
-19.276,1007.232,35.136
-20.252,1004.792,27.328
-23.912,1001.864,22.692
-17.324,998.936,24.888
-10.004,995.764,27.328
-10.98,989.664,30.988
-13.664,984.784,36.6
-28.304,978.928,34.892
-27.328,981.856,24.644
-9.028,999.668,17.324
-2.684,1002.84,20.252
-4.392,1005.036,24.888
-16.836,1004.792,39.772
-23.912,1016.016,46.36
-11.712,1028.704,40.016
-3.172,1053.836,25.376
-10.736,1112.396,28.548
-13.664,1164.612,36.356
-38.064,1197.796,41.968
-62.22,1238.056,53.192
-81.74,1273.68,45.14
-112.728,1293.444,37.088
-128.1,1305.644,25.376
-166.652,1283.928,11.224
-220.088,1259.04,7.564
-240.096,1224.392,8.052
-259.616,1162.66,22.448
-256.932,1089.704,51.972
-245.708,1030.656,63.928
-233.996,976.244,47.824
-229.604,941.352,66.124
-260.104,908.168,105.164
-314.516,862.296,119.804
-376.004,806.176,135.908
-433.344,754.936,163.236
-449.692,721.264,164.7
-438.224,688.812,144.204
-460.672,665.632,138.104
-500.688,639.768,124.928
-556.32,623.664,114.436
-594.384,596.824,122.976
-657.336,548.268,132.492
-747.616,463.6,157.136
-787.632,387.472,176.9
-792.024,325.984,151.036
-858.636,316.468,111.508
-805.444,300.852,113.704
-756.644,277.184,123.22
-669.292,253.028,112.24
-599.02,185.44,107.604
-470.676,125.172,121.268
-274.5,78.568,139.568
-66.124,1.22,202.52
485.804,-75.64,194.224
1173.152,-159.576,-123.708
1419.348,-208.132,-357.216
1591.368,-200.08,0.488
1697.508,-69.296,78.324
1707.512,39.772,49.532
1664.568,142.74,95.892
1562.576,231.556,55.632
1409.1,299.388,61.0
1331.264,335.256,106.14
1313.696,302.56,125.904
1315.404,217.892,150.548
1285.636,146.888,157.136
1197.796,152.256,140.788
1087.996,183.244,88.328
979.904,205.204,78.324
913.292,213.988,74.908
891.82,206.912,48.8
840.092,172.508,30.5
805.688,159.576,29.524
784.948,138.104,18.544
819.84,115.168,-3.904
918.172,69.54,20.984
995.764,28.792,81.252
965.508,-27.816,116.144
881.084,-77.836,145.668
909.632,-61.732,155.916
925.736,-74.664,128.1
893.528,-81.496,110.776
853.268,-109.556,91.744
772.992,-163.48,105.408
725.168,-197.64,120.292
731.756,-209.596,98.82
825.94,-226.432,54.412
943.548,-246.196,17.812
1086.776,-277.184,-14.152
1225.368,-322.324,-57.096
1324.92,-336.232,-81.008
1400.56,-323.788,-87.596
1444.48,-294.752,-101.992
1458.144,-269.376,-136.64
1421.788,-263.032,-150.06
1400.804,-264.74,-136.152
1374.696,-262.3,-98.82
1346.392,-277.916,-96.38
1318.088,-276.94,-96.38
1274.9,-273.768,-104.676
1216.828,-257.908,-111.02
1151.68,-242.048,-124.44
1124.352,-237.656,-139.568
1094.096,-244.488,-133.468
1094.828,-267.424,-127.368
1091.9,-284.992,-107.604
1077.504,-295.24,-110.288
1033.584,-297.192,-83.204
1000.644,-299.388,-76.372
978.928,-298.412,-60.268
1015.04,-304.268,-55.876
1085.8,-310.124,-56.364
1166.076,-330.376,-60.756
1205.36,-345.26,-55.388
1195.112,-352.824,-23.18
1196.82,-351.116,-0.488
1236.592,-358.436,3.904
1271.728,-347.212,39.772
1362.252,-318.908,0.0
1412.028,-289.872,-38.552
1345.904,-251.564,-7.808
1263.188,-186.416,38.796
1245.864,-125.904,42.456
1278.804,-71.248,57.828
1318.332,-21.96,35.136
1277.34,26.84,11.468
1209.752,107.604,18.788
1118.008,182.268,49.776
917.196,263.764,120.048
788.364,359.656,108.092
679.052,418.46,135.908
686.616,516.792,85.644
588.284,522.892,80.52
427.976,587.552,94.916
326.472,630.984,113.216
304.512,704.428,109.8
301.828,717.604,101.016
231.312,756.644,152.744
57.34,742.248,210.572
-24.644,742.004,224.236
33.184,797.88,185.196
-75.152,790.56,211.548
-161.04,756.156,180.316
-168.848,796.904,169.092
-179.828,783.484,149.816
-200.568,806.42,139.568
-197.64,839.604,131.76
-217.892,851.316,133.468
-252.784,854.976,119.56
-253.028,877.912,93.452
-206.912,923.54,44.408
-198.616,967.704,35.136
-165.188,999.424,52.704
-126.392,1000.4,41.968
-151.036,992.104,43.92
-185.44,975.268,51.728
-166.164,989.42,30.988
-138.592,1009.428,30.988
-128.588,1006.988,29.524
-122.488,987.956,41.48
-133.712,960.628,55.144
-149.572,937.204,67.1
-169.092,933.3,61.976
-157.136,942.328,63.44
-135.42,949.16,77.592
-129.808,953.308,75.884
-132.004,959.408,82.472
-124.928,957.456,79.788
-143.96,952.82,83.692
-142.984,948.916,79.3
-129.076,950.136,68.564
-132.492,954.284,66.368
-134.2,962.824,64.66
-108.824,983.808,61.732
-113.704,987.712,63.928
-134.2,982.588,63.928
-141.52,971.12,50.508
-152.744,973.072,47.336
-151.768,969.168,41.724
-146.4,968.924,50.02
-121.268,979.66,51.24
-112.728,986.004,58.804
-106.384,984.052,59.048
-119.56,982.1,65.88
-127.612,976.0,62.708
-139.08,968.924,62.464
-130.54,976.488,58.804
-118.828,988.2,60.756
-116.144,991.86,62.464
-119.56,987.224,60.512
-120.536,987.712,56.852
-122.732,984.784,55.388
-134.688,986.004,60.268
-137.86,988.2,52.948
-134.688,1003.328,50.996
-128.344,1018.7,44.164
-142.252,1044.808,48.312
-151.524,1074.82,45.872
-167.872,1104.344,46.116
-194.224,1132.404,61.732
-193.248,1150.216,55.388
-224.236,1160.708,54.656
-227.164,1173.884,15.372
-272.548,1195.112,18.788
-299.144,1212.924,35.136
-314.028,1199.504,30.5
-308.416,1176.08,27.084
-252.54,1152.412,-8.784
-244.732,1126.06,1.464
-239.364,1088.24,18.544
-275.72,1062.132,25.376
-321.104,1034.804,39.04
-352.092,1002.596,40.016
-316.956,979.416,19.032
-301.34,958.676,24.156
-296.704,942.328,57.34
-286.7,898.652,89.304
-325.252,846.192,126.392
-338.916,776.896,130.296
-346.48,700.28,137.372
-352.336,641.964,142.984
-402.356,613.416,167.384
-400.16,624.64,200.324
-389.18,614.148,202.764
-386.496,591.212,195.688
-459.452,548.024,172.752
-514.596,534.36,157.624
-435.052,532.164,144.936
-417.728,500.2,137.86
-445.544,470.188,108.092
-503.128,443.348,112.484
-528.504,414.068,117.12
-410.408,391.864,108.336
-388.692,352.336,87.596
-225.212,333.548,60.024
37.332,244.244,-9.028
424.072,223.016,-99.552
876.936,257.42,-132.736
1121.912,282.308,-143.96
1282.22,132.98,-69.54
1576.24,96.136,123.952
1777.052,127.856,126.636
1691.164,236.924,195.688
1595.76,375.76,214.72
1461.804,438.956,200.812
1333.704,461.404,202.52
1279.292,429.196,183.0
1194.624,377.956,202.276
1121.912,348.188,189.344
1067.744,336.964,137.128
994.3,344.04,135.664
931.104,351.116,110.044
928.908,342.332,80.032
968.192,294.264,81.496
970.388,228.14,92.476
976.488,198.616,93.208
954.772,194.224,98.332
920.856,195.932,105.652
893.284,201.056,113.704
875.472,187.148,119.072
836.92,162.26,123.952
839.848,140.3,109.556
819.596,116.144,96.868
830.576,94.672,83.448
818.864,74.908,92.964
763.232,29.524,121.024
747.372,4.392,148.596
747.616,-29.524,145.18
829.356,-69.052,131.272
917.928,-99.796,98.82
959.164,-109.8,62.22
997.96,-122.244,15.128
1011.868,-138.348,31.72
1051.64,-146.156,37.576
1087.508,-169.58,22.204
1115.08,-193.492,8.784
1199.748,-189.588,-46.36
1273.436,-186.66,-76.128
1339.072,-215.94,-78.812
1355.176,-227.652,-57.096
1349.808,-232.044,-40.748
1331.02,-226.188,-25.132
1274.9,-220.82,-14.396
1249.524,-213.012,-37.332
1234.396,-206.18,-55.144
1252.452,-210.816,-83.936
1261.236,-220.82,-71.492
1256.112,-230.824,-91.988
1199.26,-232.532,-72.224
1165.832,-237.168,-76.616
1143.384,-236.436,-80.764
1119.96,-238.632,-73.932
1089.704,-245.952,-84.424
1076.772,-250.588,-87.84
1064.816,-261.324,-84.18
1036.756,-273.524,-62.952
1027.972,-290.848,-46.604
1017.968,-299.144,-29.768
1036.268,-299.876,-35.38
1055.788,-295.484,-36.6
1077.016,-299.144,-32.94
1117.032,-307.196,-19.52
1159.488,-309.148,-10.492
1201.7,-309.88,-9.516
1199.26,-310.856,32.452
1255.38,-316.712,37.088
1356.396,-322.324,2.196
1454.24,-329.4,-16.348
1480.104,-336.232,-8.54
1323.212,-315.004,120.048
1249.524,-244.976,158.844
1227.808,-153.72,136.396
1262.7,-60.268,76.372
1300.764,5.124,34.892
1248.792,58.072,42.944
1165.344,121.512,41.968
1035.78,215.696,63.684
871.812,324.276,119.804
721.752,436.516,129.564
700.524,512.644,37.332
711.016,542.168,-0.732
582.916,597.312,34.404
492.636,593.652,15.128
279.868,646.356,71.98
229.848,701.256,74.42
149.084,706.624,98.576
119.072,760.792,122.488
33.916,751.032,112.24
-44.408,774.212,110.044
-67.588,784.704,118.828
-95.892,802.028,129.32
-45.872,839.116,126.392
-20.496,837.652,121.512
-55.876,837.652,155.428
-56.852,857.66,142.252
-95.892,894.016,137.616
-87.352,926.468,95.404
-108.092,961.848,83.448
-93.452,988.688,75.152
-101.26,982.344,67.1
-142.496,981.612,64.904
-152.012,974.536,40.016
-161.528,974.536,28.548
-168.116,983.564,0.976
-154.208,993.08,5.124
-91.5,999.424,17.324
-80.52,1000.644,33.672
-93.94,979.172,57.584
-86.376,963.068,62.952
-105.896,953.796,68.076
-110.532,952.82,72.956
-83.692,938.18,74.908
-91.256,932.812,92.964
-87.596,928.908,94.672
-85.644,927.2,99.064
-82.96,939.888,113.46
-64.416,957.456,103.944
-58.316,977.22,104.188
-50.996,984.052,98.82
-48.8,987.224,90.524
-66.856,978.684,88.816
-78.324,965.752,85.888
-88.572,955.748,89.792
-90.28,958.676,88.084
-84.18,969.656,82.228
-79.3,981.856,73.2
-71.98,1001.376,54.168
-75.396,1013.576,65.148
-60.512,1011.38,59.78
-73.688,999.18,68.32
-76.372,979.904,78.324
-80.032,978.196,81.252
-77.592,974.536,77.104
-82.716,973.804,79.788
-87.84,971.364,80.276
-79.544,973.316,80.032
-75.152,980.392,75.884
-77.104,970.144,79.3
-93.208,955.504,82.96
-84.424,957.456,80.764
-80.276,971.852,81.984
-75.152,974.292,75.152
-85.4,979.66,83.204
-72.468,984.296,75.64
-76.128,988.2,69.296
-77.348,991.128,70.028
-80.764,995.032,67.344
-80.52,1006.256,67.344
-71.492,1023.824,63.684
-62.464,1034.56,58.56
-61.976,1038.952,60.756
-68.076,1033.096,63.44
-75.396,1022.604,61.244
-97.844,1017.236,61.244
-99.064,1019.676,54.168
-110.532,1031.144,55.876
-112.728,1040.416,54.168
-109.8,1059.204,51.24
-126.636,1083.604,47.824
-161.528,1107.76,49.288
-190.808,1124.596,53.68
-220.332,1131.428,54.168
-252.296,1138.992,39.772
-279.624,1154.12,25.864
-304.512,1164.856,16.836
-349.652,1177.544,11.224
-375.76,1167.54,28.792
-397.476,1140.456,47.336
-415.044,1107.516,77.836
-413.092,1046.028,116.632
-405.04,979.172,147.376
-392.108,911.584,155.672
-395.524,853.512,144.936
-417.24,811.544,160.552
-420.656,779.336,182.512
-410.652,716.628,179.828
-448.472,620.004,152.5
-571.936,508.74,152.012
-640.988,453.84,180.56
-615.856,381.128,169.092
-556.808,341.844,167.872
-523.136,299.144,178.12
-496.052,260.348,147.376
-395.524,271.084,104.676
-209.596,255.956,94.184
177.632,254.736,20.496
683.688,266.936,-138.592
1083.604,312.076,-155.428
1136.064,91.256,25.376
1438.868,-77.836,31.72
1705.56,8.784,67.832
1621.136,140.788,160.796
1562.088,331.596,142.252
1473.516,465.552,118.584
1351.028,555.1,122.244
1264.896,570.472,118.584
1173.64,543.876,119.56
1152.656,516.06,122.488
1118.008,494.344,95.16
1062.62,498.736,86.132
1005.524,507.032,75.396
938.424,502.884,69.784
873.276,481.412,52.948
832.772,474.092,42.456
805.932,454.572,31.232
804.468,445.544,11.956
812.52,428.464,11.956
800.32,414.068,22.692
777.872,400.892,40.992
749.324,385.52,59.536
733.464,379.42,71.492
721.752,375.272,70.516
708.088,361.12,88.328
722.24,330.376,95.892
727.852,294.264,109.068
681.98,242.78,108.58
618.784,212.036,101.016
640.256,196.42,78.324
651.968,170.068,66.856
638.792,131.272,77.104
574.132,93.452,93.696
556.808,60.512,99.308
612.684,34.892,62.708
709.308,-8.052,6.344
814.228,-52.216,-19.764
928.664,-101.016,-42.456
1010.648,-165.92,-19.032
1099.708,-225.944,12.444
1228.54,-277.184,9.516
1401.292,-306.464,-28.304
1536.468,-309.392,-47.336
1642.12,-311.832,-44.408
1668.228,-298.412,-40.992
1657.98,-269.864,-39.528
1613.572,-242.536,-13.176
1538.664,-232.532,14.396
1476.688,-235.704,44.652
1417.884,-234.972,46.116
1355.42,-227.408,33.916
1300.276,-204.228,9.272
1240.984,-183.488,-21.472
1174.86,-170.068,-47.58
1092.144,-174.704,-56.608
1041.88,-180.316,-54.168
1018.7,-196.42,-49.532
1007.232,-212.28,-43.188
990.884,-225.7,-27.084
976.976,-242.78,-17.568
965.02,-256.444,0.732
943.304,-260.836,15.616
937.448,-260.348,15.86
948.916,-260.104,8.784
973.072,-257.176,5.856
995.764,-251.076,0.488
1019.432,-246.196,4.636
1033.34,-242.536,2.684
1036.268,-246.196,12.2
1047.004,-245.22,17.812
1080.432,-246.196,15.86
1180.472,-254.248,12.932
1354.444,-253.272,10.736
1406.172,-290.116,24.4
1320.772,-273.28,88.328
1293.2,-217.892,94.916
1403.0,-145.424,50.264
1571.116,-132.004,-48.8
1438.868,-115.412,36.6
1425.448,-46.116,41.236
1433.012,1.952,20.008
1380.064,64.66,57.584
1352.248,160.552,51.484
1287.588,290.116,17.324
1217.316,371.856,-39.04
1026.508,443.592,-29.28
807.64,485.804,-61.488
515.328,545.584,-5.612
244.488,663.192,104.188
162.26,709.552,111.02
34.404,633.18,125.416
-74.664,607.316,48.068
-186.416,585.6,52.704
-227.652,577.06,87.352
-226.92,564.616,64.416
-277.184,566.568,92.232
-248.636,588.284,114.436
-227.408,617.076,128.832
-186.904,691.496,119.072
-156.892,765.916,117.852
-124.684,844.484,100.284
-103.456,911.34,93.452
-97.844,943.06,73.444
-128.344,951.844,68.808
-115.656,961.848,42.944
-103.212,983.808,29.036
-75.152,1009.428,2.44
-62.22,1032.364,3.416
-49.044,1030.168,14.884
-61.0,1016.26,23.424
-60.268,1018.944,15.372
-58.56,1025.776,28.304
-49.044,1019.92,44.408
-45.628,1002.596,53.436
-36.112,977.22,66.612
-12.932,979.416,66.856
-1.22,990.884,66.612
-9.516,993.08,64.416
-23.18,989.176,79.056
-31.476,979.416,87.352
-32.208,960.384,91.012
-19.276,950.624,78.324
-10.492,960.872,64.416
-2.44,977.22,68.076
-3.66,988.932,66.856
-0.976,995.764,57.828
-12.932,1005.28,57.584
-2.196,1010.648,44.164
0.488,1014.308,33.428
5.368,1017.236,32.94
24.644,1026.264,34.16
11.468,1018.944,47.336
-1.952,1012.356,58.072
-21.716,996.496,59.536
-35.38,993.812,66.612
-25.132,993.08,59.536
-22.204,995.52,61.244
-7.808,1000.888,56.12
-5.856,1009.916,62.708
-28.06,993.08,76.372
-48.068,975.756,74.908
-48.312,967.948,70.272
-41.236,971.364,61.976
-32.696,985.028,55.388
-21.472,991.128,53.68
-34.404,985.028,66.368
-42.212,977.22,70.516
-40.992,977.22,72.224
-38.796,976.732,73.932
-27.816,983.808,60.024
-40.748,988.2,62.22
-56.852,994.3,68.564
-61.0,1002.108,75.884
-63.928,1001.62,70.76
-61.732,1009.428,70.272
-59.048,1024.8,60.024
-59.292,1040.172,58.316
-62.22,1060.424,58.072
-67.1,1071.16,61.976
-81.252,1080.432,69.54
-91.5,1100.684,63.928
-107.36,1128.012,67.588
-121.024,1143.628,69.052
-150.304,1157.292,66.856
-182.756,1149.24,68.076
-233.02,1138.748,75.884
-279.38,1134.6,86.62
-319.152,1129.72,111.752
-353.8,1121.424,117.12
-365.756,1108.736,104.92
-350.628,1075.064,96.624
-352.824,1037.488,116.388
-373.32,1007.232,132.492
-389.668,958.432,155.672
-433.1,887.428,188.612
-490.196,802.516,172.752
-598.776,719.312,163.48
-634.888,684.908,180.804
-541.436,576.328,155.428
-531.676,453.108,122.244
-616.344,333.792,97.6
-563.396,240.34,95.404
-432.124,135.908,82.228
-401.624,85.4,108.092
-300.12,76.372,168.848
-37.82,68.32,180.316
378.688,98.332,67.588
974.292,178.364,-113.46
1395.436,142.496,-294.996
1436.672,102.48,-109.312
1718.736,179.34,-24.888
1752.164,305.976,-90.036
1687.26,468.968,-73.932
1535.492,613.66,-100.04
1328.336,713.944,-82.228
1213.9,712.48,-90.524
1119.96,671.244,-54.412
1087.508,598.532,-43.92
1043.1,558.516,-27.816
965.996,527.04,2.684
896.7,510.448,39.528
837.896,481.168,53.436
772.748,464.332,63.684
790.072,455.548,37.576
811.788,452.132,-0.244
800.076,450.424,-20.496
801.052,450.912,-15.616
772.26,442.372,0.976
765.672,423.584,24.888
738.1,400.648,44.652
707.844,391.376,59.048
686.616,385.52,56.12
634.888,360.388,58.56
574.864,323.3,93.696
552.172,272.548,98.82
493.124,212.768,92.72
380.884,174.704,87.596
409.92,170.556,50.996
438.956,138.104,18.056
439.932,120.292,22.936
503.372,80.032,22.204
586.088,23.18,7.32
789.34,-42.456,-70.76
1000.156,-131.76,-32.696
1240.74,-205.692,-48.312
1437.404,-223.504,-101.748
1584.78,-228.628,-79.056
1627.968,-246.44,-53.68
1720.2,-271.084,-97.112
1781.2,-262.544,-107.604
1779.736,-247.416,-104.92
1723.616,-231.068,-95.16
1586.732,-219.356,-58.56
1449.116,-209.108,-28.06
1330.044,-190.32,-14.152
1233.176,-170.8,-6.1
1153.144,-160.796,-20.252
1131.428,-158.112,-42.7
1148.508,-153.232,-64.416
1155.34,-159.82,-70.516
1146.8,-172.264,-59.292
1117.764,-192.272,-45.14
1087.508,-210.084,-21.716
1050.908,-225.7,-1.708
1032.852,-238.388,6.344
1018.7,-241.804,11.712
1047.98,-228.872,-15.86
1023.336,-218.38,-7.076
1043.1,-203.984,-6.588
1073.844,-205.692,-4.148
1112.152,-213.744,13.176
1180.716,-227.896,19.764
1244.156,-232.288,18.3
1283.928,-243.756,13.42
1266.36,-213.5,31.232
1307.596,-187.88,20.008
1337.852,-187.148,-5.612
1297.836,-153.476,24.888
1453.508,-97.6,-44.896
1448.14,-89.792,-14.64
1369.328,-5.856,38.552
1390.556,93.208,-44.652
1422.276,199.836,-68.076
1304.18,270.596,-59.78
1194.868,398.208,-81.008
1011.624,478.484,-80.52
699.792,576.572,59.536
535.092,643.184,78.08
245.708,624.396,133.468
-68.32,611.22,219.112
-130.54,622.444,182.756
-148.352,620.248,206.668
-183.244,564.372,194.468
-254.004,552.416,176.9
-216.184,559.98,121.512
-208.864,605.608,158.112
-155.184,682.712,175.68
-131.272,715.652,187.392
-163.968,744.2,178.12
-170.312,793.976,154.94
-173.972,830.82,120.048
-175.192,853.268,106.872
-153.476,883.768,61.976
-111.508,937.692,42.456
-72.712,979.416,36.356
-100.772,995.032,36.356
-139.568,1000.4,43.188
-139.568,1002.84,32.696
-96.38,1022.848,32.94
-67.588,1012.6,29.28
-65.636,992.104,38.064
-66.612,971.852,56.852
-56.608,971.608,77.104
-61.976,958.92,81.984
-62.952,952.576,86.376
-59.048,965.508,102.724
-53.436,973.072,104.188
-67.1,978.44,107.116
-63.196,983.808,101.016
-56.852,982.344,99.796
-58.804,976.976,107.604
-53.436,965.996,101.748
-54.656,971.364,98.82
-35.38,986.492,88.328
-42.944,994.3,90.768
-42.212,998.448,80.52
-39.284,1002.84,80.764
-36.6,997.96,81.008
-40.26,982.588,78.568
-50.508,980.636,71.004
-58.316,993.812,67.1
-59.292,1020.164,60.756
-41.236,1049.2,61.488
-28.06,1059.204,58.56
-26.84,1067.5,53.924
-24.156,1078.968,51.24
-25.864,1083.848,68.808
-25.376,1082.872,70.028
-40.504,1092.876,71.736
-41.236,1122.156,56.608
-77.348,1155.828,76.372
-96.38,1199.992,83.692
-104.92,1245.132,78.324
-129.32,1271.484,75.64
-160.064,1247.328,72.956
-191.052,1194.624,89.06
-201.788,1154.852,113.948
-206.668,1098.732,115.412
-233.996,1047.736,119.072
-252.296,1009.184,113.948
-284.992,964.288,105.896
-294.752,916.952,125.416
-281.332,864.736,156.648
-290.604,810.08,183.244
-294.264,770.064,193.004
-317.444,743.224,199.104
-345.504,729.56,196.908
-383.812,704.184,190.076
-432.856,677.344,177.144
-467.26,675.392,166.652
-482.876,663.436,168.848
-503.128,643.916,162.992
-536.312,615.612,165.432
-547.536,573.888,165.92
-558.028,517.036,162.992
-676.124,442.128,143.96
-684.176,411.14,128.832
-694.18,349.896,112.972
-752.008,319.396,130.296
-622.932,276.208,78.324
-435.052,248.636,33.184
-286.7,254.98,29.768
44.652,219.6,66.368
771.528,140.3,-17.812
1499.868,192.516,-162.016
1464.732,-264.008,-166.652
1919.792,-312.32,83.448
1845.372,-150.792,279.136
1807.308,64.66,199.836
1736.548,257.908,168.36
1475.224,407.724,183.244
1446.432,455.548,159.088
1354.932,427.976,162.504
1234.64,388.448,147.132
1211.216,405.04,94.916
1143.14,419.436,80.52
1067.256,441.64,89.304
989.176,432.368,114.68
928.42,387.96,117.12
878.156,356.728,105.408
871.08,340.624,81.74
848.632,328.18,56.12
829.112,330.62,37.82
798.612,321.836,31.232
765.916,313.296,37.332
712.48,298.168,55.876
681.98,282.796,50.508
666.364,271.328,51.972
629.52,244.976,64.66
592.188,209.108,75.396
510.692,176.412,81.496
498.736,157.624,92.964
530.212,132.736,91.012
557.296,96.136,79.544
593.408,53.924,45.384
651.968,12.932,-3.416
713.212,-32.94,-8.052
784.46,-86.376,35.868
914.756,-142.008,45.872
1089.704,-208.132,58.804
1235.372,-235.46,74.176
1372.5,-255.712,-11.712
1395.192,-265.472,16.592
1465.708,-289.628,13.42
1587.708,-283.528,-77.104
1640.168,-230.336,-92.232
1570.628,-202.276,-71.004
1503.772,-191.296,-58.072
1462.292,-198.372,-41.236
1433.256,-223.504,-26.108
1405.684,-225.212,-37.332
1374.452,-205.936,-68.32
1282.952,-184.464,-62.22
1201.7,-174.46,-79.056
1125.572,-177.632,-82.716
1087.752,-184.708,-79.3
1076.772,-195.444,-86.132
1073.844,-209.108,-96.868
1059.204,-219.6,-89.548
1055.544,-226.92,-84.912
1048.956,-236.436,-70.272
1055.3,-247.66,-51.972
1069.94,-266.448,-35.624
1104.344,-278.648,-21.96
1149.972,-282.308,-28.06
1189.988,-280.356,-32.452
1204.872,-278.648,-15.372
1224.88,-269.864,-6.1
1272.46,-260.592,-14.884
1308.572,-240.828,-20.496
1334.68,-229.116,-18.544
1370.548,-220.576,-26.352
1358.592,-213.988,-15.616
1301.984,-191.784,19.276
1320.04,-145.424,-7.564
1347.612,-109.068,-49.532
1325.896,-71.736,-44.896
1319.308,-41.48,-0.244
1332.972,-7.564,-14.396
1248.304,45.14,-17.324
1134.844,132.98,-14.884
970.632,214.72,-43.188
910.852,331.596,-38.552
873.032,412.36,9.028
816.18,414.8,-39.284
476.288,425.78,71.736
189.1,499.712,173.728
144.204,589.748,157.136
129.564,604.388,169.092
-102.48,598.044,287.432
-233.264,581.696,243.268
-220.332,603.9,188.124
-191.784,668.316,187.148
-232.288,687.104,196.664
-199.348,699.792,136.64
-206.668,727.852,139.812
-222.528,772.992,134.2
-208.132,811.3,137.128
-207.888,828.136,158.356
-197.64,839.116,152.5
-159.088,871.812,120.048
-124.684,919.148,101.748
-89.06,982.1,83.448
-56.608,1010.404,66.856
-41.48,1041.636,79.544
-25.376,1059.692,72.956
-22.204,1050.908,75.396
-16.348,1047.004,97.6
-22.448,1016.748,111.508
-7.564,1007.964,100.772
-7.564,1006.744,110.288
-3.172,1006.256,109.068
-7.32,996.252,102.724
-30.256,978.44,103.212
-43.188,983.076,104.92
-30.256,988.444,103.944
-25.62,988.932,105.408
-23.424,980.148,100.04
-25.864,977.22,91.744
-25.864,965.264,77.592
-32.94,958.432,83.448
-30.744,960.628,85.888
-15.86,971.364,78.812
-25.62,986.004,87.596
-12.444,991.372,74.42
-0.732,992.836,66.368
3.904,996.984,62.464
5.612,1010.16,74.908
9.76,1006.744,84.18
-7.32,1011.868,89.792
0.244,1019.92,81.74
-3.416,1035.536,78.08
-0.488,1058.228,68.32
10.736,1090.68,59.048
0.732,1121.912,62.22
-23.18,1143.384,70.76
-59.292,1168.516,84.18
-94.428,1205.116,91.744
-114.68,1233.176,96.38
-114.436,1242.448,90.524
-98.332,1226.344,75.152
-105.896,1178.276,80.032
-131.028,1143.628,84.18
-175.924,1112.884,109.8
-231.312,1077.748,118.828
-274.988,1038.464,120.292
-274.012,988.688,120.292
-242.292,952.576,110.532
-264.252,920.856,131.028
-273.524,889.868,143.472
-292.068,850.584,145.424
-345.016,811.788,149.572
-381.128,779.58,143.716
-398.208,749.568,152.744
-401.38,712.724,154.452
-416.508,665.876,156.648
-450.424,620.736,168.604
-489.708,597.8,184.22
-508.496,590.48,201.3
-538.02,549.244,179.34
-604.876,493.124,177.388
-559.736,439.688,160.308
-584.136,395.524,166.652
-609.268,354.288,148.352
-706.136,344.284,137.372
-644.16,358.192,128.344
-570.96,337.94,102.236
-394.548,288.896,44.652
-142.74,231.556,65.392
142.496,122.976,134.2
777.872,23.668,81.252
1413.248,22.204,-114.192
1323.7,-427.244,-122.0
1829.756,-398.452,165.92
1898.32,-246.928,193.004
1874.164,-92.72,136.884
1836.1,66.612,188.856
1724.592,173.728,183.244
1589.172,236.192,203.74
1500.844,242.048,262.3
1391.288,234.484,257.42
1293.688,242.78,224.724
1181.692,284.016,209.596
1103.124,307.928,169.336
1031.876,321.104,152.012
991.128,297.924,139.568
961.116,263.032,120.536
961.604,247.66,113.704
949.892,228.628,90.768
897.432,222.04,76.616
858.636,229.848,83.692
824.232,209.108,85.4
793.0,185.684,94.428
739.564,159.82,92.964
691.74,149.328,95.892
643.672,129.808,97.356
630.984,123.22,99.796
623.664,98.82,122.732
578.524,61.732,129.076
555.344,48.312,121.512
586.576,36.844,97.112
582.184,14.884,74.908
639.768,-17.812,38.064
812.764,-69.54,-0.732
938.18,-106.628,28.06
960.628,-152.988,47.58
994.788,-203.74,49.288
1105.32,-246.928,70.76
1255.868,-278.892,48.068
1389.824,-317.444,36.6
1451.8,-329.4,36.112
1477.908,-330.376,19.52
1477.176,-321.348,24.156
1529.392,-307.684,23.18
1544.764,-295.728,28.06
1481.324,-284.992,40.992
1419.348,-264.74,37.576
1352.492,-240.584,41.724
1282.22,-219.356,37.088
1223.904,-210.816,24.156
1184.376,-201.056,10.248
1165.344,-204.96,-9.516
1122.888,-208.864,-8.54
1079.7,-218.624,-13.176
1039.684,-227.408,-8.784
1020.408,-241.804,4.148
1043.344,-252.784,21.472
1100.196,-270.352,18.544
1145.824,-288.652,12.688
1165.588,-296.46,31.72
1179.496,-308.66,55.388
1219.024,-309.148,76.86
1280.268,-296.46,74.908
1316.136,-283.04,65.88
1364.936,-274.744,61.976
1372.988,-275.964,50.264
1327.848,-248.636,63.928
1306.864,-209.108,72.468
1337.608,-193.248,64.66
1389.092,-157.868,55.144
1386.652,-105.652,47.58
1392.264,-33.428,6.344
1295.884,4.392,19.764
1205.116,44.164,42.944
1136.064,114.68,26.108
1057.74,212.28,26.84
981.368,315.98,31.232
831.308,398.94,6.344
683.2,466.772,24.4
687.104,548.268,22.692
746.64,585.356,-61.244
591.944,584.38,-48.8
420.9,590.48,0.488
208.864,599.508,85.4
-51.972,596.092,175.68
-151.28,683.444,180.316
-116.388,717.116,181.78
-103.212,727.608,199.836
-136.64,683.932,180.316
-164.212,688.812,170.8
-183.244,660.02,168.604
-228.628,662.216,190.808
-222.04,706.624,185.44
-201.788,762.744,173.972
-162.504,827.648,159.332
-128.1,872.056,144.692
-111.508,885.72,133.224
-126.148,901.092,133.224
-150.548,918.172,135.42
-159.82,944.28,123.464
-159.332,968.924,109.312
-158.356,984.052,91.256
-145.424,975.268,76.86
-111.02,1005.524,75.884
-97.356,1006.744,77.348
-78.08,1012.6,95.892
-81.984,1001.376,112.972
-91.744,1000.156,131.272
-99.796,981.856,133.712
-96.868,970.876,132.004
-104.432,970.632,131.516
-88.328,968.436,123.952
-67.832,977.464,126.88
-52.948,972.096,118.828
-62.464,975.024,129.564
-49.532,981.124,124.684
-61.976,977.464,128.588
-68.32,970.388,126.636
-64.904,971.364,117.852
-69.052,979.66,108.58
-70.028,976.488,89.304
-74.908,981.612,88.572
-88.084,971.12,90.768
-84.18,986.248,80.764
-93.208,988.932,82.96
-96.136,988.444,75.64
-91.012,981.368,72.468
-92.72,969.656,78.08
-97.844,965.02,95.892
-100.284,965.996,109.068
-94.184,975.512,114.192
-82.472,990.152,106.14
-59.536,999.18,97.6
-49.044,995.52,96.136
-59.78,986.492,102.236
-76.372,982.344,111.264
-91.988,981.612,115.9
-92.476,982.588,113.216
-89.06,977.952,106.872
-78.812,976.488,103.212
-88.816,966.24,102.236
-88.328,968.192,99.308
-101.26,965.508,106.872
-96.868,970.388,105.164
-89.304,976.976,98.088
-88.084,977.952,98.82
-79.788,980.148,87.596
-87.108,983.076,91.5
-81.984,981.124,96.624
-80.276,979.66,104.188
-81.252,978.684,104.92
-79.3,982.588,105.896
-76.616,993.324,97.112
-75.64,1005.28,91.744
-69.784,1019.92,89.06
-59.292,1040.416,79.788
-59.536,1065.548,79.788
-64.904,1088.24,82.96
-89.06,1120.448,82.228
-113.704,1158.268,81.496
-143.472,1187.792,90.036
-172.996,1203.652,96.38
-196.176,1203.896,95.404
-229.604,1197.796,97.112
-232.044,1183.888,91.988
-256.2,1149.972,99.552
-285.236,1103.612,98.576
-327.692,1056.276,113.216
-367.464,1017.724,123.464
-399.916,985.76,132.248
-422.364,936.228,152.256
-434.076,878.156,169.824
-454.816,803.736,192.76
-472.384,738.588,204.96
-506.544,695.156,215.696
-520.696,659.776,210.572
-532.408,629.276,212.768
-529.968,595.116,209.84
-548.512,544.608,194.712
-568.032,488.976,191.784
-596.824,418.704,175.192
-623.664,367.464,172.02
-613.904,326.96,169.58
-626.348,307.684,168.36
-621.712,306.952,160.796
-543.632,291.336,133.956
-473.848,268.4,122.732
-441.396,243.756,119.804
-162.016,226.676,99.796
181.536,156.404,84.18
645.38,100.528,-57.828
1255.38,169.336,-296.948
1339.072,4.392,-380.884
1673.108,-42.944,-195.688
1698.972,75.884,-30.744
1631.872,132.736,29.28
1629.188,224.968,76.128
1602.836,291.336,28.792
1478.152,333.792,82.228
1415.688,335.012,168.36
1382.26,291.092,194.712
1377.624,248.392,167.628
1282.464,261.08,166.408
1228.052,304.512,151.036
1150.704,331.596,107.848
1085.8,342.088,87.352
1047.736,329.888,58.072
1000.156,311.588,43.92
943.548,298.656,50.02
899.628,284.016,39.528
864.248,274.5,45.872
821.06,257.42,56.12
786.9,239.12,70.028
762.988,216.428,80.276
656.116,177.632,75.884
605.608,184.952,89.06
596.824,151.524,92.476
600.484,122.244,74.664
618.296,84.424,67.1
635.864,36.844,62.22
621.224,-14.152,93.452
606.584,-64.66,118.828
629.764,-104.676,111.264
713.7,-145.668,60.756
827.16,-176.168,28.06
928.176,-214.964,10.004
995.032,-257.176,10.736
1084.336,-309.636,1.708
1181.448,-338.672,10.98
1264.408,-345.016,-1.708
1375.428,-351.604,-6.832
1438.136,-360.388,-11.224
1489.864,-380.396,-8.296
1512.068,-386.252,26.84
1548.18,-361.852,1.952
1502.308,-329.4,2.44
1419.104,-284.504,7.808
1345.66,-253.272,-6.344
1284.904,-233.508,-27.084
1235.372,-226.188,-33.672
1216.584,-227.896,-46.36
1212.68,-238.388,-67.1
1167.54,-246.684,-58.804
1132.16,-250.344,-61.0
1096.536,-261.08,-61.732
1064.328,-273.28,-56.12
1047.98,-281.82,-57.096
1047.736,-297.436,-51.484
1061.888,-313.296,-44.896
1079.212,-324.276,-41.968
1077.016,-327.448,-31.964
1082.872,-330.376,-20.984
1084.092,-334.524,-16.836
1119.472,-340.868,-10.736
1164.856,-335.5,3.172
1209.02,-335.744,0.0
1236.592,-343.796,13.176
1254.404,-350.384,27.328
1272.704,-348.432,30.256
1269.288,-343.308,33.428
1266.604,-339.16,41.48
1271.24,-352.092,27.572
1319.552,-346.968,10.492
1333.46,-335.256,17.568
1306.864,-300.12,14.152
1244.888,-253.272,41.236
1189.988,-184.464,66.368
1187.548,-123.464,74.664
1231.712,-73.932,21.472
1143.872,-38.064,49.776
1039.928,54.656,27.572
965.02,190.076,25.376
1077.016,282.552,-56.12
987.712,327.692,-72.224
747.616,387.716,21.472
653.432,472.384,-13.42
437.736,516.06,-12.2
263.032,608.048,67.588
153.964,655.628,124.684
80.764,706.624,133.468
-1.708,706.868,100.772
-77.104,761.768,153.964
-50.752,739.076,159.576
-102.724,701.988,179.096
-171.776,674.172,134.688
-225.456,696.864,116.388
-175.68,765.672,98.82
-94.428,863.028,49.776
-109.556,896.944,39.772
-104.92,938.912,28.792
-122.0,930.86,50.508
-129.808,918.416,36.356
-138.592,927.932,10.98
-122.244,960.628,12.444
-74.42,991.372,17.324
-45.872,997.716,19.032
-36.112,983.32,41.48
-40.016,958.432,54.412
-73.932,940.132,77.592
-63.684,944.768,69.54
-52.46,968.924,70.516
-36.356,988.444,65.636
-29.768,993.08,69.052
-33.916,981.124,74.908
-44.408,964.532,86.132
-27.328,963.8,75.152
-27.572,984.052,84.424
-8.784,1000.4,70.028
-18.056,1019.676,69.296
-21.472,1018.212,59.536
-26.352,1007.72,60.756
-37.576,983.808,58.804
-55.632,975.512,71.98
-47.824,976.488,63.196
-35.624,990.152,54.412
-27.816,996.252,50.752
-28.792,995.276,48.556
-42.7,979.66,57.828
-46.848,971.608,56.608
-44.652,963.312,55.632
-38.552,968.68,59.536
-18.544,974.048,52.948
-21.472,979.416,60.268
-25.132,971.12,58.56
-47.824,969.168,65.88
-47.58,967.216,54.168
-45.14,977.464,53.924
-32.452,977.952,50.508
-31.964,980.148,55.876
-27.084,988.688,62.952
-21.472,989.664,61.488
-33.672,995.52,69.052
-30.988,998.448,58.316
-27.084,1000.156,55.876
-30.5,996.74,54.9
-37.576,991.86,61.976
-42.212,984.54,62.952
-44.164,989.176,60.756
-37.332,1000.4,60.024
-24.156,1020.652,53.924
-9.516,1039.44,39.04
-10.492,1063.84,40.504
-22.936,1089.216,51.484
-38.796,1112.884,58.56
-61.0,1132.404,61.976
-75.884,1156.316,57.828
-80.032,1182.18,46.848
-83.936,1195.356,38.064
-114.436,1203.408,46.116
-133.224,1202.92,42.456
-171.044,1197.796,48.312
-199.592,1191.452,44.896
-235.704,1189.988,37.82
-239.608,1180.472,15.616
-224.968,1156.804,-4.148
-228.872,1124.352,7.808
-215.94,1084.58,12.688
-237.412,1049.444,34.404
-257.176,1004.548,61.732
-269.864,964.776,111.02
-250.588,896.212,131.76
-231.556,847.168,122.0
-262.788,808.616,154.452
-280.844,776.164,151.768
-298.9,748.104,147.132
-340.38,724.68,156.648
-389.424,712.48,178.608
-424.316,678.808,195.2
-469.456,617.808,210.572
-501.42,564.372,208.62
-517.28,508.74,186.172
-583.404,460.916,211.792
-634.888,418.46,205.692
-676.612,370.148,182.268
-647.332,348.676,157.136
-551.196,356.972,172.264
-497.516,336.232,167.14
-465.552,334.768,154.452
-269.376,329.156,132.004
-55.144,315.492,122.732
209.352,281.576,33.184
540.948,275.232,-79.056
819.352,264.496,-63.928
1031.876,208.132,-50.752
1275.144,142.008,-45.14
1556.964,167.628,-16.104
1680.672,182.024,84.424
1663.592,223.26,151.28
1636.752,292.312,168.116
1512.312,368.684,141.52
1400.56,445.3,107.848
1319.308,477.508,64.904
1247.572,463.6,79.056
1229.272,412.604,89.304
1161.684,348.432,93.452
1114.592,325.496,94.672
1047.98,327.448,87.596
967.46,339.16,73.444
915.0,346.236,55.876
879.864,330.864,47.58
848.632,299.144,39.528
812.276,265.472,59.78
798.368,236.68,55.876
763.476,227.652,59.048
757.132,228.14,70.028
751.52,217.404,79.788
744.2,193.98,98.576
730.536,151.28,119.56
725.656,101.016,123.708
726.388,85.644,111.508
765.184,74.908,70.028
786.412,64.66,41.724
814.96,30.012,25.132
846.924,-3.904,42.212
855.22,-51.728,61.976
872.056,-100.772,78.568
945.988,-151.768,85.156
1001.864,-182.024,65.392
1083.604,-213.5,18.3
1175.348,-233.996,5.124
1284.172,-269.62,-3.904
1370.792,-270.352,-16.836
1388.116,-270.596,-9.76
1395.192,-274.988,14.884
1380.796,-275.964,23.18
1372.5,-274.256,-7.32
1360.788,-260.104,-26.108
1369.328,-241.804,-45.628
1337.608,-224.48,-54.412
1282.952,-213.5,-51.24
1227.076,-213.012,-41.48
1190.964,-218.38,-43.188
1160.952,-225.7,-47.336
1124.108,-231.312,-47.336
1117.276,-236.436,-63.928
1104.344,-242.536,-69.784
1077.992,-256.688,-64.66
1054.568,-277.184,-40.992
1044.564,-294.508,-19.032
1049.932,-315.004,-4.88
1067.988,-321.836,5.612
1085.068,-325.252,16.836
1110.688,-319.884,19.764
1121.424,-319.396,32.452
1140.7,-321.104,35.38
1175.104,-319.152,47.092
1206.092,-323.056,48.312
1209.996,-313.54,58.804
1244.4,-308.904,63.684
1272.46,-305.0,78.812
1287.832,-307.44,84.912
1275.144,-283.04,73.932
1282.708,-254.736,57.096
1304.424,-226.188,27.328
1281.976,-198.86,32.208
1259.772,-167.384,39.284
1308.816,-131.272,44.652
1331.264,-109.068,44.652
1308.084,-72.468,35.38
1158.024,7.808,61.0
1015.284,126.392,56.12
985.516,249.856,15.86
986.492,337.94,31.476
969.168,406.504,21.96
901.824,435.296,-32.208
783.484,473.116,-6.344
655.384,521.916,43.432
584.38,552.416,25.132
482.876,596.58,47.824
438.956,650.748,54.9
392.84,672.22,52.948
300.364,712.968,78.812
223.748,712.236,125.416
111.752,716.384,171.776
-52.948,696.864,248.392
-185.196,693.936,293.288
-275.72,697.108,290.116
-269.864,697.596,229.116
-280.844,708.332,195.2
-311.1,712.968,167.14
-323.788,730.78,146.888
-306.22,766.404,126.392
-321.592,796.904,127.612
-329.156,825.208,128.832
-300.12,875.472,118.096
-251.564,922.32,88.572
-216.428,962.58,63.684
-188.124,986.736,45.872
-174.948,996.252,50.02
-164.7,999.912,51.24
-151.768,995.764,57.584
-143.472,1001.62,70.76
-142.008,982.344,76.372
-147.132,962.824,105.408
-131.516,948.916,111.752
-124.684,955.504,126.148
-110.776,961.36,117.12
-109.312,966.24,110.776
-106.872,978.44,108.824
-105.408,983.808,103.7
-116.388,978.684,116.632
-126.148,968.924,117.852
-136.64,966.484,117.12
-122.0,966.484,95.648
-121.024,967.46,85.4
-130.784,964.532,81.74
-131.028,967.46,83.448
-132.98,970.388,86.132
-118.34,980.636,81.74
-107.604,983.32,79.3
-101.26,980.148,77.348
-101.016,974.292,72.712
-107.116,976.976,70.76
-122.732,969.656,79.544
-124.196,968.436,84.424
-128.1,963.556,85.888
-117.364,968.436,83.692
-116.144,972.828,87.84
-114.192,967.704,89.06
-108.824,968.436,91.012
-112.972,971.608,91.744
-117.608,977.708,95.404
-111.508,981.612,83.204
-120.78,986.736,86.376
-104.432,991.86,82.96
-84.912,997.96,76.128
-82.716,1000.156,83.936
-80.52,995.032,88.328
-99.308,986.736,97.844
-112.728,987.712,103.212
-109.556,990.152,92.476
-111.02,989.176,83.204
-111.02,997.96,76.128
-105.408,1017.236,69.784
-125.172,1047.736,76.616
-139.568,1095.072,84.668
-149.816,1134.844,93.696
-159.82,1148.508,93.696
-185.44,1158.756,90.768
-190.808,1164.368,77.592
-204.96,1146.312,78.324
-214.476,1133.38,82.716
-216.672,1129.72,86.132
-221.308,1138.992,75.396
-221.796,1141.432,52.948
-231.8,1124.352,40.748
-203.74,1091.412,29.768
-209.352,1042.612,45.872
-226.92,995.52,64.416
-266.204,960.384,70.516
-309.88,929.152,75.64
-353.312,914.512,75.396
-383.324,898.896,71.004
-411.384,882.792,87.84
-402.844,848.876,96.624
-390.4,808.372,121.024
-396.744,760.06,132.736
-415.288,706.38,131.516
-454.084,652.944,122.976
-522.404,608.536,124.196
-545.096,579.5,116.388
-557.296,549.976,111.264
-573.156,523.624,102.968
-600.972,503.128,86.376
-611.708,498.004,91.988
-553.636,479.704,86.132
-507.276,445.788,75.396
-520.208,397.232,75.64
-376.004,374.052,61.0
-253.028,320.616,69.54
-100.772,272.06,84.424
264.984,188.612,16.104
650.748,165.92,-72.712
853.756,87.352,-83.936
1049.444,-16.836,-67.1
1253.916,24.4,-86.62
1335.656,40.504,93.208
1573.556,9.272,171.532
1775.588,-25.132,179.34
1756.068,48.068,222.772
1620.404,182.268,250.588
1496.696,272.548,210.572
1382.016,340.136,161.04
1267.824,363.072,133.956
1194.868,357.216,130.54
1125.816,300.852,145.18
1036.756,245.708,144.448
1004.792,205.448,155.672
982.588,186.172,141.276
926.224,181.048,133.224
913.536,188.124,92.72
877.18,182.512,102.48
812.276,157.624,102.48
729.072,133.468,95.16
730.536,133.224,88.572
755.912,111.264,76.128
811.788,89.792,52.948
825.452,67.344,65.636
775.432,31.964,85.644
735.66,-10.248,99.308
758.352,-66.124,110.776
819.352,-122.244,125.172
913.536,-162.992,106.872
955.748,-201.056,105.896
1005.768,-228.384,80.032
1060.424,-253.028,70.272
1142.896,-285.724,70.76
1245.62,-310.124,68.564
1308.816,-330.864,64.904
1344.684,-339.16,40.26
1342.732,-316.956,31.476
1334.68,-304.268,25.132
1327.36,-297.924,30.012
1326.872,-295.24,29.036
1301.008,-296.46,7.808
1282.22,-287.432,-17.812
1270.264,-270.596,-29.768
1259.284,-259.128,-43.92
1224.636,-261.324,-54.168
1194.868,-265.472,-59.536
1177.056,-270.352,-59.292
1161.684,-282.796,-66.124
1132.16,-291.336,-52.704
1123.62,-302.56,-50.996
1129.964,-321.104,-42.944
1134.356,-353.556,-13.664
1172.908,-382.836,2.928
1194.868,-394.792,25.864
1243.18,-397.232,34.648
1339.072,-389.424,33.428
1414.956,-406.26,31.964
1380.064,-405.772,80.764
1331.02,-393.816,101.26
1356.64,-349.652,61.244
1365.18,-296.216,20.008
1283.928,-207.888,68.076
1315.16,-88.816,58.316
1335.168,-23.668,55.144
1241.228,42.944,71.736
1127.28,153.964,62.22
1071.404,251.808,28.792
961.116,339.892,58.072
903.532,425.78,28.06
818.864,481.412,16.348
758.84,559.004,31.964
692.716,593.896,-11.712
458.72,621.712,23.668
302.316,687.348,19.276
171.776,735.416,24.156
60.024,799.1,111.02
-27.328,789.34,125.66
-131.028,744.2,120.048
-193.736,696.376,79.056
-299.388,662.216,109.8
-315.736,659.288,90.768
-304.268,671.976,91.988
-335.5,630.984,126.148
-337.452,623.42,173.728
-306.464,642.452,184.952
-300.852,670.268,184.22
-310.612,715.652,183.976
-310.856,776.408,159.82
-323.788,838.872,142.496
-285.724,905.972,114.68
-259.372,950.868,96.38
-195.688,968.436,89.06
-201.3,981.368,93.452
-209.596,985.028,93.696
-207.888,994.056,86.376
-211.792,999.668,87.352
-197.64,1006.012,95.648
-166.652,1006.256,97.6
-165.676,995.52,107.848
-161.772,968.68,115.656
-174.704,937.936,131.028
-188.368,924.516,145.18
-186.66,913.048,137.86
-185.684,933.788,138.836
-156.16,953.064,115.656
-142.74,969.9,105.652
-130.54,973.804,110.288
-143.228,967.948,123.708
-148.352,955.504,130.052
-171.044,945.744,130.784
-179.584,948.916,114.924
-178.12,954.528,91.744
-170.556,975.756,85.888
-157.868,980.148,75.884
-143.716,980.392,74.664
-152.5,977.952,93.452
-146.4,972.584,92.72
-162.992,971.12,102.236
-152.988,974.048,92.232
-146.644,975.268,93.696
-141.764,967.704,90.768
-152.012,959.896,102.968
-161.528,952.576,107.604
-165.188,961.36,110.532
-151.036,965.02,97.112
-151.28,975.756,95.404
-132.248,982.832,83.692
-132.248,985.272,94.672
-134.444,984.54,94.184
-149.572,977.464,101.748
-151.28,978.44,96.624
-150.06,978.44,88.084
-142.008,983.564,82.228
-135.908,986.248,82.228
-140.788,976.732,89.792
-148.108,968.924,94.916
-152.5,962.824,98.088
-149.816,967.704,91.5
-141.764,978.44,92.964
-130.296,989.176,88.572
-128.588,993.324,93.94
-137.616,978.44,95.892
-155.916,970.388,98.82
-161.772,964.776,89.792
-159.82,970.632,82.96
-151.768,990.396,78.08
-135.908,1011.38,74.908
-148.352,1033.096,76.616
-164.212,1067.012,73.2
-177.632,1096.78,69.296
-220.088,1120.692,77.104
-246.44,1138.016,72.468
-287.92,1155.34,66.124
-345.748,1169.492,68.564
-390.644,1178.276,68.564
-427.976,1177.056,67.344
-411.628,1151.192,33.184
-424.56,1117.276,41.968
-468.236,1088.484,71.004
-488.488,1036.756,90.768
-484.34,994.056,127.124
-469.212,953.796,151.28
-430.172,905.972,153.232
-380.152,843.02,135.42
-414.556,783.728,126.88
-439.2,737.612,105.408
-418.704,722.972,95.892
-397.232,708.576,100.528
-458.476,669.78,111.264
-561.2,633.424,122.0
-495.808,601.948,103.456
-399.672,568.032,99.552
-411.14,538.996,94.672
-237.656,542.9,94.672
-27.084,474.58,134.688
209.596,388.692,106.14
512.4,341.112,-38.552
684.664,304.756,-173.972
779.336,230.336,-106.14
880.352,93.696,70.272
1199.016,153.476,121.024
1279.292,161.772,124.196
1302.716,222.04,219.356
1316.136,282.552,209.84
1318.82,381.616,172.508
1234.152,477.508,193.004
1201.944,547.536,180.072
1160.22,560.224,140.3
1147.288,577.06,113.46
1105.076,574.864,105.896
1044.076,570.96,99.796
971.852,556.076,88.572
933.788,551.684,91.256
878.644,525.088,84.912
847.656,508.74,71.736
803.98,490.928,56.852
779.58,469.7,49.044
728.828,447.252,55.632
673.928,427.0,64.66
626.592,409.92,76.86
590.724,394.792,94.184
554.612,371.856,105.896
510.204,349.408,126.88
465.552,315.492,127.368
426.512,281.332,119.316
427.0,252.052,127.612
459.696,223.26,84.912
523.136,187.88,49.532
633.18,142.984,40.016
702.964,76.86,36.112
755.424,22.936,39.528
732.244,-60.756,62.952
861.076,-89.548,61.0
997.228,-143.472,32.696
1086.776,-181.536,22.936
1208.044,-239.608,23.912
1300.764,-284.26,42.944
1387.384,-304.756,23.18
1447.164,-309.636,-5.856
1442.04,-292.556,3.172
1436.672,-303.78,25.132
1466.44,-329.4,61.732
1492.792,-346.48,63.928
1519.632,-381.128,58.316
1533.784,-384.056,54.412
1514.752,-358.192,62.464
1459.608,-331.108,57.584
1393.972,-309.148,30.5
1324.188,-295.484,25.132
1264.408,-291.336,30.988
1235.616,-288.896,31.476
1231.468,-284.26,1.22
1206.336,-277.428,-5.856
1198.284,-275.72,-8.784
1174.86,-290.848,17.324
1169.98,-294.264,43.432
1192.428,-305.0,61.488
1236.592,-308.904,85.4
1241.716,-294.02,90.28
1264.164,-274.5,69.784
1294.42,-260.592,69.052
1299.3,-243.268,85.888
1301.496,-236.192,91.256
1303.692,-199.836,115.168
1302.472,-135.42,99.552
1303.204,-83.448,49.044
1278.56,-17.324,45.872
1210.972,0.976,53.924
1211.704,20.496,49.532
1218.78,57.34,58.072
1237.812,119.316,8.784
1130.208,167.628,-18.3
897.676,230.824,34.892
852.536,318.908,16.592
793.244,347.944,12.932
691.984,425.048,65.392
714.676,450.912,-17.568
497.028,412.604,23.912
230.58,423.096,61.0
90.524,464.576,118.828
-66.612,570.472,212.524
-232.532,635.376,271.328
-322.568,618.54,278.892
-396.5,574.376,286.7
-456.768,586.576,257.664
-518.744,594.628,227.652
-490.684,624.884,155.672
-476.532,679.296,136.396
-425.536,767.624,101.504
-416.996,825.696,109.8
-399.672,862.54,125.66
-368.196,904.02,114.436
-339.16,940.864,102.48
-319.152,975.512,118.584
-272.06,982.588,106.14
-252.052,979.172,101.992
-242.292,977.464,99.552
-207.644,1003.328,95.16
-151.524,1014.552,90.768
-160.552,1020.896,109.312
-152.012,1013.82,109.312
-149.816,1003.572,104.676
-148.352,996.984,100.772
-151.768,984.296,90.036
-147.864,982.344,97.6
-135.908,976.732,110.776
-137.616,968.68,114.68
-153.72,963.8,117.364
-157.868,964.776,118.096
-155.916,971.608,106.872
-148.108,974.292,92.964
-152.5,979.904,91.5
-155.184,976.244,91.744
-175.924,962.336,103.212
-184.22,955.26,104.92
-174.704,945.988,92.476
-173.24,953.064,88.816
-163.48,963.312,86.864
-140.788,970.876,73.2
-142.252,975.512,77.836
-139.812,969.168,79.788
-140.056,973.072,81.984
-151.036,966.972,84.424
-165.432,959.652,87.108
-156.892,965.996,76.372
-130.052,974.048,58.56
-129.808,983.564,62.464
-134.2,981.368,66.124
-144.936,979.172,76.616
-158.356,982.588,83.448
-144.936,991.372,71.98
-142.496,983.076,65.88
-140.788,979.172,65.148
-132.736,981.612,60.756
-139.324,989.908,65.636
-147.62,999.912,69.54
-143.472,1020.652,65.636
-129.808,1046.272,69.296
-114.68,1073.356,64.904
-126.88,1094.828,67.832
-163.48,1117.764,86.132
-192.272,1126.792,83.692
-226.676,1140.456,85.888
-247.66,1155.34,84.912
-259.86,1169.248,84.668
-278.892,1169.736,83.204
-295.484,1152.168,70.516
-326.472,1132.404,61.0
-348.432,1107.76,47.336
-361.608,1076.284,47.336
-369.416,1027.24,62.22
-386.496,967.216,70.272
-425.292,910.852,94.672
-464.576,868.152,117.364
-490.684,832.528,123.952
-535.336,811.3,131.272
-554.368,801.052,118.096
-561.932,793.0,108.824
-534.116,783.728,116.876
-498.492,757.132,115.9
-507.764,706.868,99.796
-532.652,661.972,80.276
-565.104,619.76,84.668
-515.328,600.728,102.236
-455.792,532.408,64.66
-524.844,502.64,76.86
-481.412,459.208,43.188
-374.296,424.56,79.544
-246.196,366.488,71.004
-183.976,290.36,100.04
242.292,312.32,48.312
519.964,275.232,-76.86
695.644,251.564,-2.44
896.456,78.324,98.088
1240.74,-124.44,60.268
1459.364,-69.54,143.716
1439.844,106.872,227.652
1568.676,251.32,197.64
1560.136,346.236,204.472
1471.076,429.44,234.972
1368.596,452.376,253.272
1316.136,465.552,276.208
1267.336,447.252,268.644
1204.384,467.992,263.276
1132.16,482.144,231.8
1076.528,503.372,192.028
1023.58,510.448,166.408
987.224,504.348,131.516
954.284,483.608,103.212
931.592,467.992,79.544
897.676,447.008,64.904
876.448,453.108,42.212
846.68,458.232,40.748
805.932,459.696,40.992
773.968,460.916,45.628
742.492,455.06,56.12
721.02,435.54,64.416
694.912,415.776,65.148
654.652,398.208,84.18
630.008,372.344,101.504
612.196,349.896,111.752
588.772,325.984,128.832
513.376,280.356,144.692
357.216,213.5,142.496
391.864,215.94,125.416
408.456,169.824,84.912
437.98,158.844,71.98
506.788,136.884,55.876
506.056,67.1,63.44
514.108,5.612,70.028
611.22,-55.388,91.5
754.692,-115.9,71.004
954.772,-188.124,29.036
1209.996,-266.692,-7.564
1411.784,-300.852,-36.6
1503.284,-328.18,6.588
1582.34,-356.24,64.66
1707.024,-366.488,58.316
1752.652,-366.244,60.268
1731.912,-357.216,92.964
1658.956,-332.084,119.072
1601.372,-306.22,98.576
1525.244,-289.628,94.184
1455.216,-266.692,77.836
1377.38,-243.512,53.68
1281.0,-224.724,39.528
1202.676,-208.62,25.132
1141.188,-208.62,4.88
1099.952,-210.328,-5.856
1074.088,-213.012,-3.66
1056.764,-219.844,-13.42
1040.904,-225.7,-17.08
1037.244,-231.068,-11.712
1043.832,-238.632,-8.052
1080.676,-256.688,-15.128
1109.956,-273.036,6.588
1166.808,-299.632,21.472
1207.312,-307.44,62.952
1255.868,-317.932,77.104
1297.836,-303.536,78.568
1325.896,-291.824,68.808
1342.0,-282.064,94.672
1338.34,-262.544,121.512
1348.832,-224.968,100.284
1346.148,-200.08,84.912
1336.144,-188.856,91.256
1337.364,-175.192,78.08
1344.44,-156.648,46.36
1264.164,-115.168,85.888
1210.24,-56.364,115.412
1155.584,-23.668,126.392
1086.776,30.256,115.412
1104.344,82.472,74.908
1153.388,119.072,18.544
1095.56,133.712,2.196
917.44,188.612,38.308
806.176,258.152,35.868
691.74,313.54,47.336
518.988,355.996,65.636
347.944,414.312,130.784
268.888,474.58,94.672
110.044,493.856,92.964
-12.444,544.608,154.452
-71.248,562.908,192.272
-271.084,545.828,295.728
-491.416,545.828,371.124
-549.976,546.56,266.448
-574.864,619.028,181.78
-546.072,725.656,142.496
-512.888,816.424,90.524
-478.972,878.156,34.648
-442.372,910.364,26.596
-408.7,935.74,54.168
-404.308,938.912,67.832
-371.612,964.288,50.508
-343.796,991.372,50.02
-291.824,1028.704,45.872
-223.748,1050.664,37.576
-223.504,1060.424,61.976
-207.644,1032.364,78.324
-198.616,1013.088,89.304
-175.192,1000.4,77.836
-155.672,998.204,114.924
-110.532,975.268,116.144
-92.232,965.264,115.656
-101.016,954.04,120.292
-111.752,960.14,133.224
-115.168,955.748,129.32
-109.068,961.848,128.588
-93.94,950.136,123.464
-92.72,953.064,118.096
-96.38,961.116,122.0
-108.824,969.656,116.144
-111.508,984.784,110.532
-110.776,988.932,106.14
-114.68,984.296,103.456
-114.68,981.124,96.868
-121.268,983.076,96.624
-123.952,987.468,87.352
-119.316,1002.352,79.788
-125.172,1000.4,79.056
-126.88,991.86,81.984
-122.976,982.344,88.084
-110.532,971.12,86.376
-120.78,961.36,101.016
-97.844,953.552,91.012
-103.456,964.288,93.696
-103.7,966.484,90.28
-109.312,965.02,93.208
-120.78,959.896,99.064
-116.632,957.456,99.308
-105.652,961.36,97.844
-85.156,967.704,86.376
-85.644,976.732,81.252
-91.5,986.98,78.324
-106.872,990.396,81.496
-119.804,994.788,82.472
-109.556,998.936,73.444
-97.112,999.912,72.224
-85.888,994.3,71.492
-88.084,989.176,77.592
-98.332,985.028,85.4
-113.46,984.296,91.988
-111.996,990.152,93.696
-106.384,989.908,86.62
-78.812,997.228,69.296
-61.0,992.592,48.8
-76.128,979.904,55.632
-102.724,968.68,69.052
-117.852,969.9,82.716
-118.828,976.732,92.232
-98.576,987.468,89.548
-77.836,1013.82,85.644
-61.0,1052.128,63.44
-69.54,1086.044,71.492
-70.028,1134.844,71.004
-78.568,1182.424,71.492
-94.672,1216.096,59.292
-132.736,1225.612,53.436
-177.144,1220.732,43.92
-236.436,1203.896,36.6
-289.14,1170.956,36.356
-317.932,1143.628,39.772
-326.96,1121.424,35.136
-339.892,1093.364,26.596
-337.452,1057.252,25.376
-341.844,1011.624,40.504
-362.34,949.648,75.64
-392.84,885.72,100.772
-433.344,839.604,133.224
-480.68,801.052,177.632
-520.452,777.628,200.812
-533.872,752.252,203.008
-535.58,726.144,199.348
-504.348,705.892,171.532
-467.504,696.62,144.204
-475.8,678.564,156.648
-508.74,611.708,159.088
-550.22,532.652,158.112
-653.92,449.936,176.9
-714.188,380.152,202.032
-725.168,327.936,184.22
-688.08,303.048,189.344
-662.704,254.248,203.008
-617.808,220.332,200.568
-583.892,170.068,162.748
-525.088,153.964,140.3
-457.744,123.708,97.844
-277.672,119.804,56.12
-19.276,55.632,38.308
305.488,-5.124,66.368
794.952,-84.912,-29.036
1404.708,-102.48,-276.452
1552.328,-354.776,-593.164
1543.056,-257.664,-254.736
1495.232,-286.7,99.308
1618.208,-267.912,135.664
1864.16,-255.224,223.26
1880.02,-175.924,228.14
1751.676,-50.508,226.676
1686.772,34.892,255.956
1596.492,50.264,276.208
1480.592,63.196,249.856
1409.588,82.472,184.22
1326.628,109.8,141.276
1247.572,142.252,100.528
1171.688,158.356,77.104
1115.08,146.888,62.464
1049.2,117.12,47.336
1022.848,103.944,24.888
1022.116,83.936,2.196
993.812,80.032,14.884
968.924,68.808,23.912
957.456,43.432,34.648
964.776,39.528,66.124
955.748,29.768,76.372
961.36,34.404,74.664
972.34,37.82,69.296
994.788,39.772,69.296
1008.208,37.576,74.664
1006.5,29.28,89.792
985.272,18.056,98.088
970.388,14.396,105.896
984.052,25.376,92.72
988.444,30.988,83.936
1008.94,37.576,84.912
969.168,14.396,84.18
835.944,-3.416,83.204
707.356,-0.488,92.232
573.4,0.976,106.872
449.936,1.952,95.892
388.448,0.976,84.668
411.628,-10.98,48.556
502.152,-27.816,-8.052
688.324,-82.472,-90.28
795.196,-129.564,-42.212
895.236,-222.772,20.008
1062.376,-315.492,5.368
1337.364,-379.908,-65.88
1437.648,-352.336,-40.504
1408.124,-325.496,-42.7
1371.036,-308.172,-93.94
1335.412,-307.44,-81.984
1326.628,-345.504,-24.888
1398.364,-393.572,19.276
1457.9,-432.124,25.376
1443.016,-439.2,17.568
1356.152,-401.38,15.372
1243.668,-346.724,16.104
1172.908,-297.924,-28.06
1130.696,-270.108,-63.684
1100.196,-253.272,-71.004
1092.876,-261.812,-78.568
1084.58,-286.944,-81.984
1078.968,-307.928,-71.004
1081.896,-322.324,-52.948
1074.088,-341.844,-23.668
1094.584,-361.608,4.88
1176.08,-385.276,18.544
1282.22,-413.092,29.036
1331.508,-450.912,56.608
1381.772,-471.652,68.564
1422.764,-478.484,66.124
1391.532,-474.58,99.064
1327.848,-430.904,146.156
1366.644,-364.536,108.336
1538.42,-310.124,-8.784
1394.216,-277.184,33.672
1215.852,-175.68,71.98
1245.376,-74.176,6.344
1270.508,3.904,-0.244
1227.564,113.948,-14.152
1125.572,211.304,-67.588
885.476,292.312,-63.44
699.06,404.552,-56.852
545.584,504.592,12.2
474.58,582.428,5.612
320.616,608.536,-13.42
77.348,637.328,31.476
-0.732,699.06,55.144
-18.3,766.404,35.868
-167.628,699.304,67.1
-267.18,676.612,110.288
-305.0,657.824,94.428
-366.976,649.284,92.476
-350.384,664.412,79.788
-264.984,708.82,59.292
-254.98,747.616,61.732
-227.896,791.78,55.144
-227.164,822.28,90.524
-231.068,845.704,108.58
-223.26,878.4,72.224
-167.628,915.244,31.232
-129.076,966.484,37.82
-107.116,986.492,35.868
-107.116,1001.864,19.276
-108.336,993.324,31.476
-78.812,1003.084,40.748
-61.244,993.812,47.336
-51.484,996.74,64.904
-44.408,994.544,74.42
-32.696,998.204,88.572
-19.276,999.424,82.228
-26.596,990.884,77.836
-24.4,994.544,72.712
-38.064,990.152,75.64
-46.848,999.912,69.052
-62.952,994.788,71.736
-75.64,996.008,76.616
-77.104,994.788,68.076
-63.684,993.324,75.152
-66.856,974.048,72.712
-57.34,979.172,69.54
-68.32,964.532,76.86
-78.812,970.388,86.864
-66.612,973.56,59.292
-85.4,972.34,67.832
-82.716,964.044,49.288
-89.548,967.704,45.628
-88.572,970.876,47.092
-84.424,974.292,50.752
-76.128,962.336,58.56
-76.128,968.68,69.296
-72.224,963.8,62.22
-75.396,966.728,58.804
-70.76,968.68,49.776
-55.144,993.324,39.528
-60.024,994.788,50.508
-53.68,995.276,53.68
-65.88,988.688,62.708
-68.076,988.444,62.708
-76.86,988.2,62.708
-82.96,987.956,57.096
-79.544,992.592,54.656
-71.736,992.104,55.144
-61.488,997.228,61.244
-64.416,996.74,69.052
-73.932,994.3,74.176
-75.884,990.64,71.736
-82.96,984.54,69.052
-74.664,985.028,61.0
-63.196,985.272,58.804
-64.66,980.148,62.708
-68.564,974.78,66.368
-74.176,978.928,69.54
-78.568,982.344,67.1
-80.52,984.784,62.708
-71.004,982.832,57.096
-64.904,980.88,56.608
-73.932,979.172,64.66
-80.764,982.344,70.272
-91.256,987.224,73.2
-81.74,987.712,68.076
-80.276,981.368,61.244
-67.832,976.0,54.656
