acc_x[mg],acc_y[mg],acc_z[mg]
7.808,993.812,-0.244
11.712,1000.644,-2.196
12.444,998.448,0.244
12.444,1003.328,-6.1
-0.244,1003.572,-3.66
-1.708,997.472,-2.196
3.172,1004.06,-6.1
-0.976,995.764,-5.124
-0.244,994.788,-6.344
-4.392,984.052,4.148
6.832,979.66,7.32
9.272,980.148,7.076
2.44,978.196,10.248
4.636,987.956,5.856
6.588,982.1,13.664
15.86,993.568,6.832
15.616,1003.084,-0.732
11.956,1008.94,-10.004
1.464,1012.112,-16.836
-2.684,1012.112,-15.86
-9.028,1001.864,-11.224
-0.488,1003.572,-11.712
-0.488,998.692,-3.172
5.856,990.396,2.684
17.324,992.348,-2.928
11.956,987.956,1.708
0.976,974.048,3.904
2.928,979.416,-0.488
6.1,982.344,3.904
12.2,988.2,5.124
15.616,999.18,0.244
12.444,994.3,1.952
13.664,991.616,2.196
20.74,1000.156,-2.684
23.18,1014.064,-11.468
8.54,1007.72,-7.808
-3.172,998.692,-6.588
-3.66,992.104,-10.736
-2.928,987.224,-13.42
-10.492,978.196,-13.908
-12.932,979.416,-12.688
-8.296,975.756,-0.732
-4.88,979.416,-2.196
6.588,994.3,-9.272
8.784,1000.4,-8.784
10.736,1000.888,-3.416
9.028,995.764,0.488
2.684,983.808,-0.976
10.492,977.22,-1.952
11.468,986.492,-8.54
7.32,991.372,-6.588
10.004,991.616,-3.66
9.76,990.884,-5.368
14.396,988.932,-7.808
1.952,986.736,-15.128
-10.492,990.64,-20.496
-16.348,984.784,-14.152
-8.54,1001.132,-15.128
-2.196,995.032,-9.028
12.2,999.912,-11.956
4.636,1003.084,-8.784
-1.22,988.444,-6.1
-1.708,987.224,-6.344
3.904,1005.28,-23.668
-8.052,995.764,-10.736
1.464,997.228,-8.784
10.492,1007.964,-30.744
22.448,1031.632,-33.916
-8.784,1001.62,-0.488
-3.66,995.52,-3.66
-0.244,996.984,-0.976
0.976,995.032,-7.076
0.488,983.564,5.124
-10.492,971.12,13.176
-20.252,955.504,23.424
-15.372,953.552,11.224
-11.712,963.8,-3.66
15.128,989.908,-15.86
11.956,1006.256,-21.228
-22.692,992.348,-21.716
-20.252,992.836,-26.596
-19.52,985.028,-25.132
-10.492,992.592,-24.644
0.976,1001.376,-27.328
-10.492,989.42,-20.984
-7.564,993.324,-24.644
-10.004,986.492,-23.18
-10.248,980.148,-18.544
6.1,986.492,-20.984
5.368,980.636,-18.056
10.248,997.96,-32.208
-7.808,998.692,-33.916
-15.372,993.568,-29.524
-12.932,987.956,-21.716
-2.196,990.396,-28.304
-10.004,974.048,-30.988
-12.2,972.584,-34.648
9.76,992.836,-36.6
14.396,1017.48,-41.968
-67.1,1016.504,-62.464
16.592,1001.132,-123.708
142.984,988.688,-146.156
155.428,986.98,-152.988
202.52,964.776,-102.724
216.184,957.7,-81.496
197.64,913.78,-60.512
271.328,838.384,-119.072
487.024,832.772,-217.16
636.596,783.484,-309.636
642.452,703.696,-320.86
559.736,666.608,-157.868
456.768,658.556,40.26
476.288,592.188,18.056
853.024,541.68,-78.08
869.86,437.248,-144.448
704.184,412.848,-60.024
671.0,326.716,49.532
919.636,288.896,3.66
1238.788,236.192,-291.336
1176.812,151.036,-252.052
1054.324,70.516,-37.088
1026.752,48.8,-23.668
1054.08,87.352,-49.288
1127.768,83.692,-94.184
1212.192,75.152,-139.324
1184.132,44.652,-123.464
1056.276,-78.568,-15.616
1072.868,-22.692,7.076
1091.656,-95.16,-7.32
1094.096,-116.388,59.78
1123.864,-81.008,6.832
1129.964,-71.98,-10.248
1081.408,-103.7,35.624
1082.14,-104.92,73.932
1151.924,-122.732,64.904
1292.712,-135.664,43.676
1350.052,-137.372,38.796
1347.368,-132.492,125.416
1314.428,-152.5,210.816
1337.12,-162.748,230.092
1521.584,-155.916,132.004
1603.812,-117.12,15.86
1532.076,-108.336,40.748
1478.884,-101.992,86.62
1459.852,-141.032,148.596
1502.064,-168.36,152.012
1479.616,-182.512,85.156
1370.792,-191.296,103.212
1214.144,-217.648,174.948
1243.912,-193.736,170.556
1277.34,-167.384,122.0
1157.536,-161.04,123.952
1030.9,-164.456,135.176
1004.304,-212.28,131.272
1100.684,-272.06,92.232
1091.9,-270.108,46.604
1018.456,-232.532,3.172
926.712,-191.052,-21.716
931.836,-164.7,-93.696
890.844,-146.156,-133.956
740.784,-122.244,-132.492
688.812,-105.164,-142.008
662.46,-72.468,-179.828
650.26,-17.812,-250.344
621.468,28.548,-286.456
572.424,45.384,-295.728
553.148,54.412,-279.624
593.408,63.684,-286.212
605.364,70.516,-255.956
531.92,115.9,-231.068
506.544,164.7,-218.868
490.684,207.888,-212.28
572.424,203.74,-189.1
593.408,173.972,-151.036
537.532,171.776,-64.172
507.764,157.624,37.332
417.728,181.78,115.412
351.116,191.54,183.976
430.172,218.868,211.548
506.3,243.756,212.28
471.164,273.768,270.596
445.3,244.0,330.132
442.86,173.24,397.232
600.24,141.764,419.436
735.904,149.084,434.808
687.348,74.664,490.44
724.68,-37.82,507.032
893.528,-65.636,449.448
1010.404,33.184,451.888
966.484,59.048,503.128
1099.464,-13.664,502.884
1326.872,-89.06,435.54
1447.164,-97.356,408.944
1352.004,-112.972,475.068
1328.824,-181.292,543.632
1413.248,-245.22,517.768
1496.94,-239.364,418.948
1522.072,-224.48,348.432
1470.1,-212.768,331.108
1439.112,-252.784,316.468
1424.96,-255.224,177.388
1438.624,-237.9,94.184
1408.368,-208.132,25.864
1313.94,-162.504,-5.856
1180.472,-163.724,-10.248
1124.352,-145.18,-44.896
1177.544,-150.304,-127.856
1170.468,-147.62,-199.104
1174.128,-82.228,-266.936
1139.724,-49.776,-287.432
1007.72,-42.944,-222.528
853.512,-12.444,-213.988
900.36,55.144,-247.66
1009.428,87.84,-220.82
1020.896,102.48,-141.52
975.512,74.176,-65.148
1004.792,58.804,-18.3
977.708,40.504,14.396
985.76,31.232,55.388
1010.892,43.188,40.992
1025.288,80.764,50.996
1030.9,90.036,63.196
1029.192,96.136,88.572
995.276,110.288,144.936
986.248,94.428,157.38
965.996,141.764,132.736
981.124,187.392,123.464
1010.16,200.08,99.552
1031.632,230.092,123.464
991.128,342.576,72.712
887.428,423.828,-53.924
952.82,457.744,20.74
938.18,560.224,-21.472
906.704,638.06,-135.42
795.196,689.544,-90.768
670.512,758.84,-51.24
526.552,837.408,-69.296
522.404,894.992,-63.928
518.744,959.896,-68.076
422.608,943.792,-77.836
299.876,1004.304,-124.928
167.628,1036.024,-159.088
74.42,979.172,-123.464
45.384,990.396,-128.344
42.7,1035.536,-149.816
21.228,1026.02,-156.16
-36.844,983.808,-138.836
-90.28,971.364,-137.616
-85.4,956.236,-119.56
-46.36,934.764,-96.38
-31.72,920.368,-63.196
-96.624,850.096,-46.116
-132.492,807.152,-52.216
-137.128,795.684,-74.42
-109.556,751.764,-54.656
-71.492,697.108,7.564
-91.5,706.38,-8.784
-120.536,776.896,-106.628
-112.484,775.92,-130.54
-66.124,725.412,-70.76
-104.432,663.436,-24.4
-145.668,638.792,-31.72
-103.944,719.312,-82.96
-15.86,796.904,-57.096
22.204,733.22,50.02
33.428,722.484,59.536
10.248,756.644,0.732
13.908,811.3,-34.404
57.584,881.328,-19.276
83.448,892.308,5.856
111.264,888.892,36.356
148.596,915.976,29.768
129.076,964.044,-15.128
27.816,1052.372,-147.132
-25.62,1010.404,-83.692
63.196,1028.46,-25.376
197.396,1067.256,12.444
216.428,1144.604,-62.22
112.728,1101.172,-119.804
-24.888,1007.72,-198.86
40.504,1026.996,-205.448
127.368,1014.064,-134.932
258.152,1078.48,-87.596
278.892,1220.732,-131.516
227.896,1320.284,-150.548
189.344,1350.54,-163.48
135.176,1321.992,-151.768
106.14,1291.98,-147.376
33.672,1299.544,-180.072
27.328,1312.476,-170.068
65.392,1289.54,-153.476
87.84,1256.356,-140.544
148.596,1228.296,-112.24
149.572,1220.732,-128.1
80.52,1185.352,-155.428
80.276,1143.384,-156.404
133.712,1083.116,-134.932
146.888,1016.016,-109.556
177.144,976.732,-81.252
164.456,953.064,-81.008
158.112,960.628,-103.944
143.472,961.36,-107.848
181.048,933.788,-93.452
219.356,946.232,-91.744
210.816,930.86,-89.06
203.496,919.148,-94.672
199.592,944.036,-113.216
218.38,941.596,-106.14
278.404,944.036,-81.496
322.08,932.568,-74.42
337.94,924.028,-83.936
365.268,933.3,-104.432
369.904,947.208,-112.972
343.796,910.608,-112.972
442.616,842.288,-75.396
590.968,833.016,-38.796
650.26,949.16,-45.872
516.06,811.3,-47.824
545.828,701.012,1.708
663.436,687.836,26.108
630.984,542.656,126.636
734.928,484.34,71.736
886.452,420.9,47.092
854.488,350.384,-11.224
944.524,303.292,-29.036
1033.096,219.112,-12.2
1137.284,220.82,-31.232
1196.576,224.236,-30.256
1244.644,40.016,-23.424
1007.964,-77.836,8.54
996.74,-113.216,-58.072
1152.168,-169.824,107.116
1317.112,-198.86,262.544
1251.964,-250.588,136.64
1100.684,-228.872,21.472
1171.444,-234.24,55.144
1289.784,-197.64,28.06
1380.064,-132.004,-101.748
1345.416,-119.804,-57.34
1326.628,-121.756,30.256
1407.392,-166.896,42.456
1387.872,-213.988,44.408
1433.744,-236.924,69.784
1444.48,-247.66,54.412
1418.616,-275.232,65.148
1462.536,-277.916,60.268
1377.38,-284.504,70.028
1364.936,-286.456,90.036
1308.816,-281.088,100.04
1286.124,-307.928,80.52
1337.12,-317.444,17.812
1281.244,-293.288,-11.712
1207.556,-270.108,-2.684
1139.48,-228.628,-2.928
1075.552,-229.36,3.416
1021.384,-211.792,-50.02
1008.452,-193.004,-111.264
901.092,-188.856,-91.012
834.724,-204.228,-66.612
779.336,-203.74,-80.032
805.2,-177.388,-156.404
746.884,-131.272,-204.228
702.72,-88.572,-261.812
653.676,-66.856,-268.156
626.104,-47.092,-278.648
641.964,-16.348,-304.756
580.964,-18.056,-276.696
530.456,-11.468,-253.516
478.728,20.496,-254.248
455.548,80.032,-234.24
428.708,131.76,-215.696
418.704,160.552,-191.784
411.872,174.704,-161.772
360.388,208.376,-89.548
319.396,295.728,13.664
271.328,280.844,128.344
219.112,243.512,263.764
328.668,153.72,317.2
389.424,123.22,313.052
432.368,157.136,291.336
465.796,218.136,320.372
497.028,243.024,400.404
643.916,183.244,425.048
711.748,88.572,449.692
742.736,3.416,481.656
799.1,-18.056,506.3
977.708,14.396,487.512
1119.716,-17.812,493.856
1100.196,-115.412,538.752
1177.788,-193.736,559.248
1310.768,-246.928,572.424
1347.124,-239.12,565.836
1371.524,-240.828,540.948
1492.548,-220.088,474.336
1606.984,-183.976,312.32
1607.716,-173.728,244.976
1545.496,-196.42,299.388
1497.428,-274.256,363.56
1524.024,-299.632,326.716
1472.54,-288.896,141.764
1262.456,-230.58,103.7
1308.328,-196.176,-94.184
1326.628,-215.94,-184.708
1255.624,-199.104,-203.252
1186.328,-146.644,-223.748
1068.232,-115.9,-277.916
1064.816,-78.812,-303.048
1109.956,-74.664,-308.66
1114.592,-63.684,-282.552
1060.18,-33.672,-260.836
973.56,-21.472,-197.64
958.92,-41.236,-128.344
928.176,-61.488,-68.808
965.752,-38.796,-53.436
957.456,-9.028,-61.732
917.928,10.736,-24.888
926.468,28.792,16.104
916.952,20.496,64.416
960.628,29.524,71.248
998.204,39.772,85.644
987.224,56.364,110.288
962.092,49.044,139.324
952.088,61.732,150.548
1014.552,76.372,95.16
1055.3,114.192,61.244
1062.864,119.804,41.724
989.42,152.988,52.704
1016.992,222.04,8.296
988.932,334.28,-3.904
910.364,451.644,-21.96
833.504,513.864,-43.432
762.744,536.8,-63.44
761.524,609.512,-5.856
768.844,680.76,-61.976
673.44,799.832,-62.464
540.216,848.388,-75.152
560.712,828.624,-45.628
558.272,842.776,-38.308
401.624,862.784,-66.612
284.016,936.96,-124.684
355.264,945.012,-34.648
254.248,977.22,-73.932
135.664,1004.792,-119.072
150.304,1030.168,-125.66
90.28,1006.5,-86.62
30.256,1028.948,-85.888
-36.112,1034.072,-65.88
-101.748,1007.72,-35.136
-149.816,1007.72,-56.608
-118.096,1000.4,-40.992
-120.292,976.732,-9.76
-112.24,956.48,12.2
-108.092,933.056,7.808
-167.14,920.124,-7.076
-237.412,843.996,-13.42
-211.548,825.452,-16.348
-160.064,798.368,-15.128
-53.68,832.04,48.312
-70.028,798.124,40.26
-91.012,774.456,23.912
-58.316,762.012,3.66
-31.964,746.884,31.232
-29.28,697.352,43.92
-106.628,690.764,49.288
-115.656,638.06,66.124
-40.016,686.372,26.596
45.628,736.148,-5.612
159.088,840.336,97.112
11.224,811.788,-62.952
-153.964,796.416,-4.88
-100.528,695.644,36.6
38.796,762.988,66.612
73.2,815.692,54.9
40.748,859.368,-20.984
-37.82,889.38,-56.608
80.032,981.856,-28.06
137.86,950.868,27.816
205.204,925.736,55.144
169.092,1038.22,-15.372
88.084,1087.752,-61.0
99.064,1093.852,-65.636
210.572,1225.124,-34.404
288.652,1244.644,22.936
310.856,1296.128,36.844
264.008,1352.248,6.588
156.404,1427.644,-28.548
50.508,1456.68,-62.952
38.064,1452.044,-51.24
131.76,1424.716,-43.432
186.172,1324.676,-21.472
132.98,1296.372,-51.728
59.048,1193.892,-74.664
63.196,1151.924,-75.152
88.084,1136.552,-63.44
140.3,1096.048,-40.016
190.564,1027.484,-25.864
195.688,989.908,-39.04
105.408,930.616,-84.668
75.152,949.892,-104.432
120.536,1014.552,-81.74
160.796,1005.768,-66.612
152.256,991.86,-80.52
187.392,986.98,-67.344
191.784,965.996,-58.804
180.56,978.684,-64.904
199.836,972.34,-64.416
232.532,973.804,-60.024
253.272,969.656,-59.78
235.216,978.196,-69.54
285.968,1000.888,-71.492
336.232,1006.5,-58.072
333.548,1016.26,-59.78
336.72,990.64,-74.176
386.74,971.364,-77.348
508.008,949.648,-64.172
584.624,913.78,-27.328
606.096,906.948,4.392
641.476,902.068,-30.256
637.084,801.296,-36.356
603.9,637.084,-47.824
779.824,418.948,85.888
924.272,209.108,1.708
752.984,128.832,15.86
1042.368,116.388,-15.616
1225.368,-3.416,15.616
1159.976,-71.248,20.496
1002.108,-69.296,-34.404
1037.244,-135.664,-39.772
1154.608,-103.456,-75.396
1171.688,-96.624,-78.08
1277.096,-72.712,-181.048
1426.912,-62.708,-260.592
1370.304,-37.576,-224.968
1369.084,-44.652,-170.312
1432.524,-44.408,-178.608
1436.672,-22.692,-174.46
1386.896,-79.056,-109.8
1456.68,-171.776,-114.192
1545.008,-204.228,-123.952
1524.756,-200.812,-130.296
1458.144,-220.332,-98.82
1471.808,-245.22,-72.956
1581.852,-248.88,-111.508
1459.364,-280.112,-119.804
1310.28,-304.512,-55.144
1143.384,-351.116,-28.06
1101.904,-390.156,2.684
1137.04,-393.816,-0.244
1124.108,-358.192,-37.088
1003.816,-307.44,-39.04
882.06,-279.38,-51.484
788.852,-205.448,-39.284
854.0,-170.312,-95.16
874.496,-127.612,-151.768
895.236,-58.804,-197.64
819.596,-67.1,-213.744
640.256,-109.068,-203.984
649.528,-78.324,-226.188
747.86,-33.184,-301.584
759.084,21.716,-351.36
718.58,56.364,-384.056
608.292,70.028,-372.832
578.524,91.744,-341.6
610.244,73.444,-323.056
638.792,41.236,-295.728
559.492,19.276,-270.108
497.76,40.992,-228.628
431.148,112.972,-219.356
439.688,162.504,-215.452
543.876,215.94,-185.684
592.188,211.792,-116.876
447.252,201.544,-55.632
335.012,216.428,17.568
290.116,231.312,136.64
346.48,204.716,190.076
445.788,129.076,237.656
459.208,89.548,325.74
398.94,61.0,418.948
450.912,39.04,431.392
501.908,7.076,415.288
633.18,-49.044,376.492
863.516,-48.556,321.104
900.848,27.816,368.44
784.704,72.224,494.344
802.516,-55.388,602.436
1219.024,-141.032,523.136
1627.968,-191.784,418.704
1620.16,-217.648,537.288
1361.276,-339.16,727.608
1245.62,-423.34,760.304
1473.516,-429.196,644.648
1733.376,-420.412,542.168
1659.688,-371.368,472.628
1422.276,-337.208,393.816
1342.0,-301.34,244.488
1476.932,-216.916,75.396
1529.88,-133.468,-37.82
1408.368,-143.716,-84.424
1268.068,-162.992,-186.904
1221.22,-44.896,-311.1
1166.808,-8.784,-324.032
1105.076,-52.704,-294.02
1063.352,-159.82,-291.58
1069.452,-128.1,-347.456
1030.168,-27.572,-381.128
947.94,6.344,-374.54
900.604,-43.92,-314.272
952.088,-58.56,-249.612
1035.78,-61.0,-195.444
996.252,-75.64,-138.104
903.288,-82.472,-87.352
834.48,-54.656,-57.096
878.156,-29.28,-29.036
987.956,-9.516,-3.66
1030.168,24.644,15.86
952.576,66.856,9.516
915.976,115.656,30.988
943.304,129.808,38.552
960.628,170.068,59.292
1000.888,216.672,72.712
1030.9,230.58,83.204
1003.816,252.296,84.424
936.228,279.624,70.76
839.604,319.152,92.964
814.716,397.964,72.956
825.696,569.008,80.52
759.084,708.576,56.12
645.624,746.64,18.3
594.872,807.64,31.232
570.472,845.216,53.192
520.452,882.792,39.528
470.92,934.276,16.348
458.964,1004.06,-1.708
456.524,992.348,14.152
420.412,1003.816,15.616
342.088,1046.028,13.908
183.976,955.016,9.516
50.996,896.944,-11.224
5.124,974.536,-7.808
45.14,1052.616,13.42
85.4,1019.92,41.236
63.928,1019.92,43.432
-36.6,985.272,25.62
-142.984,948.428,21.716
-165.676,949.16,32.452
-98.332,961.36,35.624
-40.016,1018.212,47.58
-66.368,1028.704,47.336
-177.144,983.564,22.692
-231.556,919.392,1.464
-194.224,896.456,-2.928
-131.516,909.876,8.296
-83.936,938.18,21.96
-79.788,955.748,18.056
-115.656,930.128,-2.928
-167.14,870.104,-21.716
-164.212,780.068,-37.576
-116.388,736.636,-44.652
-100.04,726.632,-45.628
-117.364,696.864,-41.236
-153.964,658.8,-31.232
-144.204,621.224,-19.764
-74.176,637.084,-9.028
25.62,682.712,8.052
32.208,732.0,32.696
-36.844,772.992,42.944
-65.392,787.632,54.412
-45.384,748.348,67.832
7.808,765.916,37.576
22.204,912.56,14.152
-57.096,996.984,22.448
-115.412,1024.312,33.184
-46.848,977.952,40.504
81.984,956.48,31.232
69.052,1001.376,-16.348
-19.764,1068.964,-54.9
-74.664,1071.892,-62.708
-65.392,1060.668,-32.452
44.652,983.808,-39.04
89.548,1006.012,-58.804
3.904,1057.252,-109.556
-103.456,1095.072,-140.056
-99.064,1141.432,-129.808
15.372,1231.956,-84.912
141.52,1288.32,-50.02
102.724,1331.264,-51.972
-22.692,1277.584,-84.668
-92.232,1212.436,-115.412
-79.788,1209.02,-111.752
4.148,1274.168,-84.912
44.896,1323.212,-84.912
0.732,1331.752,-115.656
-83.448,1253.916,-158.112
-126.88,1164.368,-191.54
-65.88,1119.96,-190.32
31.232,1108.248,-168.848
133.224,1125.572,-134.444
214.476,1119.472,-100.284
231.068,1068.232,-107.116
187.636,982.832,-141.276
150.06,958.676,-158.844
221.308,1000.4,-155.672
316.956,1028.704,-125.172
372.344,1052.616,-108.336
451.644,1108.004,-121.024
568.032,1084.58,-111.508
527.528,991.86,-128.832
478.972,855.952,-132.492
582.916,692.96,-131.76
801.296,546.072,-33.184
927.688,462.136,-116.876
938.424,333.792,-78.08
879.62,168.604,-48.312
794.22,39.284,26.352
852.78,-106.384,25.132
949.648,-258.396,92.232
1054.568,-379.664,91.256
1041.88,-283.284,58.56
953.308,-115.168,-14.396
1019.188,-52.46,-76.616
1138.26,-74.176,-116.388
1215.12,-78.568,-130.784
1221.464,-57.584,-116.144
1195.356,-63.44,-120.78
1213.168,-137.86,-80.52
1237.324,-202.764,-38.308
1320.528,-256.2,-52.704
1379.088,-203.74,-85.888
1287.1,-103.212,-106.384
1258.064,-53.68,-88.328
1491.084,-95.404,-130.052
1709.708,-167.384,-172.508
1689.456,-155.916,-208.62
1404.464,-136.884,-160.064
1239.276,-180.316,-74.664
1322.236,-178.852,-71.004
1456.436,-216.184,-108.824
1463.512,-208.376,-158.356
1357.128,-228.384,-136.152
1226.832,-246.44,-56.364
1251.964,-352.336,-22.204
1206.58,-407.724,0.244
1237.08,-389.668,-49.532
1128.988,-387.96,-80.032
972.096,-379.42,-62.708
926.956,-387.228,-36.6
851.072,-355.02,-18.056
841.068,-319.152,-48.8
793.0,-265.96,-95.648
744.2,-232.288,-126.392
687.104,-173.728,-180.316
786.412,-83.692,-258.152
825.696,-76.616,-304.512
733.708,-73.688,-320.128
701.5,-75.64,-320.372
676.856,-25.132,-329.156
661.24,-23.668,-339.404
727.364,-26.596,-360.144
709.552,-0.488,-380.152
524.844,-7.808,-323.788
386.008,32.94,-253.76
312.32,86.132,-211.548
360.144,146.644,-193.98
563.152,118.34,-171.288
510.204,133.224,-110.776
355.264,115.656,-8.784
187.88,105.896,103.212
133.712,85.644,222.04
336.72,137.86,336.72
387.96,178.364,426.756
153.72,147.132,520.208
187.148,57.34,602.436
326.96,-13.664,688.08
532.408,0.488,747.616
639.524,-36.112,782.508
741.272,-93.696,732.976
920.368,-106.628,684.664
1105.564,-87.596,698.084
1247.816,-89.304,703.208
1289.296,-183.976,685.64
1332.972,-305.732,690.032
1461.316,-360.876,634.644
1631.872,-383.812,525.576
1632.604,-338.672,422.608
1603.812,-318.176,352.092
1650.172,-308.172,228.384
1735.572,-206.668,43.92
1736.792,-124.44,-62.22
1469.368,-197.152,-42.456
1290.028,-298.656,-95.648
1336.144,-233.996,-284.26
1343.464,-90.524,-395.28
1233.908,-12.2,-399.916
1061.644,-59.048,-362.34
980.88,-100.528,-355.996
988.932,-99.796,-355.02
998.448,-46.848,-356.972
955.016,-15.86,-328.668
869.372,-17.324,-256.932
850.584,-37.576,-182.268
882.792,-14.152,-143.472
864.736,89.304,-134.688
858.148,140.056,-118.584
888.16,132.98,-74.42
953.796,80.52,8.784
1019.92,145.424,7.564
1013.82,217.892,32.208
1058.472,272.304,23.424
925.248,287.92,28.06
817.644,358.924,111.508
868.396,424.56,24.888
851.56,523.624,26.352
848.632,667.584,23.18
764.208,715.652,97.356
615.124,747.372,61.0
581.452,806.908,34.16
551.44,813.496,46.36
567.3,886.452,34.16
546.56,993.08,34.892
436.76,997.96,39.772
322.568,947.696,32.208
203.008,879.864,25.132
157.624,850.828,19.764
146.888,890.844,24.4
138.592,963.312,18.056
148.352,1008.208,29.524
96.624,985.76,35.868
-22.448,985.76,20.74
-47.824,1000.888,19.276
-4.636,1006.988,40.504
26.108,1006.988,60.268
-46.36,957.212,61.976
-190.32,899.384,42.944
-240.828,892.064,30.012
-140.544,897.92,28.06
-56.364,888.648,39.284
-46.848,861.808,33.428
-72.468,832.772,12.688
-119.804,776.164,-10.004
-141.032,698.328,-21.472
-105.164,671.976,-23.424
-93.452,685.152,-13.176
-72.712,749.08,0.732
-56.364,769.82,27.084
-14.152,740.052,29.036
1.952,742.004,14.152
-48.8,797.88,1.708
-139.568,885.232,23.668
-106.384,922.076,51.972
28.06,903.776,66.856
127.124,883.768,47.092
78.08,937.936,45.384
-40.504,981.856,42.212
-94.672,948.916,21.472
26.596,982.344,14.152
58.316,1053.348,2.44
-1.22,1051.152,1.952
-100.04,1148.752,-21.716
-70.028,1119.472,-27.816
-2.928,1057.496,-7.808
14.64,1043.588,-6.588
-4.392,1004.06,-29.524
-12.932,985.516,-46.848
56.12,1031.388,-38.064
127.856,1080.676,4.148
57.828,1013.82,-34.404
59.78,1013.332,-52.948
91.988,1062.864,-61.732
78.568,1166.076,-68.564
30.012,1261.968,-58.316
42.456,1273.192,-32.208
128.344,1263.432,-12.932
165.432,1277.828,-6.1
38.796,1221.464,-40.748
-5.612,1186.328,-54.9
29.28,1220.976,-40.992
50.508,1208.044,-31.232
60.024,1147.288,-34.404
54.9,1116.3,-44.164
56.852,1103.856,-56.852
49.776,1112.152,-61.732
28.304,1075.796,-80.276
21.472,1022.36,-98.088
41.48,996.252,-94.672
32.696,1016.992,-89.06
15.86,1006.744,-90.524
41.724,1015.284,-89.792
82.716,1032.608,-71.492
91.012,1016.748,-62.22
83.204,1003.328,-57.34
82.716,974.048,-63.684
93.208,930.372,-67.344
122.976,963.556,-60.268
102.236,994.3,-65.88
49.532,1029.68,-76.86
34.648,1047.004,-78.324
43.676,1043.344,-83.448
52.704,1004.792,-85.4
82.96,1005.768,-66.368
91.5,977.22,-55.632
73.688,1000.888,-61.244
73.932,993.324,-64.172
81.74,983.808,-56.608
90.28,954.772,-46.116
97.6,961.604,-42.7
89.792,972.34,-51.484
92.232,976.976,-53.192
101.016,974.048,-46.604
97.112,972.096,-42.212
71.248,982.1,-48.556
57.828,991.128,-55.388
60.756,1013.82,-54.9
62.708,1003.816,-48.312
76.372,999.912,-37.576
90.036,984.052,-30.988
73.688,980.636,-39.04
58.316,994.3,-46.848
56.852,1000.156,-42.212
52.704,977.464,-37.332
64.904,954.528,-37.576
88.328,960.384,-31.72
91.5,998.448,-23.668
75.152,988.2,-27.328
68.076,966.484,-35.624
76.372,944.036,-39.04
76.86,945.012,-33.916
87.108,964.288,-30.5
92.72,986.736,-33.916
88.816,992.592,-38.308
111.508,1014.308,-29.28
178.364,1034.316,-17.08
191.54,1048.712,-16.104
207.644,1038.708,-20.984
277.428,1069.452,-18.3
344.284,1018.212,-26.596
286.456,922.32,-47.092
375.028,885.476,-43.188
527.284,862.296,-44.164
538.264,847.168,-59.292
473.116,844.484,-82.228
462.868,799.832,-47.336
705.404,631.96,-43.92
918.904,428.952,48.068
1083.36,200.568,-109.068
1039.928,154.208,-72.468
904.508,52.948,6.344
918.172,-118.34,-36.356
1084.824,-153.476,-87.596
1077.016,-98.576,-119.56
1126.792,-36.356,-166.408
1213.9,53.924,-246.196
1246.352,23.424,-206.18
1157.048,-121.024,-213.012
1116.056,-208.864,-173.972
1189.988,-224.968,-204.96
1274.168,-218.38,-222.04
1307.596,-205.448,-213.256
1269.776,-172.752,-208.132
1317.6,-109.312,-220.576
1468.88,-92.476,-245.952
1647.976,-114.68,-295.728
1672.62,-130.784,-283.528
1542.812,-191.296,-209.596
1434.72,-215.208,-156.16
1441.308,-252.296,-96.624
1482.3,-388.936,-95.16
1505.48,-487.268,-111.508
1334.192,-481.412,-105.164
1223.66,-431.392,-83.936
1175.592,-418.704,-67.588
1196.088,-413.092,-71.492
1136.308,-415.288,-102.724
1041.88,-366.0,-110.044
976.976,-341.844,-116.632
962.824,-345.016,-118.828
918.416,-371.368,-154.696
828.136,-337.94,-168.116
813.496,-302.56,-248.392
877.18,-207.156,-321.592
841.556,-203.74,-322.812
742.492,-174.704,-335.012
668.804,-145.424,-326.96
611.22,-138.104,-321.592
612.196,-63.44,-325.74
599.752,-33.184,-323.544
574.62,-27.328,-322.324
559.736,17.812,-284.748
507.276,54.168,-282.796
500.2,112.972,-261.568
432.124,128.832,-205.936
370.148,114.192,-117.12
360.632,111.996,-77.348
351.36,125.172,-52.216
385.032,160.064,-6.588
378.932,261.324,65.148
346.968,322.568,101.26
384.544,283.528,141.52
392.596,249.124,244.732
325.984,270.596,368.44
274.988,240.584,431.148
388.936,159.088,393.328
569.252,64.416,415.288
593.896,90.768,507.52
604.388,83.936,547.048
771.284,-3.172,502.396
1032.12,-51.24,428.708
1171.444,-65.88,466.772
1041.88,-119.56,558.028
1039.928,-181.292,553.392
1288.076,-237.168,473.116
1525.244,-276.696,420.656
1550.864,-329.644,421.632
1439.356,-352.824,391.376
1482.788,-385.276,328.18
1666.52,-381.86,223.992
1727.032,-408.212,163.48
1607.472,-387.96,157.136
1338.584,-369.66,146.644
1207.8,-366.732,81.008
1339.804,-363.316,-67.832
1447.896,-356.24,-206.424
1415.688,-330.132,-279.136
1200.48,-292.068,-324.276
1049.444,-211.792,-362.828
1048.712,-157.868,-380.396
1064.084,-139.324,-409.92
1015.04,-124.928,-430.66
979.172,-89.548,-419.68
935.74,-52.948,-368.44
900.116,-37.576,-311.1
907.436,-50.996,-254.736
936.716,-27.084,-207.4
958.432,-29.524,-164.456
953.308,-33.916,-123.464
946.476,-43.432,-82.472
1002.108,-46.36,-52.704
998.448,-21.472,-15.128
966.728,-44.652,22.692
952.82,-64.904,39.772
948.672,-57.34,57.096
977.952,20.496,60.756
1006.744,89.548,29.036
958.676,165.92,-4.88
864.248,213.988,-21.228
849.608,234.972,-40.504
982.588,288.896,-71.004
1061.888,404.064,-48.068
958.676,463.6,-67.1
824.232,517.28,-87.352
711.26,572.668,-85.4
663.924,618.296,-66.368
668.56,668.072,-70.272
714.92,732.0,-107.604
649.284,844.24,-126.636
530.7,961.604,-148.352
434.32,1030.168,-116.388
343.796,957.212,-73.444
370.636,906.704,-53.192
360.632,1010.16,-61.732
277.184,1132.404,-49.288
121.268,1074.576,-52.216
-5.124,1021.14,-7.564
-25.864,840.336,-40.26
60.756,914.512,-39.528
123.22,1052.616,-17.568
102.968,1081.652,7.564
29.036,1019.92,-0.732
-41.236,952.332,-16.836
-44.408,938.912,-26.596
-43.92,959.896,-20.008
-16.104,1007.964,-6.1
-1.708,1027.972,4.392
-2.684,1022.848,1.952
-13.664,1002.596,-3.172
-52.216,1000.4,-8.54
-68.32,995.52,-2.196
-32.452,991.128,8.052
15.616,991.128,26.108
17.08,965.508,33.672
-18.544,965.264,16.104
-37.576,983.076,8.052
-35.38,1008.208,7.564
-31.964,1008.208,19.52
-21.472,983.076,17.324
-31.964,1012.6,14.884
-25.864,1019.676,8.052
-18.056,1006.5,4.636
-21.228,1001.376,1.952
-54.168,974.78,-6.832
-69.54,995.764,1.464
-58.56,968.436,-3.66
-27.328,970.144,-5.124
-27.572,985.272,-6.588
-27.572,990.64,1.464
-2.44,1005.28,11.712
4.636,1009.428,10.736
-31.232,1007.964,-9.516
-37.332,1016.504,-23.18
-53.68,1023.336,-23.912
-70.76,980.636,-15.86
-56.12,968.192,-11.712
-15.372,974.292,-16.104
13.42,973.804,-17.08
-0.244,966.728,-15.616
-20.252,965.508,-10.492
-51.728,937.936,-11.224
-46.848,888.892,-17.08
-22.936,853.512,-17.324
0.732,835.212,-14.152
-0.244,797.148,-18.056
-23.424,755.424,-30.5
-21.228,694.912,-48.312
10.98,666.364,-57.828
54.656,707.356,-41.724
79.056,771.772,-13.42
59.292,778.116,1.952
42.944,737.612,-7.564
18.544,663.924,-30.012
12.932,678.32,-38.796
10.248,767.38,-20.008
39.284,788.12,6.832
98.088,758.108,0.0
113.46,775.676,-24.644
78.324,884.988,-32.696
28.548,940.376,-46.604
-0.244,970.144,-52.46
14.64,962.58,-62.464
-60.024,1007.476,-61.244
-132.248,980.392,-87.596
-150.304,1021.14,-86.864
-158.112,1089.704,-74.42
-164.7,1074.82,-73.2
-75.396,1051.152,-63.928
54.9,1144.604,-33.672
52.46,1200.724,-27.328
-69.54,1193.404,-69.296
-167.872,1113.86,-122.732
-145.668,1089.948,-142.252
-67.588,1140.456,-121.512
15.372,1180.96,-84.912
64.904,1242.448,-74.664
-5.856,1262.456,-94.672
-136.884,1282.952,-120.536
-165.676,1317.844,-113.948
-76.372,1346.88,-81.74
36.112,1340.048,-40.504
65.392,1281.732,-27.816
45.872,1244.644,-34.16
9.028,1166.564,-64.416
-20.252,1129.72,-86.376
-16.836,1100.44,-93.208
33.428,1069.696,-97.356
49.288,982.1,-107.848
53.924,913.536,-115.9
91.012,938.18,-102.236
92.232,996.74,-89.06
59.536,994.056,-94.672
44.164,993.812,-105.896
37.088,956.968,-111.996
71.492,954.284,-100.284
120.048,1011.868,-72.712
85.644,1008.208,-75.396
47.092,1003.572,-94.428
27.084,1007.964,-103.212
49.776,997.472,-98.576
93.696,979.66,-87.84
106.628,976.0,-81.984
91.5,1006.744,-79.3
67.344,1003.328,-84.912
48.312,1019.188,-91.256
31.72,1028.948,-91.744
3.66,996.984,-101.504
3.904,988.932,-98.82
34.16,1015.04,-84.424
49.532,1002.84,-75.396
51.972,971.12,-84.424
48.8,965.02,-85.644
55.388,962.336,-83.448
36.356,956.236,-90.28
46.116,993.08,-86.864
94.184,1014.308,-67.344
89.792,1009.428,-61.0
55.388,988.2,-67.588
43.92,970.876,-69.052
39.04,961.36,-71.492
50.508,950.38,-71.492
75.396,947.696,-69.54
71.492,945.5,-71.492
90.524,941.352,-71.492
142.252,964.776,-66.368
174.948,974.536,-58.56
215.696,974.292,-63.44
261.08,991.616,-69.54
329.644,1023.336,-66.856
416.264,974.536,-53.192
478.24,957.456,-61.976
626.592,896.456,-71.98
723.704,834.724,-82.716
712.968,793.0,-44.408
681.004,728.34,-78.812
694.668,543.388,-18.788
855.22,258.396,-112.24
910.364,85.644,-90.768
904.508,29.524,-68.808
933.3,-114.924,-91.744
1078.724,-169.092,-162.504
1388.848,-104.676,-249.124
1348.1,-32.452,-274.012
1187.304,24.644,-248.88
1148.264,29.28,-235.948
1273.192,14.884,-291.092
1496.452,-42.456,-340.624
1551.352,-121.024,-310.612
1448.872,-108.336,-258.152
1420.568,-40.992,-205.936
1454.972,-47.092,-198.372
1704.584,-101.504,-261.324
1765.584,-122.0,-283.772
1577.46,-193.736,-207.888
1465.708,-305.976,-136.884
1501.576,-352.58,-115.412
1669.936,-473.36,-127.856
1633.824,-548.024,-96.136
1291.492,-566.08,-24.644
1114.104,-529.724,-4.392
1061.4,-454.328,-29.524
1098.488,-495.32,-49.532
1124.108,-513.376,-87.108
1069.696,-561.688,-112.728
846.192,-525.332,-147.132
735.416,-419.436,-184.22
768.356,-272.792,-269.62
777.384,-221.796,-328.912
655.14,-175.924,-364.78
569.252,-146.4,-372.1
550.464,-108.58,-398.94
527.04,-64.904,-420.656
497.028,-45.384,-414.068
497.028,-23.18,-421.632
427.976,9.516,-389.18
389.912,0.732,-350.628
471.652,-16.348,-309.148
424.804,-31.476,-238.632
312.564,19.032,-202.764
284.992,114.68,-171.776
358.68,232.776,-153.476
477.996,249.124,-134.932
452.62,174.704,-78.324
324.52,170.8,35.868
284.748,211.792,146.644
380.152,287.188,245.708
443.104,206.18,346.236
425.292,61.488,437.736
478.972,-14.396,582.672
606.828,-22.936,675.636
634.644,-52.46,732.732
678.808,-87.596,742.004
845.948,-98.332,768.6
947.452,-136.884,823.5
1018.7,-216.916,841.8
1183.156,-244.976,767.38
1352.492,-287.676,701.256
1451.312,-330.132,685.396
1509.384,-404.308,667.584
1554.524,-447.984,559.492
1673.84,-399.672,365.268
1736.548,-259.616,205.936
1555.256,-206.912,196.42
1345.66,-298.412,219.356
1369.084,-357.216,45.14
1429.352,-317.688,-144.204
1339.56,-251.808,-239.608
1104.344,-209.352,-280.6
1092.876,-201.788,-402.6
1100.684,-150.06,-485.316
1076.04,-125.416,-449.692
915.976,-144.448,-399.672
793.488,-141.276,-355.996
871.324,-120.048,-352.824
986.004,-123.464,-340.624
935.74,-69.54,-276.452
874.252,-10.736,-192.76
833.748,-20.496,-99.552
931.592,-52.46,-75.64
1016.992,-39.04,-99.552
1057.74,1.708,-101.504
1025.776,-30.256,-36.844
1027.24,-81.008,36.844
1055.056,-73.2,70.028
1025.288,-2.684,35.868
1041.392,116.632,12.2
1012.844,185.928,-2.44
948.184,219.112,19.52
890.112,223.504,9.028
989.176,329.888,-47.58
1055.544,432.612,-48.8
949.892,443.592,-36.844
854.0,508.252,-18.544
701.256,557.296,-35.624
590.968,663.68,-10.248
655.872,807.152,-4.392
757.62,929.64,2.196
684.908,895.48,13.42
550.464,815.448,-12.2
386.008,891.576,-27.816
278.892,1015.528,-33.672
226.432,1035.536,-18.788
203.984,907.924,-9.516
195.444,854.488,-14.64
223.016,931.104,-12.2
235.948,974.292,-4.88
124.928,961.848,5.368
35.38,945.256,8.052
40.748,925.98,8.296
72.956,1006.012,12.688
68.564,1020.408,14.64
46.604,1021.872,19.52
-53.192,979.66,20.008
-192.028,957.212,4.636
-189.1,1016.504,-22.448
-73.688,1052.616,-13.664
-27.816,1007.964,0.0
-110.532,965.508,9.028
-186.66,978.928,-2.928
-147.376,1009.184,-13.908
-91.5,1031.876,-3.66
-101.26,996.008,1.708
-132.004,949.892,9.028
-165.188,938.424,9.76
-127.124,966.484,-4.148
-76.372,999.424,-12.932
-59.048,1016.992,-9.028
-80.032,1043.832,-6.588
-111.264,1028.704,-8.784
-126.88,980.148,-14.64
-101.26,981.612,-27.328
-92.232,996.74,-20.74
-111.996,977.22,-0.488
-104.676,942.328,2.44
-103.212,924.272,-4.636
-93.208,943.548,-8.54
-73.2,964.532,-8.784
-87.596,993.08,-12.688
-103.944,988.932,-15.372
-86.132,985.272,-20.496
-91.012,982.1,-18.056
-97.844,942.816,-17.324
-98.088,920.124,-18.056
-84.424,924.028,-15.128
-91.012,931.348,-12.2
-74.176,924.028,-11.956
-82.472,903.776,-14.884
-101.26,879.864,-22.692
-88.328,854.488,-29.768
-86.62,841.068,-26.84
-83.692,839.36,-35.868
-76.616,798.856,-40.748
-80.032,763.476,-46.604
-80.764,755.668,-52.704
-85.644,762.5,-40.748
-87.84,762.256,-26.352
-73.444,775.432,-18.544
-30.744,805.688,-4.636
-13.908,754.692,0.732
-40.26,743.224,-10.98
-65.392,806.42,-32.94
-56.364,923.784,-20.008
-47.824,982.832,10.004
-53.192,989.908,10.736
-56.12,968.68,-19.52
-65.636,967.46,-49.532
-144.448,1014.796,-56.12
-215.94,1015.284,-32.696
-179.34,983.076,-11.956
-81.008,949.648,-20.008
-70.516,963.556,-10.736
-201.056,970.632,0.976
-307.684,931.348,-1.22
-286.944,944.28,-10.004
-210.084,967.216,-15.616
-101.992,963.556,15.372
-32.696,967.46,22.692
-76.128,949.16,22.936
-203.984,920.368,-53.68
-275.964,997.716,-71.248
-191.052,1041.636,-34.16
-42.944,969.9,9.516
117.12,944.28,30.744
127.856,994.788,15.86
-71.004,958.92,-74.176
-241.316,1064.572,-116.876
-158.6,1161.928,-66.856
8.052,1196.332,-7.808
157.136,1231.956,41.48
171.288,1254.648,45.872
36.112,1260.26,25.864
-29.768,1302.472,26.596
-15.86,1371.524,39.04
-1.22,1350.296,23.912
48.312,1242.936,16.836
60.024,1203.652,4.636
52.948,1178.276,-4.88
-6.1,1128.5,-32.208
-43.676,1084.092,-69.052
-17.08,1081.896,-82.228
60.756,1069.94,-71.98
153.72,1002.596,-55.632
250.588,994.544,-39.772
356.24,1050.908,-18.3
372.832,1067.988,-40.748
379.664,1044.808,-75.64
439.932,1066.28,-109.068
497.76,1016.26,-133.224
480.68,916.952,-136.152
523.136,877.912,-153.476
640.744,831.552,-159.332
684.42,766.648,-77.104
748.348,577.06,-42.7
756.644,436.516,-34.892
826.428,350.384,-38.552
875.96,378.444,-54.656
813.252,305.0,10.736
1095.072,145.424,-20.74
1160.22,76.128,-30.744
979.416,120.048,-55.144
953.796,148.84,-107.36
943.792,141.52,-36.356
1278.804,-12.932,-133.224
1554.768,-33.428,-211.792
1430.328,-6.344,-189.1
1179.74,-18.544,-113.948
1257.088,18.056,-125.904
1384.212,114.68,-161.528
1695.068,53.924,-227.896
1750.456,15.128,-151.28
1585.512,-116.144,-55.144
1509.872,-182.756,20.496
1418.616,-219.112,75.64
1586.732,-376.004,60.268
1787.788,-455.06,7.32
1569.652,-454.572,-9.028
1359.568,-434.564,-25.864
1233.664,-327.936,-45.384
1303.692,-382.348,-56.608
1448.872,-494.832,-79.056
1279.78,-544.852,-109.068
982.588,-464.576,-158.112
886.94,-383.568,-170.312
868.396,-386.984,-170.556
890.844,-374.296,-201.788
814.228,-329.888,-264.74
674.416,-250.1,-306.22
543.876,-189.344,-352.824
487.268,-184.22,-354.776
508.252,-149.572,-380.64
652.944,-100.528,-442.128
620.98,-81.74,-442.372
470.432,-110.776,-385.032
356.972,-125.416,-321.348
344.04,-82.96,-287.188
302.072,-10.736,-250.832
332.816,45.14,-226.432
412.36,75.396,-198.616
305.244,50.264,-166.896
213.012,74.908,-78.08
158.356,105.652,15.86
146.888,149.816,182.024
157.868,203.984,334.524
179.096,167.872,477.752
303.292,144.204,549.732
418.216,80.764,639.768
558.516,14.152,706.868
703.696,-88.572,737.856
769.82,-189.344,768.112
909.144,-149.816,812.52
1012.6,-40.26,831.064
1110.932,-132.248,822.524
1452.288,-265.228,704.428
1633.336,-349.652,678.564
1577.46,-358.436,721.264
1579.656,-365.756,674.416
1718.736,-299.632,558.028
1703.852,-292.8,478.24
1622.356,-292.068,382.104
1525.732,-261.568,187.88
1561.844,-197.152,-45.872
1525.0,-205.692,-191.54
1331.02,-132.004,-250.588
1086.044,-48.312,-274.744
852.536,-108.092,-305.0
824.964,-84.912,-397.964
876.692,-4.636,-469.944
926.468,90.768,-440.176
799.1,97.844,-351.116
721.752,4.636,-318.176
892.552,-24.156,-345.504
1105.564,-9.76,-338.672
1103.368,33.672,-293.776
964.288,78.812,-226.432
888.892,106.14,-166.896
925.736,136.396,-108.58
975.756,193.736,-72.224
966.24,232.776,-57.096
926.224,244.0,-50.752
966.24,320.86,-28.792
1014.308,391.132,-40.992
1032.12,402.112,-46.848
1062.376,506.544,-77.104
1008.696,599.02,-93.452
999.912,673.928,-98.576
909.144,763.964,-123.464
773.968,813.496,-105.408
679.052,812.276,-74.176
587.064,818.376,-46.848
520.696,897.676,-36.356
545.828,959.652,-45.872
500.688,945.5,-38.552
352.336,928.908,-22.204
237.9,917.684,1.464
221.796,863.028,34.16
218.624,812.276,20.252
195.932,862.296,8.54
131.76,889.136,5.856
71.248,887.428,11.224
86.376,885.964,16.348
66.612,915.488,10.248
-13.42,959.164,1.952
-83.204,962.824,-1.464
-60.024,966.728,2.684
-60.024,994.3,8.54
-122.732,992.836,19.52
-193.736,987.956,21.228
-164.944,941.596,19.764
-112.728,928.664,17.568
-114.924,926.712,21.716
-121.024,946.476,24.4
-142.496,951.844,31.964
-140.3,946.964,33.184
-100.284,969.656,22.692
-98.82,1007.232,25.864
-94.916,1024.556,24.644
-132.248,1026.508,13.176
-141.032,992.592,6.588
-103.944,969.412,7.32
-102.968,971.852,-2.196
-69.296,1019.92,-17.568
-92.476,1046.76,-19.764
-135.176,1013.576,-1.708
-157.38,961.36,9.76
-161.772,931.836,6.588
-119.072,966.972,10.492
-90.768,1025.776,15.86
-93.452,1059.692,19.276
-84.18,1033.34,11.712
-90.524,991.616,11.712
-115.168,943.06,13.664
-106.14,913.048,17.324
-58.316,943.548,17.324
-38.308,994.056,12.688
-58.316,1034.316,4.636
-92.232,1031.144,8.052
-96.624,976.732,-0.488
-61.732,944.768,-10.98
-38.552,913.048,-2.196
-42.944,859.856,13.664
-71.004,817.644,-1.708
-91.744,805.2,-9.516
-91.744,768.112,-20.252
-50.508,736.636,-44.164
-19.764,725.168,-46.116
-50.752,693.204,-30.5
-74.42,673.44,2.44
-63.196,599.02,-1.464
-52.216,572.668,-9.028
-29.28,652.944,-13.664
-19.032,722.24,25.132
34.892,804.224,39.528
50.508,798.368,74.664
46.848,732.488,41.724
26.84,749.812,-13.176
-36.112,787.388,-14.152
-2.928,899.628,-4.392
63.928,996.74,39.528
22.692,949.892,76.86
47.092,884.744,62.22
91.256,894.016,50.508
65.392,969.168,39.04
13.664,1033.584,49.532
23.668,1059.448,55.144
34.892,1003.816,34.16
33.672,959.408,1.952
-7.32,1063.596,-24.4
-62.22,1208.776,-5.612
-91.256,1241.228,8.54
41.236,1180.716,-4.392
240.584,1134.112,4.392
236.192,1207.312,14.396
64.172,1287.1,-3.66
-61.488,1320.528,-29.036
-46.116,1367.864,-18.788
110.044,1352.736,16.836
247.172,1372.744,60.512
193.736,1396.656,60.268
69.052,1346.392,40.26
36.112,1304.424,23.18
97.112,1289.784,22.692
112.484,1236.348,12.2
103.7,1138.016,-9.272
83.204,1083.116,-31.232
64.66,1046.516,-42.944
64.172,1030.168,-47.824
54.9,1012.112,-56.364
71.248,975.024,-64.66
117.608,952.088,-60.512
132.98,956.724,-58.56
166.408,953.552,-58.072
212.768,972.584,-47.336
281.088,969.656,-34.892
309.636,953.308,-34.648
346.724,948.916,-40.748
367.708,947.452,-48.556
368.684,912.804,-52.46
436.272,937.936,-51.972
572.668,937.448,-51.24
666.852,845.216,-68.808
671.0,758.352,-103.456
643.184,714.188,-123.464
709.064,749.568,-79.544
816.424,667.34,-46.116
864.248,440.664,-5.856
878.156,248.148,-36.6
935.496,210.816,-47.336
929.152,104.676,-100.772
930.372,-74.42,-68.808
1023.58,-166.164,-45.384
1086.532,-198.372,-66.856
1099.952,-200.324,-111.02
1179.496,-173.972,-147.864
1213.656,-181.292,-159.088
1142.896,-160.796,-72.712
1150.704,-199.592,-87.596
1212.924,-174.46,-139.324
1325.896,-150.304,-183.732
1383.48,-166.408,-189.1
1467.416,-110.532,-211.792
1549.156,-23.424,-217.648
1670.912,19.764,-194.956
1680.428,-44.652,-139.812
1702.632,-144.936,-137.128
1698.728,-172.752,-166.896
1629.676,-192.76,-159.088
1592.588,-286.7,-144.204
1564.04,-398.94,-138.348
1484.74,-434.32,-114.192
1347.856,-465.064,-111.752
1234.64,-478.728,-81.74
1172.42,-460.184,-73.688
1104.344,-478.972,-88.816
1020.896,-490.928,-126.636
898.652,-455.304,-141.032
795.44,-415.044,-152.744
861.32,-360.632,-228.384
786.9,-349.652,-281.332
667.584,-294.508,-309.148
634.644,-186.416,-398.696
707.356,-72.712,-476.776
699.792,-40.26,-544.852
621.224,-14.152,-559.736
519.964,33.672,-560.956
435.784,63.928,-510.936
452.132,77.592,-476.044
508.74,48.8,-475.312
545.584,4.148,-432.856
383.324,-44.652,-325.496
236.924,13.176,-216.916
181.78,101.26,-162.504
163.968,172.996,-102.724
263.764,177.876,-39.284
303.78,200.812,18.3
196.42,245.708,137.616
84.424,201.544,234.972
116.632,99.552,277.184
453.352,63.44,342.332
709.064,92.476,408.456
633.18,82.472,470.432
513.62,-6.832,520.208
525.088,-79.788,583.404
695.4,-61.976,653.188
1053.836,-51.484,676.368
1222.928,-50.264,655.384
1257.088,-81.74,655.14
1340.536,-160.552,662.46
1291.248,-204.228,751.276
1223.172,-278.648,798.368
1425.692,-318.908,710.284
1611.132,-364.048,608.78
1554.28,-384.3,521.672
1442.772,-345.26,393.328
1469.612,-294.996,237.656
1600.396,-237.656,54.9
1689.212,-193.492,-150.304
1545.74,-183.488,-269.62
1346.148,-202.52,-303.048
1188.036,-191.784,-283.772
981.612,-282.308,-298.656
978.44,-278.892,-382.104
1062.132,-136.396,-413.824
936.716,-58.316,-339.648
746.152,-74.908,-250.344
673.928,-124.684,-219.844
872.544,-185.684,-229.848
1076.772,-182.024,-231.312
1012.6,-100.04,-208.132
835.456,-56.12,-184.464
880.352,-6.1,-173.972
1035.536,24.4,-159.82
1089.216,52.46,-120.292
1034.072,-7.808,-75.884
943.792,-19.52,-53.924
970.876,0.732,-44.408
1099.464,25.62,-73.688
1209.508,52.704,-57.34
1189.256,55.876,-36.844
1081.652,20.984,-17.324
996.74,8.784,12.444
982.832,-48.556,45.872
1038.22,-78.812,45.384
1077.504,-40.992,39.04
1071.16,1.708,23.424
1026.752,49.532,2.196
987.712,126.88,-15.128
979.904,239.852,-23.424
919.148,297.68,-53.68
877.668,325.74,-60.756
767.624,329.888,-52.948
697.596,407.236,-102.724
772.992,620.98,-169.824
751.764,785.924,-183.0
658.312,816.18,-152.256
712.968,902.556,-106.384
694.424,1031.388,-91.744
603.656,1038.464,-52.216
502.152,941.84,-24.4
435.296,844.728,-9.516
382.836,830.576,7.076
341.844,944.524,20.252
291.336,960.14,26.108
221.308,879.864,43.92
88.084,792.756,71.248
64.172,885.964,67.832
143.96,990.884,68.564
172.508,1028.46,84.18
119.072,1026.752,94.428
7.32,1050.176,78.324
-89.304,1052.86,44.896
-96.136,1038.708,27.816
-104.188,986.736,24.4
-63.684,954.772,30.988
-57.096,985.028,34.648
-98.82,1018.7,26.352
-152.012,1006.988,9.516
-160.552,973.316,-6.588
-154.208,948.428,-13.176
-139.568,932.812,-10.248
-127.368,915.0,-1.464
-138.348,876.448,-1.708
-118.584,862.052,-0.976
-105.652,855.22,0.0
-109.312,843.752,-10.98
-119.072,819.596,-22.448
-131.272,784.46,-33.184
-142.496,748.836,-43.188
-100.772,743.224,-36.6
-31.232,766.404,6.832
41.968,758.84,72.956
-53.68,717.36,23.18
-138.104,736.88,5.368
-89.06,769.82,-18.3
-20.008,821.792,10.736
-34.16,799.832,28.304
-73.444,736.636,18.544
-121.512,711.016,-26.84
-23.18,838.14,-27.816
39.284,985.272,25.376
-7.564,1037.0,22.692
8.052,987.224,12.688
41.724,929.64,30.744
52.46,890.6,40.504
83.448,921.1,58.316
9.76,982.588,36.356
37.82,1085.556,46.36
9.272,1113.128,11.956
39.528,1160.22,3.416
101.016,1148.996,26.596
6.832,974.292,-8.54
-110.288,822.036,-70.76
5.124,841.8,-58.56
-24.156,983.32,-103.7
40.992,1094.34,-66.368
74.664,1213.168,-49.288
160.064,1272.704,8.54
314.028,1272.216,48.312
346.968,1232.932,44.896
268.4,1225.612,23.424
155.916,1321.504,1.22
125.416,1413.004,4.636
120.292,1386.408,-10.004
158.844,1322.968,-15.86
133.468,1272.704,-30.744
74.176,1252.94,-53.68
67.588,1177.3,-71.492
92.476,1133.38,-74.42
143.472,1105.808,-61.976
160.552,1072.624,-59.536
141.764,997.96,-70.516
154.452,974.536,-77.348
188.612,966.484,-75.64
171.288,945.256,-83.936
191.784,945.5,-91.988
191.052,913.292,-100.284
207.644,888.404,-104.432
255.224,912.804,-102.724
243.512,954.04,-101.26
306.952,997.472,-91.744
375.272,1016.748,-87.84
426.024,1017.48,-95.16
462.136,1010.892,-113.46
472.384,961.36,-127.368
475.8,915.488,-130.296
525.088,821.06,-176.168
552.416,752.008,-169.58
588.284,748.836,-84.18
763.72,598.776,-40.26
1033.34,321.104,69.54
1073.112,129.076,-114.68
926.956,138.836,-122.976
887.428,79.544,-61.0
953.064,78.324,68.076
1067.744,148.596,16.104
1229.516,109.068,-99.308
1274.656,18.3,-124.928
1252.452,15.86,-149.816
1347.368,20.74,-209.352
1413.492,-15.372,-237.168
1332.972,-38.064,-187.636
1248.304,-62.952,-154.208
1222.44,-95.892,-163.48
1308.572,-149.084,-195.688
1461.072,-189.588,-177.388
1471.32,-192.272,-150.548
1445.944,-127.368,-121.756
1472.052,-78.08,-90.036
1502.552,-149.816,-94.184
1537.444,-263.276,-82.472
1518.412,-412.604,-58.804
1433.256,-452.62,-86.132
1278.072,-432.124,-88.816
1195.844,-458.232,-53.192
1194.868,-460.916,-41.48
1166.076,-458.72,-15.128
1024.312,-465.552,-6.832
993.568,-410.408,-36.356
1057.496,-383.812,-68.808
978.928,-350.384,-61.488
831.552,-275.232,-57.096
796.172,-285.968,-69.052
884.988,-280.356,-132.492
864.736,-283.04,-177.876
754.448,-306.952,-163.968
677.588,-310.612,-197.64
638.548,-223.748,-269.376
634.888,-139.324,-335.988
604.876,-100.528,-360.876
564.372,-95.16,-349.408
652.7,-76.616,-396.256
684.664,-58.804,-427.732
548.268,-36.356,-385.764
401.38,-25.376,-303.292
346.968,-24.888,-256.932
493.856,12.444,-247.904
562.42,71.492,-251.808
465.064,98.088,-212.28
375.028,116.632,-180.804
255.468,155.672,-83.936
201.3,213.744,20.496
365.512,241.316,100.284
490.44,197.396,174.704
497.272,121.024,215.452
459.452,125.904,297.436
436.028,148.84,375.516
510.204,165.92,507.764
670.268,62.22,563.152
795.928,-53.436,608.048
820.572,-36.112,666.852
767.136,-11.956,708.576
773.48,-6.344,741.028
1008.452,-18.056,702.964
1357.128,-36.6,610.976
1556.72,-105.164,621.712
1418.372,-230.092,686.86
1271.484,-383.08,699.304
1399.584,-396.256,597.312
1675.792,-349.896,458.476
1821.216,-364.048,317.444
1680.428,-343.796,204.716
1463.756,-321.592,141.276
1387.14,-275.964,56.12
1352.004,-347.944,-53.192
1417.396,-339.648,-270.352
1381.04,-275.72,-485.804
1248.548,-171.044,-579.256
1067.988,-85.156,-564.86
864.248,-95.16,-496.54
887.916,-91.5,-447.252
925.98,-114.436,-426.512
915.0,-162.504,-372.344
869.372,-145.424,-345.748
827.648,-94.916,-306.952
841.556,-59.292,-234.728
846.192,-58.072,-170.556
848.876,-42.7,-140.544
869.372,-4.88,-112.728
941.108,24.888,-104.188
1014.308,30.5,-105.896
1087.02,23.18,-96.868
1082.628,42.7,-55.388
1074.576,10.98,-35.136
1057.496,32.696,-27.084
992.836,74.42,-14.396
972.34,114.68,-0.732
980.88,161.04,-0.732
963.068,201.544,-4.148
914.268,205.692,2.928
945.012,320.616,-54.656
938.424,375.516,-85.644
933.3,429.196,-58.072
914.512,592.188,-89.304
819.84,665.876,-96.136
764.94,708.82,-69.54
737.856,783.972,-80.764
669.78,737.612,-56.608
660.264,827.892,-34.892
611.952,1011.624,-14.396
457.012,987.956,-26.108
349.652,927.932,-30.744
287.92,907.924,-25.864
243.512,965.752,-9.516
173.24,988.2,17.568
116.632,951.356,27.328
71.248,915.0,28.06
23.424,940.62,30.256
2.684,998.692,39.772
30.744,1030.412,47.092
27.084,1037.732,40.748
-10.492,1001.864,25.132
-82.96,995.52,17.568
-137.128,961.848,20.252
-112.972,965.508,27.816
-52.46,961.116,31.476
-5.856,928.908,27.816
-67.588,918.172,22.936
-130.54,902.312,9.516
-149.328,867.176,-8.052
-105.164,861.076,-15.616
-44.408,813.984,3.172
-31.232,763.72,14.152
-64.172,758.596,2.44
-87.596,746.884,-13.908
-84.424,681.98,-27.572
-81.74,650.748,-17.568
-74.42,651.236,14.152
-40.748,660.264,21.472
-49.044,692.228,8.54
-27.816,716.384,26.596
30.744,759.572,52.216
59.536,810.324,65.148
85.888,819.352,66.124
108.824,864.492,66.368
72.712,1013.088,73.932
25.864,1060.424,90.036
103.456,1043.1,97.112
188.368,1058.96,102.236
75.396,1122.156,80.52
-71.736,1090.192,56.608
-89.06,1038.708,45.384
46.116,953.796,74.176
101.26,920.368,96.624
61.0,953.308,93.94
-45.384,997.716,48.556
-89.06,1038.22,10.492
3.904,1023.336,31.232
24.156,965.508,18.788
42.944,977.464,-7.32
0.488,1032.852,-52.216
47.336,1110.444,-34.648
-1.22,1152.656,-71.004
-26.84,1165.1,-86.376
62.22,1274.656,-71.492
169.336,1286.612,-17.324
94.184,1278.316,-34.648
-23.18,1372.5,-45.628
-38.308,1448.872,-36.356
90.524,1445.456,-9.272
160.552,1356.884,11.224
65.392,1266.848,-25.864
-22.204,1171.932,-61.244
-70.028,1105.32,-97.844
-55.388,1062.376,-102.968
-26.108,1023.336,-99.308
14.64,1005.768,-91.5
33.428,999.912,-95.16
30.744,999.912,-111.264
53.68,979.66,-99.064
144.448,926.224,-71.736
265.716,921.588,-44.164
305.976,990.64,-53.924
298.656,1049.932,-69.296
333.304,1006.988,-69.784
384.056,892.796,-50.996
436.028,831.064,-54.656
501.176,851.56,-63.196
593.896,826.916,-52.46
662.948,736.392,-61.488
670.756,656.36,-54.656
721.02,571.448,-51.972
739.076,467.504,-81.008
721.264,435.54,-110.288
752.74,460.184,-95.648
1081.896,414.068,-154.208
1198.528,325.74,-229.116
1009.428,189.1,-228.14
924.028,203.74,-176.9
800.076,105.164,-175.436
879.864,-23.912,-202.52
1142.652,-100.528,-290.116
1264.164,-149.572,-303.536
1254.892,-257.664,-282.064
1142.896,-217.648,-248.392
969.9,-206.424,-202.276
970.144,-239.12,-193.492
1093.852,-254.248,-218.624
1158.024,-289.628,-213.012
1179.496,-318.42,-213.012
1232.688,-300.852,-231.556
1257.576,-303.292,-225.456
1377.38,-310.612,-233.02
1429.84,-274.012,-250.832
1407.88,-272.792,-252.54
1273.436,-336.232,-222.04
1238.544,-427.0,-173.24
1315.16,-415.044,-164.7
1359.08,-461.16,-150.06
1357.616,-474.824,-126.636
1322.236,-456.036,-128.344
1235.616,-453.108,-105.896
1201.212,-470.92,-88.816
1252.452,-489.708,-88.572
1286.612,-507.032,-89.548
1210.484,-514.108,-89.548
1081.652,-529.48,-48.068
998.692,-534.604,-48.556
1005.768,-469.212,-76.86
1036.512,-441.64,-128.344
993.568,-417.484,-143.472
931.836,-358.192,-160.796
827.16,-357.704,-183.244
805.444,-371.612,-213.988
815.448,-361.364,-271.084
867.908,-297.192,-342.332
821.792,-250.344,-393.084
737.368,-185.44,-414.556
706.868,-124.684,-441.396
680.516,-109.556,-458.232
630.496,-112.24,-418.704
575.352,-71.248,-387.716
502.64,-47.824,-356.484
445.544,-63.196,-312.808
449.692,17.568,-275.72
400.16,129.564,-222.284
306.464,176.412,-160.308
291.58,205.204,-144.204
317.932,284.748,-112.972
450.424,279.38,-77.348
542.656,249.368,-16.104
495.32,239.12,25.62
418.46,282.552,89.304
308.416,288.164,167.628
329.4,212.036,226.432
501.176,127.368,338.672
527.04,145.912,449.692
487.268,152.012,541.924
466.04,101.748,573.156
375.516,-20.74,591.7
521.428,-84.912,616.832
933.788,-122.0,633.424
1204.14,-51.728,587.064
1274.9,-20.984,480.436
1182.668,-132.736,517.28
1312.72,-229.604,556.564
1681.892,-301.34,482.632
1956.392,-315.492,378.932
1924.916,-276.94,338.428
1730.448,-266.692,312.076
1718.98,-260.104,286.7
1746.552,-268.4,168.36
1706.536,-234.24,50.996
1530.856,-216.428,-101.992
1335.9,-142.74,-221.064
1135.576,-36.112,-349.896
1016.016,76.128,-446.276
997.716,101.748,-549.488
997.228,139.568,-558.272
903.288,110.044,-498.004
740.54,67.1,-401.868
639.524,-6.832,-318.664
825.208,-21.96,-269.132
1034.072,5.124,-229.116
1065.792,40.748,-209.352
997.228,65.88,-166.408
924.272,104.432,-159.088
908.412,177.632,-177.876
985.516,307.196,-191.296
1007.72,376.004,-186.172
988.2,380.152,-142.74
961.848,336.964,-92.964
968.192,338.672,-88.572
955.748,371.856,-94.184
912.072,463.112,-84.668
948.916,545.828,-103.456
973.804,578.524,-80.764
986.004,547.292,-79.056
1000.4,591.7,-53.436
904.996,660.264,-50.02
696.376,673.196,-56.852
502.64,651.724,-39.284
403.82,716.628,-52.46
446.276,853.756,-61.732
526.552,989.664,-65.392
500.688,993.812,-62.464
416.508,882.792,-53.192
334.28,833.016,-28.06
231.556,862.54,-51.24
178.608,872.056,-63.196
210.084,892.552,-65.636
231.8,930.86,-62.464
215.696,993.08,-37.82
115.9,1022.604,-13.176
-8.784,963.312,-16.348
-18.3,977.22,-10.98
54.412,1020.164,4.88
75.396,1048.712,24.644
12.688,998.448,19.032
-63.928,986.492,11.712
-47.092,960.628,-11.468
-3.904,977.22,-7.076
40.748,986.004,5.368
-38.796,954.284,9.76
-55.388,976.732,15.86
-58.072,932.324,21.472
-41.724,975.756,14.396
35.624,1002.596,25.376
50.508,1009.428,40.016
36.844,992.348,38.064
5.124,1001.376,28.06
-3.172,969.168,9.516
20.984,972.584,-4.392
39.284,993.08,-18.3
46.116,1019.92,-16.836
38.552,1023.336,-20.74
13.908,1022.604,-25.864
3.416,1027.484,-45.14
-37.088,1040.416,-50.996
-37.088,995.52,-36.844
-25.62,1007.232,-37.332
-6.344,995.032,-29.28
17.324,986.736,-23.18
29.524,993.08,-16.836
21.472,980.636,-10.248
27.084,981.124,-9.516
45.872,1015.528,-4.636
48.068,1006.744,0.0
64.172,1017.48,8.54
51.24,996.984,16.104
24.644,952.088,10.004
15.128,943.304,2.44
3.66,952.576,-1.22
-10.492,966.728,-6.832
10.248,1013.088,-18.056
27.084,1050.664,-30.012
19.52,1077.748,-37.332
11.468,1081.652,-37.82
-3.904,1047.736,-42.7
-20.252,1009.428,-46.36
-29.28,974.292,-38.308
-40.016,957.7,-19.764
-31.232,942.816,-10.736
-0.488,965.02,-10.004
23.424,995.032,-4.88
-13.176,1002.352,2.44
-38.796,997.716,-2.44
-22.448,1020.408,-4.392
-8.296,1021.628,-6.344
5.124,1017.48,-12.2
3.416,1036.512,-19.032
-9.76,1042.612,-24.644
-6.1,1030.168,-24.156
0.488,1036.268,-14.152
-10.248,1009.428,-6.344
-4.88,975.512,-9.76
