acc_x[mg],acc_y[mg],acc_z[mg]
-46.604,981.124,-7.076
-38.796,995.764,-36.356
-45.384,999.912,-39.772
-25.132,995.52,-50.752
-30.012,999.668,-48.312
-44.164,986.248,-15.86
-46.848,982.832,-4.392
-32.452,975.024,-15.372
-30.988,975.024,-25.62
-42.456,984.54,-38.796
-50.02,982.588,-44.408
-49.044,979.904,-41.968
-44.896,978.44,-44.408
-45.872,984.54,-45.628
-45.872,985.028,-38.796
-39.04,978.196,-32.452
-39.04,987.712,-32.452
-34.648,988.688,-42.456
-37.332,985.516,-34.16
-38.064,983.32,-37.088
-32.208,993.08,-46.36
-47.336,996.008,-26.84
-42.944,1001.132,-25.376
-14.152,1010.404,-45.384
-10.736,1019.92,-53.68
-34.16,1021.14,-41.968
-31.964,999.912,-26.596
-31.72,982.832,-4.88
-15.372,984.052,-14.396
-28.548,996.984,-21.228
-35.38,993.812,-19.52
-22.204,993.08,-46.604
-35.38,995.52,-67.344
-32.452,990.64,-77.592
-43.92,976.488,-45.628
-43.92,975.512,-25.376
-48.068,975.512,-31.476
-33.672,979.172,-49.776
-39.772,985.272,-59.048
-59.048,985.76,-43.92
-55.144,967.216,-28.06
-44.164,963.312,-25.376
-53.68,969.9,-20.74
-43.188,984.296,-37.332
-37.088,986.736,-46.36
-33.184,983.808,-40.016
-48.556,986.98,-30.256
-53.192,988.2,-29.524
-39.772,987.224,-36.844
-39.528,991.128,-42.212
-18.3,991.616,-41.236
-24.644,997.228,-28.792
-38.552,1000.644,-25.132
-35.624,990.884,-30.012
-28.304,987.468,-41.236
-50.752,991.372,-30.744
-56.364,985.028,-38.552
-45.872,980.636,-42.456
-48.068,975.756,-31.72
-43.676,986.248,-38.064
-38.064,984.784,-36.356
-34.892,979.904,-27.816
-40.016,983.564,-30.5
-32.452,989.176,-41.236
-27.084,996.008,-50.996
-38.064,993.324,-35.624
-37.332,989.42,-30.012
-32.94,993.568,-37.576
-45.872,990.396,-33.184
-36.844,989.664,-44.164
-57.584,991.616,-40.992
-53.436,986.492,-42.212
-37.332,988.932,-52.216
-19.52,995.764,-51.484
-37.576,998.204,-39.284
-17.812,988.2,-28.548
-26.108,990.396,-22.204
-33.916,989.176,-31.232
-39.284,975.756,-27.084
-28.304,971.608,-38.064
-34.892,978.44,-54.168
-60.268,978.684,-33.916
-42.944,978.44,-32.208
-35.136,986.248,-48.068
-38.552,993.324,-54.168
-38.552,985.028,-38.308
-28.304,992.836,-43.188
-32.208,998.204,-50.996
-21.96,992.592,-42.212
-23.668,995.276,-32.208
-27.084,1000.644,-40.992
-32.452,992.104,-44.408
-30.256,993.324,-44.652
-36.844,995.276,-43.676
-36.356,989.176,-41.48
-36.112,985.272,-32.452
-33.428,985.272,-36.6
-32.208,987.224,-46.36
-21.472,991.616,-52.704
-29.036,990.396,-43.432
-37.576,984.296,-46.848
-41.236,986.004,-52.46
-33.184,983.564,-48.556
-33.916,983.076,-41.968
-33.672,985.76,-40.748
-30.744,989.908,-47.336
-28.792,990.396,-45.872
-32.452,991.128,-37.576
-26.596,992.592,-43.432
-26.108,993.08,-56.364
-30.5,984.784,-43.676
-40.504,981.368,-28.792
-54.9,985.516,-30.256
-48.556,988.444,-44.652
-24.4,988.2,-63.196
-36.6,989.664,-61.976
-42.212,973.804,-28.06
-43.188,955.992,-18.056
-49.532,976.0,-38.796
-46.36,966.728,-43.432
-52.46,959.652,-42.944
-49.776,972.584,-70.028
-20.252,966.24,-91.012
-68.32,961.604,-70.76
-78.324,941.108,-56.852
-37.576,943.06,-73.688
90.28,1004.304,-59.78
45.872,933.544,-166.164
106.628,955.748,-61.244
175.192,950.624,-91.012
110.288,954.528,-104.676
124.196,917.196,-80.276
237.9,889.624,-129.076
370.148,903.288,-208.376
597.068,828.38,-162.016
575.84,728.096,-35.624
729.804,557.54,215.452
884.5,714.188,-56.12
827.648,530.456,-28.06
1149.972,529.968,-52.46
1247.328,500.688,-45.628
1022.116,591.456,44.408
1207.068,614.636,-33.184
1267.336,471.164,98.576
1143.384,450.18,293.532
972.34,487.268,409.188
966.728,365.756,567.3
996.74,403.332,618.54
1175.104,263.032,660.996
1305.644,220.088,630.008
1157.048,253.76,742.004
1000.644,141.276,929.64
951.356,173.24,985.028
850.34,89.06,1067.5
790.56,64.172,1085.556
827.16,15.372,966.24
710.284,105.652,940.864
487.268,-132.248,944.768
394.06,23.424,732.976
387.472,-50.02,510.692
291.824,-19.276,264.252
29.036,45.14,55.144
-111.508,150.548,-184.22
-10.004,181.048,-665.632
29.768,222.528,-920.124
62.22,212.036,-1049.932
102.48,173.728,-1172.664
176.412,143.716,-1277.096
273.036,108.092,-1404.708
424.316,101.992,-1737.036
447.496,141.032,-1985.428
351.604,139.812,-1862.696
347.7,76.616,-1796.572
386.252,-6.588,-1640.9
394.548,-75.884,-1427.156
418.948,-120.292,-1289.052
491.66,-179.584,-1149.24
576.816,-292.8,-988.932
631.228,-347.944,-708.332
601.948,-375.76,-386.496
698.328,-411.628,-204.228
879.376,-466.04,-54.656
1074.82,-518.988,136.64
1232.688,-522.892,287.676
1363.96,-508.984,484.584
1469.124,-505.812,638.548
1558.184,-513.864,813.496
1676.28,-561.688,943.548
1728.252,-559.248,1001.62
1755.58,-553.392,901.336
1682.136,-596.092,853.756
1751.432,-592.432,694.424
1737.524,-631.228,508.008
1608.204,-635.864,427.0
1641.144,-685.396,303.292
1720.688,-753.472,71.248
1606.252,-752.008,-113.704
1502.552,-753.96,-208.132
1362.252,-676.368,-467.748
1139.48,-547.536,-707.356
987.956,-419.68,-823.5
995.764,-351.116,-855.708
1097.512,-362.584,-781.776
1093.852,-341.356,-723.704
1049.688,-304.024,-570.228
961.36,-275.476,-414.556
946.232,-226.188,-341.112
1041.636,-178.608,-235.948
1009.916,-136.64,-283.284
989.664,-157.136,-338.672
965.752,-113.704,-167.14
1024.8,-16.592,-33.428
968.192,46.36,-20.008
891.576,93.94,-21.96
1026.264,121.268,-13.176
1106.784,94.672,-66.612
1008.696,276.696,27.328
827.16,297.68,144.448
941.108,350.384,114.924
1018.212,310.368,53.436
931.348,438.468,84.18
695.644,469.7,152.744
707.112,553.636,30.256
772.26,630.496,-57.34
800.564,602.436,-19.52
838.872,699.548,65.148
796.66,704.916,60.268
679.052,724.436,29.768
554.612,745.664,32.452
469.212,803.004,99.552
714.432,899.14,-106.628
706.624,916.952,-107.604
583.892,910.364,-60.756
415.532,859.612,-6.588
437.248,842.532,-25.132
413.092,813.496,76.128
470.92,972.828,4.88
239.608,899.384,-73.932
146.156,896.212,-40.504
259.86,910.12,-62.952
262.056,889.624,-16.592
217.648,933.544,-29.524
103.944,966.484,-47.092
-35.868,932.08,-64.172
62.464,932.812,-36.112
133.712,947.208,15.128
96.136,969.168,7.808
-30.5,968.924,-11.712
-50.996,970.876,-39.284
-0.488,981.124,-31.964
16.592,982.588,-56.364
-40.748,980.88,1.464
-93.94,976.244,11.468
-105.896,980.636,-16.836
-75.152,952.332,-31.232
-61.732,957.7,5.856
-50.508,947.452,38.552
-57.34,942.572,36.112
-58.072,955.504,24.888
-53.192,955.504,10.004
-25.62,976.976,-42.7
-25.132,984.296,-62.464
-37.088,972.096,-2.44
-12.2,988.932,6.344
-37.088,990.884,0.0
4.636,990.396,-3.904
-15.616,994.056,-2.684
-5.124,1009.916,-18.3
-31.964,996.984,-12.444
-26.84,986.248,-17.08
-30.5,970.632,1.708
30.5,995.032,-14.396
-2.684,997.96,3.66
-7.808,994.788,5.856
-53.924,968.192,38.308
-21.472,978.196,2.196
20.008,982.1,-19.032
28.548,1002.596,-10.492
10.248,1004.304,-5.368
-31.232,1000.888,-0.732
-23.424,995.032,-11.956
9.028,996.252,-18.544
25.62,995.52,6.1
45.628,997.228,-0.488
15.616,999.424,-1.708
-27.084,974.78,13.664
-7.076,973.804,-8.296
5.856,974.292,-9.272
8.784,976.732,2.684
24.4,989.664,-16.348
10.98,996.008,-31.964
-15.128,997.472,-23.668
8.784,989.664,-19.032
31.476,1000.4,-31.476
36.6,1008.452,-41.968
18.544,1004.548,-11.468
-3.904,991.128,0.0
7.808,986.98,-23.668
16.836,994.544,-39.284
28.304,1000.644,-41.236
15.616,1000.4,-28.792
-0.244,991.86,-14.884
0.244,980.392,-13.664
13.664,976.0,-21.96
12.688,979.416,-31.476
16.348,985.516,-41.968
36.844,987.956,-33.184
28.06,987.956,-19.032
6.588,989.176,-11.468
31.72,983.564,-24.888
30.012,985.76,-18.544
18.544,990.64,-20.984
38.064,998.692,-43.676
27.084,992.348,-27.816
19.52,991.86,-38.308
11.712,996.252,-43.676
-1.708,993.812,-37.576
35.38,1003.328,-49.532
28.548,1002.596,-35.624
25.864,1001.376,-36.356
37.332,985.76,-27.328
34.404,976.732,-14.152
30.012,1000.644,-48.8
28.548,1005.036,-58.316
38.308,1003.084,-49.044
32.452,1007.232,-41.48
35.624,998.692,-33.916
29.28,993.08,-20.496
41.724,992.348,-31.964
27.816,986.98,-38.308
29.28,985.028,-37.576
37.576,989.664,-45.384
46.116,999.912,-52.216
35.624,997.96,-45.14
42.944,988.2,-37.576
25.132,980.88,-31.72
20.008,969.9,-33.916
30.988,975.512,-43.92
22.692,984.052,-43.92
27.328,987.224,-44.164
28.304,984.296,-33.672
20.984,986.98,-34.16
31.964,987.956,-37.576
50.752,995.276,-43.432
41.724,996.252,-29.28
50.02,990.884,-19.032
37.82,991.128,-21.472
7.564,997.228,-46.848
18.3,996.252,-60.756
20.008,996.74,-53.924
34.648,1002.108,-54.168
44.896,997.716,-50.508
37.82,996.74,-46.604
25.864,996.74,-43.432
40.504,1006.988,-64.66
43.188,1011.868,-72.712
20.252,1003.816,-65.636
34.404,1000.888,-75.64
34.16,1010.404,-81.496
37.332,1030.412,-94.428
41.48,1035.536,-97.6
36.112,1026.508,-82.228
32.696,1016.016,-80.276
27.084,1017.724,-101.016
12.688,1014.064,-103.944
19.52,1012.356,-95.648
38.064,1023.092,-104.676
45.14,1029.192,-107.848
24.644,1022.848,-88.816
19.764,1025.776,-89.06
30.744,1042.612,-110.044
25.62,1037.976,-120.292
28.548,1032.852,-124.684
22.936,1042.856,-125.66
16.348,1040.172,-118.828
5.612,1029.436,-121.756
7.808,1026.02,-129.564
14.152,1019.432,-136.396
36.356,1008.208,-124.196
15.616,1004.548,-103.456
-5.612,1016.504,-95.892
-13.176,1001.376,-84.912
10.248,998.204,-83.692
-13.42,1009.428,-92.964
-16.348,1008.94,-96.136
-0.976,1012.844,-100.284
-38.552,1009.428,-97.356
-28.06,998.448,-109.068
9.028,993.08,-111.996
-5.612,992.836,-81.496
-13.42,1004.304,-74.176
-4.148,996.496,-72.224
21.96,996.008,-86.864
28.548,995.032,-89.06
10.248,983.32,-65.636
-20.008,985.516,-62.708
-21.472,983.076,-74.42
-18.3,972.584,-68.564
-29.036,972.828,-65.392
-9.516,979.172,-77.348
-27.084,982.832,-70.028
-59.048,997.228,-71.004
-69.052,976.732,-61.244
-37.82,966.972,-70.76
-12.932,969.9,-97.112
-45.872,969.656,-95.648
-39.528,971.12,-99.308
-55.388,962.336,-95.892
-68.808,935.984,-71.492
-71.248,926.956,-58.316
-61.732,932.812,-74.664
-50.264,944.036,-79.788
-79.544,947.208,-57.34
-75.64,943.06,-43.676
-54.412,948.916,-47.336
-50.752,966.484,-56.852
-37.332,986.004,-82.228
-36.844,985.76,-110.532
-72.956,991.86,-103.212
-90.28,985.76,-89.304
-69.296,962.824,-84.668
-59.536,962.824,-84.424
-62.708,964.532,-101.016
-81.74,964.776,-102.968
-95.16,966.24,-90.036
-102.236,955.992,-79.3
-89.06,957.456,-83.204
-80.276,962.092,-83.448
-64.904,960.872,-90.524
-85.4,945.744,-72.468
-80.032,927.688,-33.916
-57.34,932.324,-29.28
-65.636,942.816,-42.944
-71.004,935.252,-32.696
-70.76,928.908,5.612
-68.32,932.324,18.544
-56.12,944.524,-1.464
-54.168,935.984,-19.276
-91.256,953.552,-2.196
-102.236,971.852,0.732
-65.636,976.244,-17.08
-37.576,984.296,-39.284
-62.952,996.74,-47.824
-83.448,999.912,-54.412
-91.744,983.564,-41.724
-60.024,983.32,-40.748
-71.004,984.296,-38.308
-80.032,985.76,-40.992
-108.092,984.296,-42.212
-83.936,983.808,-59.536
-32.452,978.196,-72.712
-33.184,984.784,-59.536
-50.996,991.616,-36.356
-51.972,979.172,-32.452
-66.124,975.268,-52.216
-60.024,980.148,-77.348
-70.272,974.536,-67.832
-78.812,970.876,-64.66
-76.616,961.848,-79.544
-93.94,953.552,-62.952
-64.904,969.656,-69.54
-53.436,972.34,-94.672
-43.676,974.048,-99.064
-59.536,980.392,-74.908
-51.972,983.564,-70.272
-53.436,980.148,-77.348
-43.188,972.584,-69.54
-51.484,969.656,-48.556
-56.852,976.488,-60.756
-69.784,972.584,-66.612
-79.3,968.436,-73.2
-60.512,983.808,-75.884
-48.556,999.668,-88.328
-58.56,1005.524,-107.848
-127.124,993.08,-88.084
-195.688,975.024,-67.832
-165.92,978.684,-54.9
-35.868,916.952,-107.116
64.66,945.012,-145.912
113.704,1003.084,-170.556
95.648,954.772,-259.86
40.504,991.616,-182.268
69.052,931.592,-254.248
-20.008,837.408,-268.888
103.212,737.612,-168.604
459.208,485.072,-89.06
733.708,211.304,-53.436
844.24,354.532,-97.844
991.86,334.036,-142.984
1334.192,151.28,79.788
1359.08,200.568,-117.364
1345.172,237.412,-136.396
1327.848,257.42,-117.12
1211.948,209.352,-109.312
1098.732,217.892,88.328
1024.312,176.168,199.348
946.72,142.496,292.068
950.38,95.404,388.204
992.592,134.688,377.956
1115.812,90.768,335.988
1202.676,18.3,458.232
1221.22,34.648,523.38
1251.964,40.748,579.256
1113.616,-28.792,701.744
1132.648,7.564,770.796
1138.504,-5.124,872.3
1008.452,-81.74,977.22
926.956,-51.972,874.496
939.156,-39.528,808.372
845.46,-47.092,717.116
763.72,-43.676,580.232
641.964,-55.144,446.52
465.796,-61.732,354.776
268.156,-109.8,220.576
125.172,-96.38,24.644
212.036,-67.1,-289.384
201.544,-20.008,-690.032
37.332,64.66,-936.96
74.908,78.08,-1160.708
138.104,109.8,-1532.076
259.616,128.588,-1746.796
278.404,65.148,-1724.836
381.616,34.648,-1816.824
513.62,-4.392,-1880.02
524.356,-59.536,-1805.6
527.284,-111.996,-1721.176
461.16,-174.46,-1583.072
424.804,-206.668,-1399.34
434.076,-214.476,-1209.508
400.648,-282.796,-946.72
491.904,-408.7,-648.064
697.352,-456.768,-427.732
750.788,-445.544,-264.74
716.872,-475.068,-54.168
869.616,-519.476,181.048
1138.26,-535.824,325.74
1293.932,-499.468,468.968
1352.004,-516.304,607.56
1501.576,-519.476,714.188
1596.248,-510.448,752.252
1703.364,-528.748,756.888
1852.204,-548.024,712.724
1907.104,-605.12,679.052
1773.636,-616.588,579.988
1679.696,-599.02,509.716
1657.492,-628.056,387.716
1711.66,-683.2,209.596
1685.796,-702.232,72.468
1554.036,-772.016,-86.132
1322.724,-759.084,-135.908
1200.236,-734.44,-327.448
1259.772,-650.504,-562.176
1187.792,-588.528,-736.636
1048.956,-476.044,-866.2
989.42,-434.32,-888.16
1009.428,-399.428,-829.844
885.964,-298.168,-817.156
730.536,-198.616,-776.652
722.24,-155.184,-704.672
861.32,-135.664,-556.076
962.092,-121.268,-437.248
980.88,-120.78,-282.308
998.936,-190.564,-92.964
987.468,-198.616,12.932
1038.708,-150.06,19.764
1037.244,-27.328,3.904
1067.5,-34.16,-10.004
1200.236,-80.52,-7.564
1264.164,64.172,-71.736
1238.3,122.732,-120.292
1073.6,214.476,-110.776
984.052,288.652,5.856
1004.304,93.452,141.032
966.972,297.192,131.76
873.276,354.288,-27.084
896.7,574.864,-170.8
912.804,491.416,-78.568
1025.288,444.812,17.812
938.912,595.604,-77.348
780.312,564.616,-127.612
663.68,615.368,-92.232
688.324,762.256,-137.616
607.072,700.036,-41.968
398.94,750.788,-30.012
451.644,819.596,-173.728
522.16,783.728,-162.748
435.54,789.096,-25.376
321.836,851.56,-79.788
320.86,860.344,-134.2
401.38,836.188,-115.9
450.668,850.096,-139.324
465.064,946.964,-286.944
320.128,969.656,-287.188
119.56,959.652,-79.3
95.892,897.188,0.244
192.76,914.756,-38.064
193.492,941.84,-60.268
101.504,965.264,-44.652
32.696,962.092,-90.28
-50.264,981.124,-95.648
-36.356,993.812,-98.82
-4.636,996.496,-104.188
-9.272,984.296,-80.764
-51.728,973.804,-73.444
-37.82,968.924,-94.916
-69.54,962.58,-71.248
-56.364,938.424,-37.576
-16.104,942.816,-18.3
-21.96,943.06,-32.208
-55.388,948.916,-43.92
-46.36,960.628,-71.248
-14.884,980.392,-56.852
-7.076,977.22,-35.624
14.152,1006.988,-75.64
-22.692,988.2,-61.244
-8.784,982.588,-50.508
-18.3,979.416,-48.556
-18.788,981.856,-58.072
-0.976,984.784,-42.456
-1.708,978.196,-26.108
-17.812,979.904,-29.524
-40.504,965.508,-22.936
-25.62,984.052,-70.76
-41.236,976.976,-54.656
-17.324,995.276,-95.404
-49.044,1015.772,-111.996
-50.752,981.612,-68.32
-27.084,971.364,-51.484
-29.524,978.928,-82.472
-29.524,983.32,-87.84
-24.4,991.86,-74.176
-1.464,992.592,-56.608
5.856,1000.644,-58.072
-15.86,983.32,-37.088
-17.08,981.368,-57.096
-30.988,991.128,-78.324
-20.252,988.2,-70.028
-11.956,999.424,-64.416
-37.82,993.568,-61.488
-52.216,984.54,-68.564
-43.432,988.688,-74.908
-35.38,993.08,-80.032
-14.884,1007.476,-106.872
-31.72,989.664,-69.052
-21.96,981.856,-54.656
-35.136,981.368,-55.876
-17.812,989.664,-76.616
-30.012,985.028,-69.784
-29.524,974.536,-64.416
-17.324,979.416,-73.2
-19.276,980.392,-73.2
-25.376,984.784,-76.128
-16.836,987.224,-77.836
-32.696,986.98,-73.2
-26.84,981.368,-61.488
-13.664,980.392,-69.296
-5.612,974.536,-66.124
-24.156,973.316,-67.588
-44.164,973.072,-73.688
-42.212,976.976,-86.62
-23.424,990.396,-89.792
-31.476,996.008,-86.62
-49.776,991.372,-88.816
-40.016,988.688,-96.38
-34.16,996.74,-94.672
-24.4,984.296,-67.1
-24.644,987.224,-75.64
-43.92,997.228,-95.404
-40.26,990.884,-83.692
-19.276,990.64,-77.348
-18.788,996.984,-89.06
-19.764,986.98,-72.468
-30.744,990.152,-68.564
-34.404,992.348,-80.032
-40.992,992.104,-93.208
-38.552,986.98,-99.064
-27.328,982.588,-99.308
-29.28,975.756,-80.52
-20.74,980.392,-68.32
-15.616,983.076,-71.492
-25.132,987.712,-87.84
-43.92,992.592,-101.748
-36.844,989.176,-92.72
-27.816,988.444,-78.324
-28.548,985.76,-78.568
-18.544,982.1,-93.94
-13.176,980.636,-100.04
-7.808,983.076,-82.96
-12.688,996.496,-90.28
-27.084,997.716,-90.768
-9.516,990.396,-81.008
15.616,986.004,-72.712
17.324,999.668,-92.476
5.368,1000.888,-97.844
-13.664,1001.132,-106.872
-42.944,999.18,-110.532
-13.664,1015.04,-122.976
11.956,1016.26,-130.784
-23.424,1036.756,-137.86
32.94,983.564,-122.488
-36.844,1007.476,-103.212
-2.196,1003.084,-146.4
0.732,1026.264,-164.456
-2.44,1027.728,-159.576
-46.848,1014.796,-135.908
-41.48,1019.188,-150.304
-4.88,1017.48,-165.188
41.724,1038.464,-191.296
27.084,1042.368,-172.508
14.64,1041.636,-150.548
12.2,1043.1,-151.28
11.224,1032.852,-145.668
5.124,1033.828,-145.424
26.352,1029.68,-146.644
15.372,1027.728,-119.316
18.544,1040.66,-118.584
-10.004,1035.048,-119.072
-3.904,1030.168,-118.096
5.612,1015.528,-96.38
-6.588,1007.964,-82.472
-2.196,999.668,-78.324
-4.392,994.788,-46.604
-6.1,985.028,-34.404
33.672,983.076,-46.848
10.492,996.74,-61.0
-56.12,984.296,-69.052
-80.032,979.904,-82.472
-51.972,969.9,-89.792
17.568,970.876,-94.916
-7.564,964.776,-64.904
-12.444,988.444,-74.908
-65.148,981.368,-75.64
-40.748,978.928,-92.72
-48.068,990.152,-98.088
-36.112,993.08,-99.064
2.196,998.936,-109.556
-25.132,999.18,-91.5
-54.9,986.736,-67.344
-26.84,972.584,-55.876
-10.492,975.756,-45.14
-45.384,979.172,-37.82
-15.372,977.464,-53.924
-40.504,965.508,-45.384
-94.672,968.436,-40.26
-90.036,971.364,-45.384
-63.928,978.196,-55.876
-72.224,985.516,-50.508
-84.424,985.028,-56.608
-97.844,996.496,-75.884
-79.3,1005.28,-109.312
-99.552,990.396,-102.236
-132.736,970.388,-58.804
-110.776,959.408,-32.452
-65.636,978.928,-57.096
-78.568,1009.672,-92.72
-123.22,1017.48,-97.356
-129.564,1002.84,-87.108
-104.676,994.056,-73.932
-143.96,951.112,-3.66
-133.712,922.076,15.86
-89.548,921.344,-38.796
-124.928,915.488,-23.912
-150.304,891.332,13.42
-134.688,865.956,22.936
-141.032,864.004,30.256
-159.576,875.472,16.836
-112.728,865.712,11.468
-128.1,850.828,22.936
-153.232,851.072,50.508
-144.936,874.008,56.364
-123.22,918.172,20.984
-120.292,949.16,4.88
-128.588,951.6,0.976
-158.112,950.38,-7.808
-146.4,962.336,-18.056
-123.708,989.664,-36.112
-140.056,1010.16,-43.188
-151.524,999.18,-41.48
-157.38,983.076,-41.236
-171.532,988.444,-27.084
-201.544,985.516,-19.52
-212.28,985.028,-36.844
-183.0,981.124,-75.152
-153.72,991.86,-94.916
-106.14,1014.064,-124.196
-138.836,983.32,-87.596
-161.04,923.54,-35.38
-242.048,922.564,8.296
-213.744,904.996,23.18
12.2,887.184,-198.86
15.86,973.072,-264.008
315.004,1023.092,-447.984
307.684,786.656,-294.752
213.012,650.992,-152.988
677.588,450.18,-327.692
1066.28,345.26,-342.332
849.608,401.136,-69.052
1146.556,316.224,-32.94
1206.336,189.588,-97.6
968.436,398.94,57.828
1014.796,-28.06,142.74
1017.968,88.816,166.652
1157.78,75.884,-41.968
1275.388,66.856,-95.648
1275.388,-33.672,69.052
1162.66,-48.312,249.856
1217.56,-27.328,266.448
1261.236,-101.016,331.108
1282.464,-145.18,501.664
1350.296,-181.78,509.472
1376.648,-212.036,607.804
1241.96,-225.456,782.996
1280.512,-246.196,873.52
1287.832,-333.792,892.064
1108.004,-297.436,1028.46
888.16,-301.34,1189.744
710.772,-314.76,1210.972
533.384,-237.412,1058.716
360.144,-197.396,867.908
302.072,-207.156,697.596
266.692,-224.724,498.004
209.108,-199.836,190.076
132.492,-140.056,-276.452
30.5,-21.228,-558.028
-69.052,77.836,-852.78
30.5,113.704,-1102.636
9.516,181.78,-1359.324
59.292,183.976,-1503.284
124.684,223.748,-1660.664
143.228,219.844,-1801.696
60.024,223.26,-1749.236
152.988,166.408,-1782.664
380.396,69.784,-1932.48
410.408,40.992,-1937.848
400.404,-8.54,-1858.06
432.856,-90.036,-1695.8
445.544,-197.64,-1384.456
426.024,-227.652,-1094.34
467.016,-332.328,-841.8
512.4,-420.656,-529.968
457.012,-383.324,-331.108
579.744,-463.112,-165.676
925.98,-648.308,89.792
1209.02,-779.824,413.336
1214.632,-765.428,680.272
1220.732,-788.852,855.708
1591.856,-845.46,881.328
1862.208,-848.876,794.708
1755.58,-832.772,850.584
1620.892,-833.748,865.224
1702.144,-824.964,710.772
1755.092,-830.088,535.58
1786.568,-824.232,374.784
1741.428,-823.256,203.008
1624.796,-852.048,65.148
1575.996,-859.856,35.38
1543.788,-917.684,-23.912
1507.92,-868.152,-251.808
1299.3,-780.068,-450.912
1237.812,-725.656,-584.868
1369.084,-618.052,-769.332
1163.148,-525.576,-859.612
843.02,-372.588,-886.696
810.08,-263.52,-801.54
903.532,-173.24,-782.996
880.352,-112.728,-796.66
836.92,-146.4,-601.46
762.012,-135.42,-467.748
864.248,-78.568,-385.032
899.872,-29.524,-341.844
890.6,12.444,-261.324
898.408,8.54,-157.136
994.056,39.284,-110.776
984.052,-18.3,-53.68
996.984,-66.612,-44.652
1070.672,-38.552,-7.808
1140.456,-190.32,108.824
1039.196,137.86,188.856
1248.792,190.808,-140.544
1195.112,236.192,-129.076
1103.368,334.768,-44.896
1000.888,266.692,36.112
916.952,301.828,105.164
1069.452,342.088,37.088
1013.576,259.128,119.56
897.432,407.48,42.212
991.372,466.772,-41.724
917.684,535.824,66.856
896.456,589.016,39.528
1006.988,602.192,-76.128
955.992,635.864,-97.844
714.676,639.524,-15.86
561.444,688.08,-4.392
535.092,714.676,-31.72
454.328,754.936,-16.104
420.9,853.756,-85.644
357.704,896.212,-126.392
257.664,833.748,-56.852
302.072,858.148,-56.852
251.076,902.556,-90.036
202.032,945.256,-164.212
209.108,967.216,-165.92
203.008,982.832,-131.272
185.928,943.304,-80.52
186.66,936.472,-68.808
174.704,924.76,-82.228
163.236,945.988,-108.092
126.636,968.68,-105.896
114.68,978.684,-85.644
122.488,958.676,-66.368
129.808,970.388,-90.036
106.628,974.78,-123.952
57.34,968.68,-91.744
72.224,957.944,-88.084
80.032,975.268,-103.7
83.204,963.556,-96.868
87.108,958.676,-80.276
42.456,972.34,-100.04
44.408,975.024,-106.872
88.328,980.392,-103.944
136.396,983.808,-112.728
131.76,994.788,-104.432
100.284,987.712,-64.416
91.988,972.584,-48.8
102.48,969.168,-57.584
160.308,966.24,-88.328
126.392,973.804,-68.076
113.216,979.172,-82.472
98.332,986.004,-104.432
80.764,968.68,-65.636
99.308,977.952,-90.036
95.648,975.756,-92.476
101.26,968.436,-77.592
153.72,996.008,-132.004
159.088,1005.036,-119.072
111.508,980.148,-61.0
102.48,968.68,-54.412
110.532,974.048,-72.468
133.712,972.584,-75.152
147.132,975.024,-77.592
111.996,981.612,-73.2
101.992,979.904,-80.276
99.308,981.124,-95.16
115.168,977.464,-103.944
118.096,978.196,-92.72
128.344,982.344,-90.768
120.78,984.784,-90.28
107.604,984.784,-84.912
116.388,983.076,-90.524
131.028,995.276,-105.408
119.072,992.836,-81.984
122.732,985.76,-83.692
105.652,985.516,-88.572
124.196,989.908,-106.384
114.924,985.272,-92.476
109.312,986.004,-89.548
118.34,978.928,-89.304
137.86,985.272,-92.964
126.88,998.936,-97.356
129.076,994.056,-105.896
124.44,976.976,-87.84
128.588,967.948,-82.228
113.46,977.708,-96.136
117.364,984.784,-117.852
126.148,979.66,-118.584
117.12,980.148,-106.14
101.504,979.904,-89.792
124.44,987.712,-94.184
157.624,1000.644,-118.096
133.224,1004.792,-103.944
120.78,997.472,-97.6
113.46,991.616,-100.772
123.708,980.148,-91.5
135.176,988.444,-102.724
145.18,993.324,-113.704
147.62,1003.328,-124.684
126.88,997.96,-109.556
110.776,991.616,-107.116
88.816,999.668,-116.388
122.488,1006.012,-123.952
150.304,1015.772,-128.1
151.524,1019.432,-125.904
143.96,1011.38,-121.512
141.276,1007.72,-113.46
125.172,1008.208,-114.68
140.3,1004.792,-126.88
147.132,998.204,-120.292
154.696,1002.352,-116.144
162.748,1000.4,-110.532
154.94,1014.308,-125.172
136.64,1019.676,-134.688
145.18,1012.356,-137.128
153.476,1023.336,-153.964
152.988,1038.708,-160.064
130.54,1035.78,-155.428
139.08,1024.068,-147.62
124.196,1006.5,-130.784
130.784,1013.82,-156.404
122.244,1042.856,-183.732
111.996,1047.736,-180.804
135.42,1039.928,-159.576
159.576,1032.608,-133.224
156.892,1026.996,-115.412
136.152,1016.016,-107.604
130.296,1006.012,-104.92
120.536,1006.5,-98.576
143.716,1022.116,-115.9
109.312,980.636,-80.764
110.776,963.8,-62.952
73.932,950.624,-50.264
79.056,946.232,-55.388
87.596,954.284,-89.548
66.124,981.856,-111.996
29.524,1001.864,-95.16
58.56,1018.212,-87.84
123.464,1003.816,-54.412
149.572,983.808,-22.204
84.668,981.612,-12.688
47.58,1011.624,-42.456
64.172,1016.992,-58.804
64.416,1016.992,-66.612
93.452,1016.504,-70.272
89.304,1017.48,-68.808
63.928,1022.604,-56.852
46.116,1021.14,-46.604
29.036,1010.404,-35.868
30.5,999.668,-28.06
56.852,982.344,-16.348
65.636,996.74,-7.564
33.672,1011.624,-3.904
-8.052,1025.288,-20.74
6.832,1001.864,-18.544
66.612,983.32,-8.54
44.896,981.368,24.644
-4.636,973.316,38.552
10.492,969.412,5.124
-4.636,983.808,-20.74
-74.908,960.872,12.688
-21.472,930.86,24.4
-9.028,915.0,44.652
-15.86,918.172,34.648
-14.884,912.316,-8.784
-42.7,930.86,-61.0
-109.8,938.18,-75.396
-75.64,906.46,-22.204
-0.732,868.152,2.44
-14.884,830.82,61.0
-24.644,837.896,87.596
-43.92,856.928,106.872
-59.536,870.836,140.3
-26.84,875.96,150.792
36.844,882.792,147.376
47.58,907.68,162.748
10.98,936.96,165.92
-3.66,944.28,116.876
-24.4,919.88,128.588
27.328,909.632,127.612
42.944,958.432,86.864
-1.952,1005.28,71.004
-22.692,1017.724,64.904
-53.924,1015.284,57.828
-134.444,1003.084,81.252
-145.18,978.684,101.992
36.112,942.572,52.216
153.72,993.08,-42.212
74.42,1049.2,-71.736
-30.012,1045.296,-35.868
-66.856,1041.88,-25.864
57.096,967.948,-140.544
57.828,876.692,-145.424
48.556,806.664,-110.532
340.38,784.948,-244.488
195.444,610.244,-47.824
249.612,364.048,81.252
749.08,137.616,-162.748
899.872,95.648,-133.224
1261.236,149.572,-202.764
1343.22,76.86,-38.552
1237.324,-17.08,43.432
1204.14,152.744,26.352
1259.284,-15.86,16.104
1360.544,-42.944,-2.44
1303.936,-75.64,67.588
1159.244,-44.408,223.016
1151.68,-16.836,220.82
1240.252,-79.544,311.832
1320.04,-147.62,386.496
1381.528,-218.136,516.06
1343.464,-215.696,559.492
1345.904,-202.032,708.576
1429.352,-269.62,759.572
1591.856,-380.396,794.708
1479.128,-475.8,914.024
1163.392,-539.24,1144.116
877.668,-525.82,1190.476
636.108,-504.104,1178.764
400.16,-440.908,1056.52
306.952,-370.88,818.376
205.936,-320.372,529.968
121.756,-220.82,273.28
181.536,-146.888,-8.54
75.152,-72.956,-432.368
29.036,166.896,-889.624
-79.788,264.496,-929.152
-42.944,281.576,-1027.728
71.248,265.716,-1154.364
91.256,362.828,-1480.348
310.612,358.68,-1699.704
180.072,356.24,-1706.048
160.796,400.404,-1856.352
340.868,278.404,-1901.248
359.9,156.648,-1787.788
374.784,46.848,-1584.292
404.552,-26.108,-1502.064
447.496,-80.764,-1433.256
365.024,-98.576,-1280.512
348.92,-227.164,-949.648
403.088,-389.668,-573.4
501.42,-454.328,-294.996
704.916,-551.684,-81.984
1008.696,-674.172,177.388
1294.664,-673.44,302.072
1458.144,-693.936,479.216
1573.8,-769.088,748.836
1669.936,-793.244,961.848
1733.376,-792.024,1056.52
1770.708,-738.1,848.876
1759.24,-727.364,743.468
1720.932,-711.504,644.16
1584.78,-682.468,479.46
1422.764,-670.268,353.068
1401.536,-658.312,213.256
1532.076,-689.3,40.504
1725.568,-741.76,-112.484
1634.068,-764.696,-171.776
1573.556,-805.932,-180.316
1554.036,-821.548,-243.756
1595.516,-709.064,-484.828
1387.14,-540.216,-641.232
1021.628,-419.924,-713.212
1041.88,-297.436,-782.264
1102.148,-202.52,-848.388
865.956,-113.216,-834.236
669.78,-78.568,-732.0
734.44,-70.028,-619.76
864.492,-74.664,-560.468
922.076,-76.86,-438.712
954.528,-59.536,-332.084
888.404,-56.852,-197.64
881.328,-48.312,-70.272
984.54,-54.9,-16.348
992.348,-48.312,44.896
1040.904,-15.616,95.404
1061.644,-2.928,160.064
1099.464,-1.22,105.408
1162.416,85.888,63.196
1195.356,167.384,68.076
1155.34,180.804,57.096
1058.472,357.948,-107.116
912.316,459.94,-103.7
862.784,463.112,-17.568
834.48,395.768,-4.392
790.072,519.964,-24.156
768.356,578.28,-103.212
736.636,657.336,-147.132
635.376,653.676,-43.188
633.424,705.892,0.488
678.32,704.672,-58.316
745.664,908.656,-168.848
617.808,915.488,-180.804
499.956,829.356,-37.332
436.272,802.272,45.628
504.348,862.784,-49.288
487.756,949.404,-110.532
308.66,970.144,-121.268
212.524,962.336,-123.22
308.416,911.828,-114.436
336.964,908.168,-48.312
309.636,937.204,-73.2
191.296,973.56,-105.896
123.22,934.276,-59.048
172.996,907.68,-44.164
202.764,928.42,-69.54
153.476,945.5,-52.216
116.144,915.732,-52.216
10.248,910.852,-18.544
18.3,934.032,-71.004
32.696,963.312,-135.42
76.372,969.412,-144.448
51.484,951.6,-96.38
-24.156,943.304,-62.952
-51.24,982.588,-113.216
46.116,986.98,-155.672
59.292,967.704,-100.284
62.952,970.632,-81.252
16.104,983.076,-105.652
-42.456,976.976,-101.992
-37.576,975.756,-68.564
43.676,984.296,-73.688
96.136,1023.58,-133.468
42.456,1021.628,-107.848
1.464,989.908,-65.392
-21.716,971.608,-37.088
-6.588,963.312,-52.216
37.576,980.392,-83.936
41.724,1006.744,-106.872
-3.66,1010.892,-96.868
-24.156,986.248,-51.24
-1.22,963.312,-31.72
38.796,989.664,-75.152
53.68,1013.82,-117.852
17.324,998.936,-93.94
-19.032,973.56,-46.604
-6.588,960.14,-30.988
45.384,996.252,-83.936
65.148,1025.776,-111.264
25.132,1031.144,-110.776
18.056,1008.94,-77.348
14.64,981.612,-51.24
13.664,968.192,-56.608
23.668,987.712,-72.224
36.112,993.812,-90.524
0.488,981.856,-74.908
-25.376,976.732,-76.372
-2.928,970.876,-76.128
19.276,975.756,-73.688
37.576,991.86,-93.452
41.48,996.984,-89.304
7.32,985.516,-62.22
4.88,976.732,-55.876
7.564,974.048,-54.412
19.032,993.08,-83.204
18.544,1000.156,-100.772
32.208,1001.376,-102.724
34.404,989.42,-87.84
9.76,972.096,-55.144
24.156,971.852,-57.34
24.4,981.124,-54.412
35.136,1000.4,-94.672
17.568,1013.088,-121.268
1.952,1002.108,-86.62
9.028,997.96,-82.472
22.204,1000.4,-84.18
35.38,997.716,-82.228
36.6,1002.84,-96.38
9.028,997.228,-81.008
4.148,995.764,-76.372
31.476,993.812,-88.328
35.136,988.932,-87.352
30.988,1004.304,-122.488
0.488,1008.208,-116.876
3.416,991.128,-88.572
28.548,990.152,-102.968
14.64,991.86,-111.752
4.636,995.276,-115.9
0.976,1000.888,-114.68
-5.856,1012.112,-119.804
11.224,1005.28,-127.856
10.736,996.008,-107.848
8.296,993.568,-103.944
26.352,998.448,-105.164
27.572,998.448,-97.6
10.492,998.448,-87.352
11.956,1016.016,-111.508
23.424,1022.116,-129.564
28.792,1028.46,-136.884
6.588,1033.828,-108.58
11.468,1001.864,-94.184
-29.036,1025.776,-74.176
10.492,1001.376,-82.228
8.296,1008.208,-79.788
24.4,1009.916,-109.068
4.636,1016.504,-106.628
3.904,1006.988,-108.092
-10.248,1009.916,-101.748
-29.036,1004.06,-81.008
-8.052,996.74,-78.812
8.052,1003.816,-93.452
-0.488,1007.964,-98.332
-14.64,996.984,-94.672
-8.052,992.592,-107.116
7.808,1008.696,-97.112
24.156,1018.212,-138.592
7.808,1041.148,-170.068
-27.084,1022.36,-120.292
-13.176,1007.72,-101.504
4.636,1026.752,-141.52
40.504,1026.02,-171.288
-2.928,1017.968,-163.968
-27.084,1017.236,-155.184
-30.744,1044.564,-173.484
7.076,1057.74,-193.736
16.348,1037.0,-178.12
40.748,1000.156,-133.468
29.768,974.292,-96.624
7.564,971.608,-58.072
11.956,963.068,-37.82
10.004,978.928,-56.12
13.42,1020.164,-95.404
13.176,990.396,-71.004
-5.856,973.56,-34.404
8.052,983.076,-51.972
-3.904,962.336,-43.92
5.856,938.912,-40.26
-13.908,948.428,-11.712
-28.792,998.936,-44.408
-17.568,989.664,-77.348
-40.016,993.08,-85.156
-43.676,1019.188,-86.376
-30.012,993.08,-69.784
-16.104,955.504,-34.404
-1.22,943.304,-27.084
-50.264,953.796,-36.844
-92.964,968.436,-68.808
-81.984,974.78,-98.332
-72.956,971.852,-66.856
-39.284,953.064,-76.128
-53.192,935.008,-81.74
-124.684,940.62,-88.572
-138.592,944.768,-101.748
-109.068,938.424,-96.136
-76.616,975.024,-105.164
-32.696,999.912,-120.048
-25.864,992.104,-125.416
-59.536,965.02,-85.156
-51.24,944.036,-64.416
-31.232,955.748,-100.04
-49.044,960.872,-86.864
-56.12,946.476,-49.532
-35.136,949.892,-61.244
-24.4,940.376,-45.14
-44.164,930.372,-16.348
-81.008,906.46,2.196
-59.78,897.676,19.276
-40.504,915.976,32.696
-29.036,931.836,32.208
-9.028,935.74,19.764
-7.076,933.544,85.888
11.224,943.06,108.092
8.54,949.892,88.084
-7.32,955.016,82.716
-17.08,983.076,60.268
-5.368,987.224,44.164
-27.328,996.984,60.756
-22.692,995.276,32.452
20.008,996.008,-25.376
-48.8,1002.84,6.1
-70.272,997.228,24.888
-44.408,985.028,-16.836
-4.148,970.876,-15.372
37.82,974.78,-9.76
15.86,999.424,17.568
-33.672,1001.132,37.576
-17.08,969.412,58.804
77.348,983.808,-25.62
67.344,952.82,-15.86
58.316,973.316,37.576
1.22,1026.02,37.82
-36.844,1039.928,-55.144
-12.444,1018.212,-101.26
-86.62,960.872,-102.48
122.0,894.748,-196.42
268.156,830.088,-231.068
117.608,681.98,-125.416
487.268,402.112,47.092
752.496,181.292,8.296
986.98,213.5,-48.312
1217.56,245.22,-48.8
1119.472,143.472,155.672
1291.248,73.932,253.028
1362.008,49.044,124.44
1465.464,330.132,-59.78
1384.944,111.508,142.496
1298.812,61.976,287.188
1388.604,32.94,338.184
1384.7,52.216,350.872
1184.864,2.684,410.164
1256.356,-56.608,619.028
1281.244,-85.888,698.572
1381.528,-136.884,720.532
1314.184,-241.072,885.964
1126.304,-313.052,1139.236
964.776,-366.976,1259.04
885.232,-403.82,1327.848
789.584,-413.336,1257.088
681.736,-408.456,1168.76
405.528,-390.644,963.312
87.596,-338.184,699.304
-2.196,-296.948,496.784
-173.972,-182.756,77.592
-79.544,-77.104,-203.252
-90.036,19.52,-479.46
32.452,91.744,-687.104
-48.8,210.572,-1017.968
-66.124,326.472,-1442.284
145.912,461.16,-1729.228
293.044,388.936,-1641.876
301.34,415.532,-1740.696
348.188,465.064,-1955.416
504.592,404.308,-2013.0
648.308,319.152,-1999.336
613.172,164.456,-1762.168
594.872,22.204,-1496.208
691.496,-37.576,-1328.092
661.484,-29.28,-1150.948
514.108,-125.66,-901.092
667.096,-324.276,-587.796
858.392,-385.276,-356.24
855.464,-398.94,-165.432
870.104,-439.2,51.728
1033.584,-541.436,305.488
1273.436,-509.472,432.368
1287.832,-515.328,464.82
1310.524,-515.084,565.104
1453.752,-531.432,653.676
1531.1,-558.272,744.932
1625.284,-548.756,691.74
1647.976,-518.5,596.824
1704.096,-529.48,538.264
1650.416,-502.152,457.012
1559.892,-522.892,391.376
1657.004,-581.94,333.304
1743.868,-584.136,119.316
1624.796,-650.992,83.936
1385.676,-728.34,116.388
1370.304,-695.888,-95.404
1426.912,-647.332,-367.22
1356.152,-582.428,-605.852
1270.264,-462.868,-818.864
1132.648,-371.124,-894.504
893.772,-292.312,-889.38
766.404,-245.22,-794.708
817.644,-150.06,-899.384
860.832,-82.96,-947.208
840.58,-84.668,-874.74
820.084,-84.18,-779.092
837.896,-100.772,-651.48
796.66,-127.612,-539.484
777.628,-158.844,-388.692
873.032,-148.352,-336.72
1000.644,-156.648,-272.792
1129.476,-157.868,-233.752
1098.488,-141.764,-196.42
1058.96,-168.116,-137.128
1073.112,-148.108,-7.32
1077.26,-122.732,26.84
1122.4,-50.02,-91.744
1181.936,-26.84,-119.56
1134.844,27.084,-52.704
1047.492,20.496,-37.088
1026.752,34.16,-13.908
970.144,71.736,19.276
971.852,141.276,-1.952
1108.004,199.592,-55.388
1094.584,244.732,-83.204
963.556,249.856,-48.312
894.504,301.34,-32.452
721.996,424.072,-87.596
849.852,513.376,-137.86
901.824,570.472,-67.344
885.72,617.808,-79.056
905.972,638.548,-193.98
853.512,483.364,-210.084
728.584,607.56,-102.48
725.168,649.04,-60.756
736.148,714.676,-141.764
664.412,847.656,-258.152
593.896,686.372,-55.876
550.952,721.996,-30.5
510.448,726.144,64.172
500.2,706.38,10.248
488.0,758.108,-49.776
515.328,846.436,-108.824
532.652,929.152,-191.54
562.176,942.084,-226.676
408.944,928.908,-144.448
336.72,922.808,-94.916
399.672,936.472,-126.636
403.332,907.192,-64.172
473.36,945.012,-142.496
446.764,960.872,-179.828
290.36,949.892,-96.136
192.272,967.704,-37.088
179.828,936.472,7.32
272.304,918.172,-26.84
294.996,942.572,-34.892
192.272,965.508,-38.064
48.556,976.488,-52.948
82.228,974.536,-41.236
148.108,976.0,-52.46
173.24,978.684,-61.976
125.66,977.464,-40.26
38.552,975.268,-27.084
22.936,956.724,-42.456
71.98,940.132,-61.244
48.556,964.776,-63.44
32.94,953.552,-49.776
-15.86,946.72,-71.004
-21.96,946.72,-77.592
19.032,969.168,-89.304
41.724,970.876,-63.684
21.228,952.088,-34.16
31.964,978.44,-64.172
4.148,1006.988,-85.156
14.64,1000.156,-78.812
38.308,1004.792,-80.764
63.684,1010.16,-81.008
80.032,995.52,-63.684
60.756,993.812,-59.292
75.884,988.688,-58.072
76.128,978.928,-32.208
77.592,981.856,-36.844
72.712,989.42,-51.24
59.78,978.196,-36.356
106.384,989.664,-71.004
99.308,987.224,-60.268
73.688,986.248,-42.456
68.808,983.32,-35.38
78.812,982.344,-44.896
112.484,992.592,-75.64
85.156,998.448,-76.86
78.324,995.032,-71.736
97.112,990.152,-64.904
88.816,987.468,-47.824
99.308,982.588,-56.608
105.164,975.024,-46.848
81.008,981.124,-58.316
92.72,981.124,-79.056
102.724,995.52,-75.152
99.064,1007.232,-73.444
87.84,1002.108,-72.712
76.86,980.88,-59.292
101.748,989.176,-77.836
110.776,1008.696,-93.452
132.736,1016.504,-99.308
106.384,1002.108,-73.2
103.944,980.392,-68.32
98.332,989.908,-78.812
105.896,1011.38,-103.944
87.84,1031.144,-110.288
98.82,1019.432,-96.624
105.896,997.96,-73.444
109.8,1003.572,-80.764
82.96,1016.504,-99.796
81.496,1023.336,-122.244
98.82,1037.0,-131.272
104.188,1048.468,-123.464
92.476,1039.928,-94.428
85.156,1030.656,-81.74
108.092,1052.128,-126.148
74.908,1083.36,-153.964
75.884,1096.78,-171.288
93.208,1085.312,-155.916
61.488,1060.424,-138.348
26.596,1037.976,-132.736
68.808,1029.68,-142.984
83.448,1022.604,-127.124
43.432,1017.724,-112.484
64.904,1012.6,-118.34
96.136,1002.84,-115.656
82.96,1002.108,-115.412
32.452,980.392,-115.412
44.408,979.416,-127.124
43.676,1000.156,-128.588
7.564,1051.64,-128.832
35.38,1004.792,-130.54
60.512,1038.708,-156.404
12.444,1038.464,-179.584
6.344,1006.5,-140.056
23.668,958.676,-67.344
20.252,952.088,-62.952
63.684,971.608,-80.276
50.996,996.984,-89.548
7.564,1020.652,-97.112
0.488,998.448,-85.156
25.376,986.004,-84.668
30.5,994.544,-73.444
22.448,987.956,-65.88
17.08,992.104,-53.436
3.416,976.732,-13.176
17.324,974.536,-15.86
15.128,1003.084,-76.128
-21.716,1031.876,-125.904
-20.496,1021.872,-119.316
-5.856,988.932,-50.996
13.664,949.892,-11.956
2.196,936.228,-21.96
-60.512,951.6,-53.924
-58.316,953.064,-75.64
-77.836,950.624,-91.988
-91.256,936.472,-90.28
-82.96,887.184,-56.364
-55.388,831.308,11.956
-61.732,796.416,80.764
-58.804,740.052,199.592
-21.228,751.276,188.612
-3.416,813.008,90.036
-74.176,872.788,40.504
-76.86,864.248,57.584
-68.564,887.184,48.312
-73.932,915.732,34.648
-90.28,945.744,-0.244
-98.576,949.648,2.44
-89.792,968.192,-17.568
-84.424,1006.5,-81.984
-90.28,1017.236,-104.676
-85.4,1008.452,-87.84
-119.316,998.692,-36.112
-133.224,1004.548,-21.472
-75.64,1004.792,-49.044
51.972,1023.58,-120.292
19.52,1037.732,-120.78
-92.476,1044.808,-101.504
-144.204,998.448,-69.54
-182.512,946.72,-34.892
-49.288,924.76,-67.344
193.98,1005.768,-232.532
116.632,1073.844,-259.372
-38.552,1099.22,-210.572
-136.396,1047.98,-139.568
-252.052,1075.552,-126.88
-228.14,1025.532,-149.328
-12.932,960.872,-185.44
122.732,943.792,-258.64
178.608,885.232,-235.46
198.128,733.464,-33.428
146.4,583.16,56.12
516.548,428.22,-16.104
1141.676,322.08,-312.076
1093.852,336.72,-171.044
1146.8,262.544,-34.892
1294.908,251.808,-74.42
1061.4,243.512,49.044
924.028,223.992,60.756
1014.796,162.748,-32.208
1056.764,120.536,16.348
1060.668,88.328,34.648
1162.172,54.412,8.784
1144.848,58.56,17.08
1067.256,52.704,40.748
998.448,79.3,4.148
993.568,58.56,48.8
1047.248,46.116,14.64
1145.092,41.724,-5.124
1166.808,50.264,-23.912
1130.94,23.424,24.888
1148.02,-27.572,70.028
1239.764,-59.292,128.588
1337.364,-147.62,182.512
1417.396,-214.72,350.872
1448.14,-265.228,457.988
1397.632,-290.848,546.072
1336.876,-300.852,603.656
1256.356,-292.556,639.036
1138.992,-279.868,637.572
1057.984,-281.576,647.576
928.176,-272.06,570.472
708.088,-249.124,421.388
409.92,-211.06,359.656
294.752,-162.26,235.216
186.416,-95.892,-28.304
69.54,7.564,-324.276
3.904,133.468,-576.816
12.2,294.996,-988.688
65.88,444.324,-1353.224
125.416,466.528,-1477.176
144.448,514.596,-1658.224
236.924,472.628,-1694.824
274.988,392.352,-1674.328
354.532,324.276,-1706.536
301.096,270.108,-1724.104
363.072,191.052,-1732.888
454.572,28.304,-1526.952
401.624,-67.1,-1303.204
351.848,-251.808,-929.884
563.152,-391.62,-581.208
813.008,-445.788,-442.616
728.34,-453.108,-313.784
801.54,-536.068,-164.212
1353.956,-656.36,94.672
1924.672,-739.076,384.788
1863.184,-721.752,658.556
1721.176,-725.9,937.448
1930.284,-732.0,1036.756
2059.36,-678.076,905.24
1832.196,-618.296,739.32
1616.5,-597.068,662.216
1683.6,-605.852,517.28
1735.572,-596.58,241.316
1628.944,-546.072,5.856
1507.188,-554.368,-137.616
1550.62,-564.616,-274.5
1474.736,-569.496,-408.212
1310.768,-561.444,-447.252
1278.316,-523.38,-564.372
1318.332,-468.236,-663.192
1271.972,-389.424,-771.284
1039.928,-305.244,-761.524
771.528,-178.364,-815.692
820.084,-128.832,-746.396
944.036,-137.86,-639.524
1031.876,-120.048,-565.348
697.352,-43.188,-580.964
675.148,149.084,-723.216
869.616,185.44,-716.14
939.4,101.992,-492.88
954.528,-26.84,-156.16
945.744,-96.624,30.744
1011.868,-30.744,-1.22
1111.176,49.044,-150.06
1316.868,91.744,-182.024
1250.988,46.36,-38.796
1160.22,32.452,124.928
1098.0,79.788,137.128
936.472,190.564,20.984
929.64,320.616,-11.468
1005.768,393.328,-58.072
910.608,438.956,-41.236
905.728,465.064,-30.012
772.016,508.496,24.644
550.22,589.016,24.4
635.62,717.604,-182.512
632.204,747.86,-213.988
558.028,757.62,-105.652
605.608,802.028,-117.364
486.536,812.52,-34.404
227.652,826.428,59.78
137.128,863.272,8.296
392.352,900.116,-170.556
462.624,941.352,-184.952
332.328,966.972,-109.068
74.908,928.664,-33.184
98.088,907.192,-96.624
143.716,923.784,-140.056
153.964,969.412,-158.6
81.74,1005.036,-182.024
69.296,1006.5,-193.98
84.912,956.236,-124.196
162.26,968.436,-129.32
109.068,986.98,-137.616
106.872,988.932,-168.604
70.272,980.88,-155.428
17.568,936.716,-122.976
66.368,950.38,-178.608
52.46,965.508,-171.044
64.416,956.724,-154.208
87.352,963.556,-162.748
60.268,948.672,-131.272
48.556,948.184,-133.956
48.556,986.736,-207.888
71.98,992.836,-208.132
89.304,972.584,-165.188
91.988,948.184,-117.608
91.988,953.308,-122.732
93.94,987.224,-170.8
89.792,993.324,-168.848
80.52,1003.816,-188.368
79.3,981.124,-154.696
110.288,958.676,-105.408
129.32,967.948,-118.34
115.412,988.444,-142.496
110.776,1001.132,-168.604
106.384,992.348,-153.72
104.92,979.172,-141.032
127.856,959.164,-145.912
131.516,962.58,-148.108
102.724,962.58,-127.856
99.796,962.824,-126.636
104.188,974.292,-154.452
111.02,995.52,-175.436
100.772,1012.844,-192.272
92.72,1003.328,-174.46
99.552,996.74,-160.308
106.628,1003.328,-175.68
96.38,987.956,-157.38
113.46,975.024,-158.6
111.996,968.68,-148.352
114.924,968.68,-137.372
106.384,966.24,-140.056
101.504,968.436,-157.38
103.212,965.02,-151.524
104.92,966.728,-140.788
132.736,985.272,-159.576
119.316,1000.156,-169.092
95.648,992.104,-150.548
113.704,978.684,-139.324
115.9,977.464,-130.54
144.448,1002.596,-161.284
111.752,987.712,-132.004
115.412,971.364,-115.656
110.776,974.78,-130.54
115.656,987.956,-139.812
124.44,998.692,-147.376
104.676,996.252,-144.204
88.328,966.728,-122.488
99.308,945.5,-98.332
132.98,960.384,-113.704
121.512,982.344,-134.2
111.02,986.98,-131.028
97.356,985.272,-117.364
104.188,987.468,-118.828
111.508,981.856,-120.048
112.484,978.196,-121.268
134.2,1002.596,-148.108
121.756,1010.892,-136.64
109.8,991.616,-113.704
100.528,961.848,-87.108
117.12,949.892,-81.74
134.932,969.168,-93.94
130.052,993.08,-120.536
95.648,979.66,-108.092
87.596,957.944,-89.792
109.068,968.68,-84.18
129.076,1004.792,-113.704
140.3,1024.556,-143.228
144.204,1008.452,-131.272
100.04,977.952,-91.256
72.956,970.144,-94.428
97.844,983.32,-133.712
119.072,994.788,-154.452
107.116,1003.084,-155.428
82.472,991.372,-129.076
98.576,990.884,-125.416
107.36,1014.796,-142.496
136.64,1042.368,-183.0
138.348,1065.304,-191.052
147.62,1078.968,-193.98
130.54,1076.04,-195.444
119.072,1068.964,-181.536
148.108,1063.84,-172.752
142.496,1063.84,-183.0
124.684,1053.592,-176.168
142.74,1052.86,-175.436
137.616,1064.572,-176.9
103.944,1055.544,-159.82
99.796,1020.652,-129.808
101.26,1001.132,-114.68
119.804,1005.524,-133.224
137.86,1007.72,-152.012
114.924,1023.092,-132.492
90.28,1041.148,-135.42
74.664,1055.056,-140.544
81.008,1057.74,-142.984
123.464,1057.496,-160.552
193.736,1060.912,-205.692
140.056,1056.032,-177.876
65.148,1013.576,-112.24
43.188,987.224,-81.496
49.532,984.784,-96.136
107.848,989.42,-133.956
82.716,1000.4,-125.904
31.964,1020.408,-138.104
18.3,1008.452,-132.492
2.928,976.488,-101.26
32.94,965.996,-91.5
40.26,966.24,-80.52
12.444,978.44,-88.084
-21.716,975.756,-99.308
-62.22,960.628,-88.084
-20.008,957.7,-96.624
26.84,967.948,-111.752
20.496,940.132,-64.172
-36.6,916.708,-43.432
-92.964,877.424,-36.6
-125.416,848.144,-9.516
-102.724,879.864,-32.452
-60.024,908.9,-36.844
-2.928,941.352,-55.632
-68.076,954.528,-23.912
-111.752,939.4,-7.564
-87.108,933.3,-27.084
-67.344,939.4,-49.532
-42.7,949.16,-71.736
-90.28,930.86,-46.604
-142.008,887.184,11.956
-142.252,851.56,43.432
-126.148,850.828,33.916
-82.716,858.148,-0.488
-101.016,866.688,-13.908
-150.792,874.496,15.372
-122.0,888.16,5.368
-107.604,914.268,-20.74
-98.576,929.152,-47.58
-108.092,930.372,-36.112
-136.396,918.416,23.668
-120.78,934.032,11.956
-120.048,959.652,-31.72
-94.428,961.36,-52.216
-102.968,964.532,-35.624
-113.948,976.244,-40.016
-128.588,977.22,-36.844
-121.756,967.46,-42.944
-124.44,976.244,-43.188
-139.812,999.424,-59.292
-144.448,1019.676,-87.352
-178.608,1029.924,-107.116
-206.912,1028.216,-91.744
-197.152,996.252,-62.708
-141.764,950.38,-29.768
-74.664,976.488,-73.444
-13.176,1015.284,-158.356
-118.828,991.86,-180.804
-77.592,989.664,-259.86
30.256,998.448,-376.736
136.884,931.104,-412.36
185.196,773.236,-367.708
504.348,526.308,-309.88
855.708,451.4,-264.008
969.412,472.14,-230.58
1027.484,444.812,-86.62
865.956,335.744,142.74
594.628,289.14,231.312
559.98,170.8,313.296
905.484,63.44,286.456
1161.44,72.468,124.196
1367.864,92.476,43.676
1422.764,87.108,101.992
1344.928,57.584,206.668
1185.352,72.956,293.532
1210.728,4.392,397.232
1353.224,-103.456,484.34
1520.12,-135.664,484.584
1496.696,-174.216,573.888
1369.084,-180.316,719.8
1212.68,-189.344,797.392
1188.036,-195.932,885.72
1226.1,-233.02,919.392
1107.516,-226.432,918.66
989.664,-216.428,928.664
868.64,-216.672,860.1
651.48,-174.948,813.74
523.868,-139.568,795.196
499.468,-129.808,663.924
445.544,-97.356,485.072
384.3,-94.184,376.98
237.412,-118.34,271.816
-21.716,-1.708,41.968
159.576,-0.244,-128.344
125.416,42.7,-363.072
89.792,124.928,-541.924
18.056,201.056,-753.472
-51.728,278.16,-1007.232
231.312,406.504,-1312.72
425.78,342.332,-1438.136
500.932,314.272,-1495.476
559.98,241.804,-1426.424
612.44,210.084,-1435.94
669.048,220.088,-1582.584
870.348,149.816,-1651.148
998.448,106.14,-1684.82
952.332,33.672,-1525.488
762.012,8.296,-1257.576
725.9,-92.476,-1022.36
797.392,-200.08,-874.252
807.152,-266.204,-698.816
681.004,-264.984,-513.864
590.236,-284.504,-259.616
712.236,-392.596,5.368
1078.48,-497.028,134.2
1330.288,-505.812,210.572
1200.236,-498.98,413.092
1329.312,-537.532,667.096
1614.06,-558.516,743.224
1525.0,-568.764,864.98
1316.868,-595.848,981.612
1411.54,-611.464,942.572
1698.728,-554.124,713.456
1683.356,-526.552,503.372
1575.752,-516.548,402.112
1595.272,-546.804,331.108
1583.56,-529.236,209.84
1644.56,-565.348,106.384
1733.864,-582.916,-70.028
1872.7,-499.468,-376.248
1824.388,-505.324,-406.748
1553.304,-529.968,-319.64
1371.036,-433.588,-446.52
1369.328,-381.128,-478.24
1244.888,-326.228,-465.308
1039.196,-233.264,-506.056
874.496,-93.208,-613.904
904.02,-14.396,-628.056
758.352,31.964,-555.1
786.412,-15.616,-389.912
864.98,-68.32,-244.488
891.82,-15.372,-237.656
958.92,28.304,-223.504
1065.792,39.772,-142.74
1044.076,59.536,-109.068
947.208,110.776,-122.0
973.072,114.924,-71.98
1027.972,118.828,63.196
1020.896,141.032,95.648
946.964,258.396,16.104
860.588,337.452,21.96
837.408,414.312,56.852
892.796,498.736,5.856
923.296,546.316,-46.116
744.932,570.716,45.872
599.996,655.14,25.62
636.84,743.956,-107.36
527.284,792.268,-99.308
440.176,770.308,14.396
570.472,819.84,-54.168
493.124,880.352,-102.48
398.94,910.12,-84.912
373.32,864.004,-31.964
454.572,842.532,-15.128
461.648,839.848,-25.376
392.108,896.7,-33.428
285.236,946.964,-56.12
270.108,937.448,-98.82
229.116,969.656,-117.608
171.288,969.656,-99.552
274.744,997.96,-177.144
242.536,997.472,-204.716
136.884,1004.792,-143.716
147.864,944.036,-67.1
159.332,903.288,-7.076
166.408,902.068,-8.784
185.928,953.064,-52.948
172.02,958.92,-62.22
106.384,968.192,-72.956
52.216,964.288,-73.444
51.24,982.588,-91.256
75.152,993.08,-81.496
56.608,1008.208,-76.128
73.444,1030.168,-130.54
58.804,1023.092,-119.316
81.008,989.908,-62.708
118.828,968.436,-40.992
119.072,962.336,-28.548
97.112,947.94,-17.324
101.26,965.752,-55.876
43.676,990.396,-82.96
34.16,1002.108,-97.6
67.344,1010.16,-118.34
84.18,991.372,-99.796
136.396,993.812,-84.424
76.86,975.756,-46.116
95.404,985.028,-84.668
47.824,967.46,-46.116
117.364,956.236,-72.224
144.692,996.252,-116.144
52.46,983.564,-63.684
97.356,970.388,-87.596
99.552,981.612,-98.332
59.048,964.288,-46.848
121.024,966.484,-66.612
138.104,978.684,-93.452
130.052,987.712,-101.504
69.052,984.052,-81.74
62.22,992.836,-80.52
101.748,983.32,-86.376
129.32,986.736,-100.04
100.284,976.732,-64.416
118.096,978.928,-71.98
109.068,979.66,-70.516
107.116,971.608,-78.568
117.852,985.272,-107.604
75.152,986.004,-85.156
110.288,997.716,-98.82
136.396,1021.14,-116.876
90.768,991.86,-64.416
110.776,972.584,-67.344
121.268,982.588,-82.472
105.652,979.416,-89.548
122.244,991.616,-118.828
99.796,987.956,-101.748
106.628,980.636,-95.404
131.516,984.784,-110.044
114.192,979.416,-90.036
101.016,978.44,-86.62
118.584,993.08,-124.684
100.772,995.52,-123.22
91.012,985.76,-109.8
114.436,986.98,-117.608
115.412,988.932,-117.608
103.944,989.908,-106.628
110.532,989.176,-98.82
107.36,1006.256,-119.072
110.776,1013.576,-141.032
107.848,998.692,-119.804
115.656,979.904,-91.744
131.272,972.34,-88.572
142.008,965.264,-85.4
135.664,964.776,-81.74
120.292,970.144,-80.52
119.316,998.692,-111.02
128.344,1022.604,-155.672
128.832,1019.676,-156.16
117.852,994.056,-109.068
115.9,992.592,-104.432
128.1,1013.088,-133.468
135.42,1030.168,-160.796
135.664,1035.78,-176.9
132.736,1028.948,-197.396
130.296,1031.388,-207.156
128.344,1019.92,-193.98
105.164,1022.36,-186.172
111.752,1026.752,-181.292
88.816,1032.12,-170.556
84.424,1049.444,-177.876
94.428,1072.624,-203.496
114.924,1095.56,-203.74
136.396,1108.736,-198.372
123.464,1127.28,-221.552
93.94,1122.156,-208.62
110.532,1090.192,-178.852
160.064,1070.672,-169.824
152.5,1053.836,-126.148
129.076,1041.636,-107.116
86.376,1029.924,-111.508
89.06,1000.644,-104.92
88.084,973.072,-91.012
60.024,997.716,-121.268
122.732,1031.876,-193.248
98.332,1050.908,-199.104
51.972,1047.248,-154.94
102.724,998.448,-82.96
144.448,946.232,-5.612
141.764,934.276,30.256
86.376,958.188,-1.952
57.096,983.564,-44.164
21.96,1007.964,-45.628
35.868,1020.896,-86.62
102.48,1042.368,-142.496
57.828,1040.172,-108.092
19.032,1026.508,-59.78
81.74,1010.892,-45.872
114.192,986.492,-16.836
118.584,985.272,-1.22
70.516,991.616,-4.392
52.948,989.176,-10.004
23.668,964.532,2.684
9.76,960.384,-0.732
35.868,975.756,-18.544
48.8,990.152,-30.744
3.172,975.268,-18.056
-31.964,930.86,32.696
-5.856,909.388,34.892
8.052,902.556,36.112
-45.14,941.352,24.4
-51.972,965.752,19.032
-26.108,957.456,10.98
-6.832,945.256,19.276
-9.028,933.3,16.592
-26.352,934.52,-7.564
-73.932,917.684,14.152
-49.532,886.94,50.752
23.912,862.54,53.68
25.864,865.712,50.264
-30.256,835.944,55.388
-84.912,829.356,21.96
-172.508,821.792,-18.056
-150.304,781.288,36.6
-80.52,781.044,88.084
-50.02,819.596,100.04
-80.276,861.076,83.936
-107.848,907.192,31.232
-125.172,919.392,42.456
-39.528,949.892,9.76
-25.864,986.98,-10.004
-76.616,1004.792,4.88
-108.824,990.64,7.32
-109.068,968.68,26.108
-107.116,994.3,14.64
-63.44,1037.244,-65.636
-60.268,1037.0,-80.52
-81.252,1001.864,-35.868
-125.66,977.22,-14.396
-104.676,980.392,-22.692
-50.02,1007.72,-59.048
-31.476,1033.828,-72.224
-37.332,1031.876,-64.172
-27.084,1027.972,-81.984
-10.248,1021.384,-77.836
-24.644,1007.476,-54.168
-46.36,975.268,-25.132
-71.492,950.624,-11.468
-6.588,954.528,-25.62
11.956,992.348,-56.608
8.784,1008.452,-67.588
-30.012,1017.968,-48.312
-82.716,1027.728,-35.868
-54.168,1012.356,-22.692
-36.844,964.532,-34.892
-45.872,974.536,-118.34
50.02,1009.916,-191.784
89.792,1008.452,-179.096
-2.196,1015.772,-140.3
37.82,1015.528,-158.844
67.344,948.184,-210.816
195.932,852.536,-194.712
313.296,648.308,-116.876
589.992,529.724,-97.356
903.776,420.412,-75.64
1202.188,477.264,-217.404
1127.524,529.236,-197.884
1029.68,446.032,-7.808
816.18,397.232,116.632
670.756,286.456,157.136
896.212,192.76,139.324
1229.028,184.708,79.544
1250.744,195.932,38.796
1131.916,228.14,-28.06
1049.2,217.648,-10.492
1078.968,204.472,8.784
1160.464,104.92,90.036
1110.932,61.976,150.304
1196.088,68.32,159.576
1275.388,73.932,102.724
1291.492,42.456,184.708
1282.952,10.248,345.504
1312.72,8.54,362.584
1350.54,-10.248,412.604
1416.42,-60.024,477.996
1460.34,-132.736,563.152
1339.804,-148.84,658.068
1143.384,-170.068,814.472
1087.752,-170.312,828.624
984.052,-120.292,697.108
878.888,-91.744,629.276
678.32,-81.74,605.608
504.836,-59.048,553.636
279.624,-80.764,547.78
73.2,-29.036,474.58
124.44,-30.5,254.004
183.976,19.52,-86.132
166.408,72.956,-331.108
126.392,92.232,-500.2
80.032,174.216,-754.692
35.624,231.8,-1027.484
-97.6,345.504,-1235.86
-109.556,400.404,-1399.584
0.976,431.392,-1594.296
167.384,361.12,-1631.384
63.44,378.444,-1726.056
38.308,377.224,-1735.328
33.184,278.892,-1595.028
125.66,183.976,-1544.52
333.06,170.312,-1603.324
555.832,99.552,-1597.468
644.16,59.536,-1543.056
533.628,-4.148,-1304.424
402.356,-41.968,-1108.98
421.876,-149.816,-862.784
558.516,-283.284,-574.62
717.604,-378.444,-313.784
667.584,-354.776,-175.68
616.832,-335.988,-144.936
903.532,-382.348,-100.284
1200.236,-410.408,-48.8
1311.5,-431.88,100.772
1173.884,-446.032,331.84
1384.944,-495.076,441.152
1706.536,-525.82,402.112
1917.352,-596.824,511.424
1965.176,-573.644,526.552
1941.508,-576.816,543.388
1893.44,-595.604,534.604
1863.428,-618.54,471.408
1692.14,-591.944,341.356
1699.216,-594.384,175.68
1769.976,-585.356,-30.256
1662.86,-576.084,-180.56
1527.928,-592.432,-298.412
1537.932,-533.872,-443.592
1576.24,-466.772,-636.352
1343.708,-419.68,-682.712
1114.836,-418.948,-638.548
1053.836,-356.24,-739.32
959.164,-207.644,-874.984
837.896,-127.612,-840.336
783.972,-78.812,-807.396
731.512,-61.976,-766.892
766.404,-42.456,-683.688
911.828,-25.132,-654.164
938.424,-14.152,-601.704
846.924,-66.612,-381.128
809.836,-157.136,-142.74
945.5,-153.964,-157.136
965.508,-138.836,-138.592
925.736,-128.344,-85.4
974.048,-132.736,-9.516
1079.456,-146.644,68.32
1076.284,-145.18,78.812
1118.984,-107.36,55.388
1173.396,-164.944,178.852
1280.512,-191.296,220.088
1173.396,-160.308,231.068
1016.748,-78.08,242.536
970.632,-20.008,188.612
1076.772,70.516,138.836
1171.444,154.696,79.3
1202.92,149.328,70.516
1026.752,154.208,165.432
844.24,224.968,190.32
802.76,298.9,104.188
888.892,365.756,10.248
816.912,456.524,4.148
871.324,477.752,-52.46
922.32,496.052,-83.204
736.88,543.144,3.172
676.124,568.52,65.636
807.152,614.392,-7.564
841.8,650.992,-87.108
743.712,680.76,-79.056
556.564,711.016,-36.6
546.316,794.708,-118.828
493.368,791.78,-115.168
466.284,777.14,-48.068
418.704,816.668,-10.98
421.388,882.06,-94.428
342.82,899.384,-105.408
347.456,902.312,-57.34
495.076,910.608,-99.308
506.788,901.58,-122.488
329.156,940.62,-91.012
169.092,942.084,-19.52
210.084,935.496,-43.92
245.952,925.004,-83.692
238.144,935.008,-96.136
171.532,931.104,-65.88
170.8,966.24,-103.7
108.092,1000.4,-135.176
89.792,999.912,-155.916
60.024,996.984,-134.688
85.156,995.032,-114.436
137.616,1003.816,-114.192
125.904,992.592,-115.412
124.196,966.24,-55.876
159.088,964.288,-15.616
170.556,993.568,-59.78
159.332,998.204,-80.032
143.716,1022.604,-90.524
131.76,1000.888,-61.244
146.644,960.384,-15.372
191.784,969.412,-41.236
172.752,965.996,-26.108
105.408,974.536,-18.056
86.132,971.608,-38.796
100.772,980.636,-59.292
138.348,995.276,-65.88
178.12,996.252,-58.316
158.356,990.396,-34.16
116.144,987.468,-29.524
133.468,986.98,-38.064
152.012,996.984,-44.408
144.936,1017.968,-59.536
113.948,1001.376,-33.184
106.628,956.236,4.636
130.052,932.324,12.688
150.792,946.232,-7.808
119.804,965.508,-20.252
101.748,966.728,-34.892
101.748,976.976,-37.576
102.724,987.468,-33.672
139.568,1002.108,-52.704
147.376,983.564,-17.568
144.448,991.128,-19.276
134.688,1012.112,-35.868
127.124,1001.864,-21.96
126.636,1004.548,-31.964
137.372,998.936,-38.552
137.616,978.928,-14.884
141.276,970.632,-20.252
132.736,977.708,-23.18
134.444,987.468,-18.544
136.884,982.832,-20.496
131.028,1001.62,-46.36
116.876,1023.824,-77.104
113.46,1003.572,-46.604
133.468,973.072,-14.152
153.232,963.556,-7.076
148.596,972.584,-22.204
143.228,989.908,-44.164
118.34,985.028,-30.5
131.272,980.636,-32.452
135.42,949.404,-4.88
192.272,928.42,31.964
258.64,923.784,34.404
137.86,990.396,-33.184
93.94,1051.64,-124.196
74.664,1038.22,-116.388
91.5,1033.34,-146.888
54.656,1049.2,-183.976
73.444,1035.536,-176.168
90.036,1004.792,-136.152
67.344,993.568,-103.456
101.748,978.196,-89.792
127.612,988.688,-95.892
96.868,1007.476,-104.432
81.496,1058.472,-148.108
102.48,1066.28,-139.568
139.568,1064.572,-123.22
162.26,1086.044,-128.1
154.94,1105.076,-127.612
124.928,1123.62,-138.348
159.576,1137.284,-175.924
172.508,1149.484,-215.208
143.228,1148.02,-209.84
115.168,1123.132,-191.54
93.452,1089.704,-151.524
77.348,1038.464,-96.868
163.968,1023.58,-122.976
168.116,1059.204,-191.296
142.008,1088.972,-204.228
83.448,1066.28,-154.452
65.148,1029.68,-112.484
96.38,1000.644,-99.308
135.176,982.344,-105.408
82.228,987.956,-78.568
38.064,1009.672,-96.624
18.3,1023.092,-132.248
-0.488,1014.308,-120.048
12.444,995.276,-98.332
62.708,983.808,-119.316
73.2,949.892,-85.644
14.884,921.1,-25.132
-53.924,884.744,14.64
-84.668,875.228,13.664
-48.312,911.828,-36.112
1.952,924.76,-52.704
-24.4,939.888,-17.08
-25.376,980.148,-25.864
-4.148,1002.108,-50.264
-46.36,974.048,-21.716
-8.784,946.964,2.196
22.692,977.22,-53.436
-47.092,1009.672,-106.14
-71.736,973.072,-81.496
-70.516,936.716,-61.976
-92.476,922.076,-56.12
-124.684,899.628,-40.748
-125.904,923.54,-112.24
-132.98,966.972,-183.488
-142.496,955.748,-127.368
-136.884,927.444,-82.472
-68.808,860.1,5.124
-47.336,852.048,58.804
-74.176,932.324,-2.196
-101.992,955.016,-38.308
-60.268,916.22,-5.368
-69.784,883.524,34.648
-66.856,879.376,41.236
-98.82,869.86,49.776
-108.336,875.472,59.048
-67.588,878.156,62.708
-80.764,875.472,67.1
-62.708,861.32,55.632
-99.064,868.884,60.268
-154.208,914.756,47.58
-92.72,957.944,-28.548
-119.316,964.776,-46.604
-135.176,968.436,-31.964
-113.46,989.176,-54.9
-114.924,1001.864,-64.904
-125.416,993.568,-46.116
-139.568,976.0,-20.252
-118.828,978.684,-33.672
-116.388,994.788,-57.096
-139.812,993.812,-44.408
-165.188,1016.992,-65.148
-161.772,1025.776,-73.688
-174.948,1022.36,-94.428
-239.12,1031.876,-96.136
-299.144,1011.624,-46.848
-312.32,1014.064,-31.232
-236.192,1009.672,-95.892
-36.112,972.584,-153.964
76.616,1004.06,-209.84
183.244,1027.972,-307.684
161.528,1049.932,-287.432
115.168,998.204,-194.956
2.196,966.972,-100.284
-89.548,858.636,-70.272
239.608,603.656,-92.232
650.992,423.828,-118.584
1013.332,388.448,-72.956
793.244,397.476,64.172
936.96,339.648,148.352
1094.828,324.52,47.092
882.548,387.96,4.88
942.816,310.124,73.932
996.496,237.412,94.916
1054.08,194.224,88.816
1073.112,168.116,82.716
1188.524,129.076,73.932
1173.64,85.888,121.756
1122.644,97.6,177.632
1080.432,129.32,157.868
1245.864,108.58,97.6
1450.824,10.004,139.568
1397.632,-73.932,274.5
1253.916,-84.668,486.536
1216.584,-112.484,649.772
1361.276,-162.016,698.572
1566.968,-201.056,571.936
1473.76,-212.036,561.688
1222.684,-269.864,812.764
1017.236,-251.076,945.256
933.056,-202.764,953.796
950.624,-210.816,828.624
914.756,-137.86,598.288
723.704,-148.84,547.78
408.212,-109.312,460.672
184.464,-38.308,375.76
204.472,-36.112,305.0
341.844,-35.38,94.672
343.308,-45.872,-149.816
121.756,91.012,-416.264
-107.604,244.0,-690.276
-267.424,357.46,-986.248
2.44,401.38,-1182.18
120.048,341.6,-1182.912
150.792,363.804,-1231.224
278.16,348.676,-1428.864
347.212,364.78,-1663.104
480.192,306.464,-1670.912
515.328,293.044,-1698.484
516.06,279.868,-1687.748
534.604,179.828,-1598.932
516.304,80.276,-1434.232
552.416,-51.484,-1252.696
636.84,-184.464,-1014.308
605.852,-231.312,-757.132
515.572,-264.74,-462.868
673.684,-357.948,-228.872
1071.16,-453.352,-144.204
1214.144,-458.232,-89.792
1193.404,-471.652,93.208
1355.664,-555.344,442.86
1687.26,-644.648,652.456
1570.14,-601.948,811.544
1273.436,-542.168,1020.164
1438.868,-545.584,959.896
1654.076,-551.928,765.916
1737.524,-502.64,542.9
1573.312,-562.42,632.204
1506.944,-626.836,683.932
1609.424,-621.712,518.744
1762.168,-614.636,283.772
1874.164,-668.072,202.276
1808.772,-710.528,97.844
1677.5,-653.676,-45.384
1423.008,-660.752,-25.62
1370.304,-660.996,-77.592
1514.996,-561.444,-352.092
1462.536,-457.988,-596.824
1110.932,-333.792,-620.004
818.864,-244.488,-523.38
844.728,-168.604,-561.444
939.644,-77.592,-640.012
930.616,-61.732,-595.36
833.504,-26.108,-513.132
783.24,18.056,-437.492
806.664,-4.636,-340.868
830.332,-54.412,-198.128
848.876,-76.86,-101.504
806.42,-84.18,-17.812
889.624,-122.244,39.528
997.96,-153.72,84.912
1121.18,-158.356,128.588
1113.128,-166.408,180.804
1057.008,-164.7,251.564
1117.276,-142.252,239.364
1166.564,-77.592,187.148
1160.952,-68.076,209.84
1122.4,-66.856,277.428
1064.328,-72.224,356.972
1036.024,70.516,279.624
927.932,220.576,130.052
831.796,310.612,106.14
937.448,327.936,105.652
1197.552,357.948,-10.248
1043.344,463.844,-4.148
583.404,554.856,118.828
415.044,565.104,173.24
538.264,561.688,184.464
763.232,567.3,186.66
977.464,641.232,107.116
799.1,685.152,113.948
506.544,729.804,164.456
508.008,749.568,107.604
585.112,787.632,59.78
665.144,834.724,28.548
571.204,892.064,13.176
342.088,886.696,43.432
302.56,887.916,11.224
364.292,885.232,-72.956
426.512,887.428,-71.248
293.776,936.96,-17.08
136.152,956.48,-14.64
142.984,944.524,-45.872
225.944,926.712,-40.992
289.384,932.568,-47.336
222.04,945.012,-36.6
111.508,955.016,-40.504
137.128,957.456,-49.776
180.316,955.992,-46.604
208.864,973.56,-50.02
187.636,981.612,-64.416
132.736,977.464,-50.752
130.296,956.236,-1.22
224.48,943.792,-13.42
290.116,972.828,-56.608
183.732,998.936,-17.812
141.52,992.836,-7.076
145.912,987.712,-14.64
158.356,1007.232,-32.696
224.968,1004.304,-32.94
234.24,992.592,-7.564
157.868,979.172,11.712
120.048,967.216,3.416
133.224,969.9,-10.004
177.144,979.66,-26.84
168.604,1013.82,-62.708
116.144,1004.06,-37.82
135.908,974.78,-17.568
141.52,944.524,-4.148
182.024,939.156,-23.668
209.108,957.212,-44.408
163.48,987.956,-54.168
124.928,974.78,-45.384
142.74,952.088,-27.084
176.168,942.572,-13.176
181.536,976.976,-37.576
217.16,1002.352,-80.52
194.712,998.692,-56.852
177.144,987.224,-20.74
179.584,991.616,-34.648
186.904,1003.572,-67.832
184.708,1007.964,-78.08
194.956,1005.524,-71.98
178.12,992.836,-47.824
173.24,986.492,-47.824
173.484,1003.572,-80.52
147.62,1008.696,-72.712
199.836,1010.648,-86.62
186.172,1011.868,-61.976
183.976,990.152,-47.824
179.584,975.756,-43.432
171.044,994.3,-37.82
207.644,1009.428,-48.312
207.888,1003.572,-52.216
154.94,994.3,-60.756
122.732,988.932,-56.608
162.26,990.396,-61.732
188.368,1011.136,-84.912
172.508,1029.436,-85.888
160.308,1024.312,-80.52
145.668,1021.872,-101.016
148.108,1020.896,-111.996
175.436,1010.892,-91.256
169.092,1010.892,-57.584
165.92,1012.844,-77.104
169.336,1015.04,-92.964
146.644,1006.012,-76.86
150.304,1006.256,-84.912
169.824,1029.924,-138.348
144.692,1045.784,-155.672
116.632,1026.752,-118.828
109.312,1015.772,-109.8
83.448,1013.088,-101.504
173.728,1022.36,-121.268
208.864,1063.108,-143.472
155.672,1095.316,-150.792
118.584,1079.7,-148.596
88.084,1053.592,-113.46
144.692,1041.392,-110.776
231.8,1051.64,-155.672
170.556,1065.06,-124.44
113.948,1033.34,-77.104
105.164,1012.844,-88.328
111.02,989.908,-79.788
162.504,987.956,-113.46
116.388,1016.26,-121.024
64.904,995.032,-73.932
81.496,970.632,-54.656
86.376,968.436,-60.512
93.452,979.66,-79.544
85.4,993.08,-100.772
42.944,997.716,-105.408
17.568,1003.328,-103.456
43.92,999.668,-91.256
74.42,981.124,-97.356
14.884,972.096,-69.54
-53.192,972.828,-55.876
-46.36,986.004,-82.228
22.692,956.724,-61.244
72.468,918.172,26.84
43.676,917.928,63.928
-2.196,925.248,51.728
-23.424,922.32,57.828
-0.244,913.048,73.688
48.556,927.444,41.236
30.012,933.544,24.888
-29.768,906.948,41.724
-44.408,897.92,19.52
-45.384,913.536,12.444
30.744,938.18,4.636
96.624,951.844,44.652
48.068,921.588,107.604
-64.66,884.744,110.044
-120.048,875.96,64.416
-173.728,886.452,26.596
-133.956,928.42,-42.7
-111.02,925.492,-39.284
-100.528,915.244,-16.104
-125.172,907.68,0.0
-125.66,914.024,21.472
-120.292,964.044,-28.792
-103.944,996.74,-89.548
-65.636,948.672,-50.508
-61.244,914.024,47.092
-73.444,921.588,77.592
-34.404,954.772,7.32
-36.844,982.1,-11.956
-45.14,1006.012,-13.42
-52.948,1016.016,-49.288
-54.168,998.448,-66.368
-100.772,967.46,5.856
-77.104,955.26,20.496
-68.564,984.784,-30.744
-77.836,999.668,-47.336
-67.832,994.544,-20.984
-63.44,998.936,-34.16
-109.556,1019.432,-63.928
-110.044,1034.072,-60.756
-64.904,1041.392,-82.472
-67.344,1043.344,-98.82
-118.584,1011.136,-67.832
-164.7,986.248,-33.428
-61.488,966.972,-61.732
238.632,963.8,-137.128
142.008,949.648,-74.908
139.568,954.284,-125.172
278.892,1011.624,-266.448
346.724,1023.092,-309.636
164.7,973.072,-174.948
190.32,851.56,-107.116
281.576,727.852,-80.276
524.112,643.672,-106.628
630.008,601.704,-81.984
501.42,480.436,9.272
501.908,360.388,65.148
1028.948,247.904,36.356
1369.084,318.176,-19.032
1160.708,309.88,-26.108
1140.7,259.616,80.764
991.128,166.896,230.092
826.184,158.844,258.64
838.14,162.26,223.992
1043.1,126.392,116.144
1221.464,124.44,-1.708
1163.636,96.136,67.832
1100.44,57.096,137.372
1022.36,14.152,223.992
1085.068,-6.344,253.272
1222.196,-65.88,257.908
1272.46,-95.648,344.772
1302.96,-119.56,421.388
1396.656,-150.304,434.076
1496.94,-212.28,567.544
1549.4,-263.032,661.484
1465.708,-295.24,756.644
1342.732,-327.204,855.708
1252.208,-328.912,836.676
1142.652,-309.392,834.968
992.836,-308.416,845.948
760.304,-286.456,831.064
555.588,-247.66,754.936
395.28,-223.748,687.592
340.136,-193.492,504.104
232.776,-129.076,286.212
85.156,-83.204,152.5
104.432,-66.612,39.528
132.98,-6.832,-223.748
44.652,111.02,-517.524
-37.82,253.516,-843.264
49.532,453.352,-1287.588
253.272,586.82,-1691.164
343.796,555.1,-1771.196
385.764,470.92,-1725.812
555.832,458.232,-1820.728
547.292,413.092,-1822.924
561.688,364.292,-1831.464
622.444,313.296,-1868.308
645.136,147.62,-1557.94
639.768,-21.472,-1219.756
638.548,-119.316,-984.052
571.692,-198.372,-778.604
683.444,-223.992,-655.872
735.904,-250.344,-488.732
809.348,-378.932,-196.42
967.704,-510.204,88.328
972.584,-514.84,217.648
970.144,-483.12,301.34
1147.532,-504.348,400.16
1481.568,-536.556,420.168
1559.892,-563.396,555.1
1335.412,-571.204,741.516
1468.392,-670.756,890.112
1865.38,-709.796,805.932
1884.656,-707.112,712.236
1645.78,-705.404,680.516
1713.368,-755.18,649.528
1895.88,-819.108,461.16
1820.728,-790.56,158.6
1746.308,-751.032,10.492
1870.504,-797.148,-100.528
1748.992,-869.372,-171.776
1448.628,-839.604,-235.948
1298.08,-754.692,-378.2
1225.368,-664.9,-535.824
1113.372,-488.732,-709.064
1042.368,-359.9,-815.204
986.492,-207.156,-964.776
983.808,-27.328,-1091.168
891.82,-15.616,-973.316
778.604,-52.948,-735.172
858.392,-80.52,-614.636
957.212,-170.8,-402.356
925.004,-213.988,-243.756
691.984,-168.116,-118.584
713.944,-132.248,-39.772
922.564,-160.796,18.3
1224.88,-196.908,129.32
1194.136,-184.22,160.552
1037.0,-170.8,174.948
1074.82,-196.42,278.16
1075.308,-159.088,308.904
966.484,-89.06,263.52
998.204,19.764,201.3
1137.772,165.188,26.596
1133.38,205.692,-17.324
956.724,188.612,179.096
1036.756,205.448,280.356
1019.432,325.74,285.236
1042.124,502.152,19.52
813.252,579.988,-69.54
642.452,568.764,99.064
616.832,552.416,251.32
805.688,565.836,199.348
580.476,603.412,206.668
304.512,738.344,92.232
221.552,823.256,27.328
375.76,831.064,-23.18
487.512,853.268,-22.448
233.02,869.128,136.396
125.904,976.244,-9.76
80.764,1001.132,-134.932
235.216,996.008,-150.304
276.94,964.044,-29.768
249.612,913.048,44.164
60.024,935.252,23.668
-122.976,996.496,-52.948
39.284,982.832,-121.268
230.58,1011.868,-210.816
189.1,1017.724,-143.96
80.52,960.628,3.66
16.104,926.712,61.732
35.136,953.552,-15.86
148.108,991.86,-119.072
117.852,1000.156,-110.288
54.656,1004.304,-75.396
17.812,1015.04,-103.7
-29.768,993.568,-69.052
92.232,965.264,-81.252
146.644,983.32,-112.728
102.236,1004.548,-103.212
12.932,993.812,-87.596
44.164,996.008,-122.488
88.328,995.032,-114.924
98.332,994.544,-88.084
43.432,988.2,-61.732
32.208,985.76,-81.984
48.068,976.244,-92.72
86.864,978.196,-93.208
125.172,985.516,-97.356
84.668,979.416,-65.88
140.788,989.42,-90.768
86.864,985.516,-58.072
75.884,993.812,-89.548
131.516,1019.432,-169.092
63.44,996.984,-98.576
74.664,976.732,-76.616
159.332,981.368,-131.028
127.856,984.784,-112.972
81.496,979.172,-63.928
102.236,993.324,-88.328
150.548,995.032,-117.12
121.756,998.936,-110.288
89.548,997.228,-91.988
95.16,985.76,-84.424
114.192,975.268,-80.276
151.28,968.192,-91.012
130.052,976.0,-93.696
86.376,980.88,-82.228
99.796,986.248,-90.036
117.852,985.76,-96.136
122.244,991.616,-96.38
125.66,982.832,-94.184
132.736,964.044,-63.196
129.076,968.192,-62.22
91.5,975.024,-73.2
97.356,983.32,-104.188
99.796,981.856,-105.652
117.852,977.952,-101.748
110.044,973.804,-94.428
91.744,975.512,-89.548
108.58,976.244,-93.94
112.24,980.636,-88.328
111.996,988.2,-96.868
108.58,990.396,-104.92
123.708,982.344,-106.628
127.856,971.852,-104.432
81.008,967.46,-87.352
78.324,959.164,-87.108
114.436,972.096,-103.212
141.276,987.468,-119.56
129.076,988.932,-110.288
131.028,984.296,-112.728
91.744,984.296,-105.896
