acc_x[mg],acc_y[mg],acc_z[mg]
-156.892,966.972,-45.384
-160.308,964.776,-53.192
-161.284,950.868,-45.628
-178.852,954.772,-34.648
-180.56,957.944,-42.7
-177.632,956.968,-50.508
-177.632,960.628,-49.044
-172.02,967.704,-53.924
-155.916,972.34,-64.66
-153.964,974.78,-61.0
-159.82,976.244,-54.656
-165.432,979.416,-50.752
-158.356,979.904,-59.292
-142.496,973.56,-64.66
-151.28,978.44,-55.388
-164.7,977.952,-58.316
-172.02,977.22,-72.468
-173.484,971.608,-73.444
-177.876,969.9,-64.66
-179.828,970.388,-51.24
-163.968,970.144,-51.728
-162.016,974.292,-59.536
-176.168,968.436,-45.384
-173.24,967.704,-45.384
-170.556,969.412,-53.436
-173.728,964.532,-37.576
-176.412,964.044,-16.836
-170.068,967.216,-20.496
-167.872,967.46,-24.4
-167.628,965.752,-26.596
-168.848,970.144,-30.5
-173.24,973.56,-30.012
-179.584,972.34,-23.668
-178.12,979.66,-31.964
-172.02,978.684,-40.504
-179.584,974.048,-34.16
-183.244,975.268,-29.768
-174.216,976.732,-43.92
-178.852,976.244,-49.044
-186.66,974.292,-43.92
-183.976,969.656,-40.26
-183.488,963.068,-25.132
-185.44,965.996,-19.276
-182.268,961.604,-18.3
-179.584,963.068,-18.544
-188.124,969.9,-15.128
-174.948,979.66,-26.352
-162.504,985.516,-39.772
-165.432,987.468,-37.576
-162.26,983.564,-32.208
-165.92,978.44,-23.912
-171.044,974.78,-24.644
-171.044,975.756,-36.6
-160.064,977.22,-51.972
-168.848,977.952,-39.772
-169.092,972.096,-33.916
-172.02,970.876,-37.82
-178.608,972.584,-43.432
-177.632,970.144,-43.188
-176.9,969.656,-40.26
-176.9,968.436,-39.528
-189.344,967.46,-34.892
-193.492,965.996,-42.212
-190.564,969.656,-53.192
-185.44,971.852,-67.1
-194.224,968.924,-38.308
-182.024,964.776,-10.248
-170.068,969.656,-8.296
-158.356,976.488,-21.472
-161.528,979.172,-30.5
-167.628,980.636,-39.04
-178.364,982.832,-40.016
-189.1,982.588,-38.308
-182.756,978.196,-44.652
-161.04,972.584,-53.436
-166.408,979.172,-42.456
-154.452,986.492,-32.696
-145.18,982.1,-21.96
-156.892,982.588,-9.028
-172.752,979.904,-0.488
-179.584,985.028,-17.08
-179.828,988.444,-33.184
-171.044,992.348,-47.336
-207.156,984.54,-22.936
-222.772,978.928,-21.228
-232.776,972.828,-28.548
-246.684,978.196,-38.796
-248.148,978.684,-58.804
-259.372,984.784,-72.468
-274.256,994.056,-73.2
-281.088,995.764,-51.728
-253.76,989.664,-26.84
-215.208,977.464,-13.176
-222.528,965.264,-13.176
-254.736,1000.644,-54.168
-310.124,1008.696,-72.712
-323.056,999.668,-82.472
-324.276,983.808,-75.152
-262.788,984.296,-62.708
-229.604,967.46,-39.284
-259.86,969.168,-10.248
-262.3,977.464,-17.324
-306.708,952.088,-11.468
-296.704,923.54,-42.456
-237.9,971.852,-138.348
-323.788,997.228,-131.76
-371.368,991.128,-85.644
-293.044,934.032,-53.192
-291.336,890.356,-20.496
-315.736,911.34,-66.612
-320.86,1019.676,-189.588
-352.824,1024.068,-182.268
-279.38,971.12,-127.124
-214.964,922.808,-61.488
-152.5,891.576,-25.864
-253.516,882.304,34.16
-330.62,945.5,16.104
-347.944,973.804,-51.24
-336.964,949.648,-42.944
-249.368,927.444,-31.72
-286.944,894.504,66.856
-305.732,897.432,68.076
-283.284,994.544,-90.768
-304.024,1019.432,-139.08
-225.212,984.052,-88.328
-246.196,917.684,52.948
-264.984,869.86,124.196
-197.396,903.776,-1.464
-157.38,940.864,-50.752
-105.164,966.24,2.196
-181.048,973.072,97.112
-122.0,932.08,127.856
-11.224,889.868,116.144
-13.908,906.216,96.136
-66.856,923.54,79.788
-69.54,921.588,74.664
-64.416,940.132,51.484
-98.82,932.812,32.696
-58.804,931.592,-3.172
-114.924,964.776,8.052
-160.064,980.88,21.228
-133.712,976.488,3.904
-73.444,972.584,-35.38
-111.264,986.248,-16.592
-140.056,979.66,3.416
-159.82,1002.352,-36.6
-164.212,1015.528,-69.296
-144.936,989.664,-30.256
-141.276,971.852,9.272
-162.26,937.936,65.148
-138.348,957.944,30.256
-180.804,1012.356,-38.796
-188.368,1014.552,-68.564
-192.76,985.272,1.952
-217.892,945.5,75.884
-266.692,952.82,55.876
-189.832,990.884,-124.684
-128.1,1040.904,-219.6
-117.852,1011.624,-141.52
-184.464,985.76,-33.916
-189.344,905.24,23.424
159.088,880.108,-123.464
357.46,767.38,-233.996
-35.136,679.784,69.296
-24.888,435.784,294.508
547.78,146.156,346.724
1100.928,227.164,26.596
1711.416,570.96,-607.56
1351.272,623.664,-558.272
1173.64,381.86,-95.404
1163.636,326.228,136.884
979.904,328.18,99.308
940.132,224.968,249.368
975.024,188.124,316.468
934.032,155.916,288.164
1024.8,151.036,248.88
1156.804,162.016,168.116
1190.964,170.068,132.98
1176.812,190.32,142.74
1209.508,207.156,115.412
1242.692,233.02,104.188
1284.66,178.852,154.208
1272.948,146.4,269.864
1305.888,123.22,347.212
1321.26,87.596,469.944
1411.296,47.824,586.82
1559.404,20.008,611.708
1580.632,-28.548,741.76
1371.524,-68.564,924.272
1176.812,-131.516,1120.692
1088.24,-209.352,1220.732
1034.56,-262.788,1271.24
858.88,-290.848,1224.636
564.372,-297.924,1062.376
356.728,-261.812,878.644
195.688,-243.268,624.152
-11.468,-218.136,348.432
-203.74,-205.448,81.252
-256.444,-122.732,-263.52
-36.844,51.24,-914.024
-116.632,183.488,-1291.004
-395.28,162.26,-1134.356
-196.176,187.148,-1358.592
39.772,265.96,-1640.168
114.924,205.448,-1626.016
219.356,221.796,-1829.268
247.416,282.308,-2011.048
153.232,242.78,-1917.108
155.672,152.988,-1746.308
269.376,84.668,-1590.88
401.868,-9.516,-1407.636
520.452,-132.004,-1153.632
679.784,-205.936,-890.356
740.54,-216.184,-665.144
704.916,-244.244,-394.304
860.832,-317.932,-116.144
1070.428,-318.664,40.26
1070.428,-338.184,273.768
1082.14,-379.42,506.3
1362.496,-375.76,581.208
1613.084,-313.052,602.192
1684.576,-302.072,675.636
1639.68,-311.832,733.464
1735.328,-331.108,781.288
1773.636,-330.62,741.516
1636.996,-332.816,690.764
1670.424,-340.38,550.464
1781.688,-342.088,407.48
1763.144,-361.12,308.416
1641.144,-419.924,262.3
1609.424,-437.248,212.768
1664.812,-434.808,-39.772
1759.728,-407.48,-315.736
1605.276,-422.12,-411.872
1312.232,-452.62,-411.872
1144.36,-407.236,-539.728
1096.536,-324.032,-748.104
987.712,-245.22,-847.9
942.084,-183.0,-867.664
919.88,-147.864,-804.468
984.54,-138.348,-661.24
894.504,-158.6,-506.056
694.912,-50.508,-530.7
889.868,35.868,-464.088
1018.212,22.936,-331.352
1108.736,31.232,-285.48
1075.308,93.208,-243.024
1027.728,98.82,-93.696
1018.212,108.824,24.888
1006.744,254.248,-48.8
945.988,352.824,-122.0
784.46,353.556,-6.1
783.484,456.036,70.272
902.312,509.472,-12.444
738.344,529.48,111.264
563.396,614.636,248.636
512.888,729.072,135.664
513.376,829.844,-60.512
413.824,901.092,-78.812
323.3,884.5,-0.976
452.864,911.584,-50.02
265.716,915.488,2.196
82.96,960.628,-1.952
107.36,983.32,-98.332
126.392,932.08,-128.832
128.832,934.032,-88.572
-76.616,918.66,66.856
-131.272,946.72,98.82
-65.88,995.032,0.976
-93.94,1024.312,-50.508
-115.9,1031.876,-71.248
-142.252,1013.332,-71.004
-119.56,1053.836,-107.116
-147.132,1019.432,-2.928
-123.464,977.464,74.42
-79.788,984.784,23.424
-127.612,974.78,29.036
-95.16,964.288,17.812
-100.772,972.828,-10.248
-208.62,979.66,-4.148
-157.136,979.416,-60.512
-56.852,972.584,-75.152
-47.336,951.6,-22.692
-11.712,959.164,5.124
-94.428,935.252,80.764
-95.648,910.12,76.616
-24.644,903.044,5.856
-25.864,936.716,-32.208
-88.816,965.996,-16.104
-71.248,974.292,-30.012
-70.516,970.632,-7.564
-93.452,972.096,12.444
-73.444,979.66,-17.08
-25.376,987.224,-47.336
-36.356,999.424,-41.724
-33.184,1012.356,-25.864
-29.036,1005.28,6.832
0.244,1001.864,7.808
-23.668,1001.132,8.784
-32.94,1006.012,-25.132
-50.264,1002.108,-47.336
-65.636,997.96,-34.404
-9.516,1000.4,-44.164
-11.956,997.228,-17.324
-22.204,996.984,-12.2
-31.964,997.716,-20.984
-28.06,987.224,-39.772
-5.612,996.984,-67.588
-17.324,990.884,-46.848
-27.572,978.196,-15.128
-15.128,983.564,-31.476
-16.592,993.812,-47.092
-25.62,981.612,-39.04
-23.668,987.712,-42.944
-6.344,995.764,-65.392
-13.42,998.936,-52.704
-8.296,991.86,-37.82
0.244,990.884,-38.064
-24.156,995.52,-30.988
-22.692,990.396,-34.648
-17.324,988.2,-40.992
-5.856,995.52,-57.828
-0.244,991.616,-51.728
-20.984,986.004,-21.96
-22.448,992.348,-35.624
-28.548,997.716,-46.36
-15.86,994.056,-46.116
-7.808,987.224,-36.6
-8.54,994.3,-45.384
-18.544,995.52,-50.02
-18.3,991.128,-39.284
-21.228,992.348,-33.428
-27.816,988.688,-37.82
-9.516,983.808,-52.216
-22.204,991.128,-48.556
-28.304,991.86,-40.504
-15.372,996.496,-40.016
2.44,995.764,-45.14
-14.152,995.032,-36.6
-19.276,988.444,-29.28
-17.324,982.588,-25.864
-6.588,986.248,-48.312
-12.444,996.008,-54.412
-14.64,991.128,-36.112
-14.64,992.104,-33.672
-14.64,1005.28,-40.504
3.172,1001.62,-46.848
4.636,998.204,-56.12
-6.588,1001.376,-59.78
-7.564,993.08,-45.14
-5.124,986.736,-35.136
0.244,996.496,-48.068
-4.636,991.128,-52.216
6.344,983.808,-50.02
-7.808,990.884,-41.724
-10.248,995.52,-42.456
-6.344,1000.888,-57.584
-25.376,994.788,-44.896
-25.376,991.616,-30.988
21.472,996.252,-42.944
37.332,1015.04,-75.152
-4.392,1030.656,-81.984
-27.816,1030.656,-78.08
-40.992,1025.288,-81.74
-64.172,1028.46,-80.764
-68.564,1021.14,-78.324
17.812,1019.188,-109.556
55.876,1032.12,-125.904
21.716,1043.344,-91.744
-11.712,1037.244,-54.9
0.488,1031.876,-52.948
19.52,1041.636,-79.3
18.3,1037.732,-74.908
16.836,1035.536,-77.104
-3.66,1046.272,-90.28
-12.444,1053.104,-116.388
-37.332,1048.468,-129.808
-63.684,1041.148,-135.42
-34.648,1046.516,-181.78
-25.864,1052.128,-202.032
-36.356,1036.512,-146.888
3.66,1017.236,-98.576
18.3,1019.188,-77.104
27.816,1025.044,-78.08
13.42,1019.676,-85.156
-25.62,1012.6,-83.204
-25.62,1015.772,-110.288
-15.86,1018.7,-115.412
48.068,1012.112,-103.944
42.944,1011.136,-82.228
-6.588,1005.524,-51.728
-33.184,1004.06,-43.676
-40.748,1009.672,-75.152
-9.516,1014.552,-135.42
-50.264,1003.084,-99.064
-30.012,1001.132,-57.096
-20.252,1008.452,-47.58
-22.448,1023.824,-61.0
-33.184,1027.728,-93.94
-55.144,1040.172,-133.712
-59.536,1048.468,-165.92
-57.828,1022.36,-117.12
-38.796,990.64,-45.872
-26.352,983.564,-38.308
-52.216,1004.304,-40.992
-64.172,1015.284,-49.532
-61.732,996.496,-56.608
-74.908,982.344,-41.48
-137.128,998.692,-30.988
-148.84,1013.576,-42.456
-88.572,985.516,-26.596
-42.456,938.18,42.944
-48.556,898.164,126.636
-66.124,901.336,95.892
-81.008,913.292,62.952
-93.94,892.308,85.644
-71.248,869.128,89.548
-47.092,842.288,104.676
-67.1,853.024,97.6
-130.54,866.444,85.156
-137.616,872.3,68.076
-130.052,860.1,62.22
-140.056,854.488,76.372
-155.428,878.644,56.12
-187.88,922.076,0.488
-197.884,925.492,-7.32
-160.552,915.976,11.712
-172.508,922.808,29.768
-173.24,929.152,32.94
-165.92,912.56,57.584
-147.62,910.608,54.656
-171.532,940.62,22.936
-183.732,943.792,21.228
-162.748,951.356,2.684
-171.532,962.58,-3.172
-165.676,966.24,13.42
-141.764,964.044,11.956
-156.892,949.16,19.276
-183.976,961.36,-0.732
-185.196,978.196,-35.624
-155.428,978.44,-48.068
-159.576,964.044,-14.64
-162.016,960.14,6.832
-162.504,974.536,-20.252
-164.212,988.444,-55.144
-166.408,968.192,-32.208
-154.208,966.24,-16.104
-167.628,970.388,-30.256
-155.428,966.972,-45.872
-166.408,951.112,-9.76
-173.728,956.48,-0.732
-154.94,971.608,-36.844
-153.72,985.272,-52.46
-143.228,1000.4,-64.904
-150.792,1000.644,-52.216
-152.744,986.98,-36.356
-174.46,980.392,-23.424
-174.948,975.756,-11.224
-159.088,980.392,-20.984
-192.76,990.152,-27.816
-218.38,993.324,-27.816
-247.904,985.516,-16.104
-297.924,989.664,-21.96
-280.356,1010.16,-94.428
-237.168,1016.504,-133.224
-229.36,1057.496,-171.044
-278.892,1067.988,-244.976
-313.052,1025.776,-197.884
-366.976,907.192,-120.78
-291.58,768.356,-85.4
-3.416,494.1,23.912
437.248,296.46,138.592
732.488,242.78,-7.32
920.856,301.096,-88.328
1127.524,220.332,172.996
1130.94,260.836,202.276
1197.552,329.888,-34.892
1226.588,347.456,-108.336
1205.848,301.096,-52.46
1172.908,222.04,19.276
1146.068,186.172,113.46
1055.544,177.388,171.532
1029.68,144.936,251.32
1021.872,143.96,285.236
1073.6,141.52,303.292
1211.948,115.412,295.972
1363.228,86.864,322.324
1393.24,74.908,386.252
1304.912,67.344,533.384
1266.604,35.136,668.56
1365.668,-14.884,738.832
1458.632,-95.892,916.464
1374.452,-171.532,1126.304
1230.492,-232.776,1248.548
983.808,-242.292,1287.588
842.288,-218.38,1215.608
781.044,-206.424,1089.704
645.136,-201.544,935.984
524.844,-176.9,728.584
272.06,-98.576,539.728
2.44,-35.868,341.356
-36.112,-27.328,135.176
275.232,-4.148,-178.608
256.2,122.488,-488.488
-113.46,207.156,-538.02
-358.436,201.788,-597.068
-98.088,158.844,-847.656
288.164,268.156,-1210.972
215.94,267.424,-1165.1
-30.256,268.4,-1192.184
74.664,261.324,-1392.02
435.052,257.42,-1602.836
595.116,259.616,-1724.592
614.148,238.388,-1837.808
625.616,215.94,-1878.312
464.332,163.968,-1668.716
533.872,63.684,-1483.764
695.4,-72.956,-1358.592
859.368,-202.032,-1195.844
885.232,-196.908,-1005.28
597.8,-212.524,-776.408
596.58,-344.284,-504.592
870.592,-445.3,-301.34
936.716,-404.552,-128.1
706.624,-397.964,88.816
665.388,-423.828,240.828
1020.896,-462.868,315.492
1257.576,-450.668,466.772
1081.408,-467.992,634.644
1204.14,-532.652,757.62
1559.16,-528.748,731.268
1546.228,-488.488,769.088
1324.676,-496.052,885.476
1457.9,-535.336,940.864
1754.848,-522.648,745.42
1687.26,-551.44,699.548
1516.46,-573.156,735.416
1484.008,-598.776,709.796
1561.356,-663.436,500.932
1696.532,-727.364,328.18
1713.368,-759.816,214.964
1542.324,-758.108,102.48
1361.032,-777.14,48.068
1487.912,-773.236,-203.008
1591.856,-715.652,-540.46
1355.42,-620.736,-651.236
1017.236,-567.3,-632.448
975.268,-503.616,-667.828
955.26,-422.608,-725.412
890.356,-374.784,-660.752
907.436,-315.98,-563.884
828.868,-297.436,-465.552
961.604,-275.232,-343.308
1047.004,-216.916,-286.212
1008.208,-175.192,-226.676
929.884,-123.464,-169.092
960.872,-123.708,-70.76
1077.504,-39.528,-12.932
1120.204,-29.036,57.34
1128.256,57.34,93.696
1088.484,153.232,77.348
1057.252,113.704,109.312
970.632,153.72,156.404
938.18,290.604,101.992
959.164,389.668,90.768
936.228,452.62,114.436
783.24,503.128,150.792
611.952,581.696,182.756
618.296,709.796,61.732
560.468,782.752,-42.7
243.268,847.412,12.444
255.224,932.324,-36.844
321.104,943.06,-87.108
200.812,940.864,-21.228
133.956,945.012,0.244
31.72,945.744,17.324
76.616,952.576,-60.512
86.62,923.784,-74.908
-11.224,949.892,-21.228
-27.816,963.556,-19.276
4.636,985.028,-86.62
18.056,990.396,-125.416
38.552,969.168,-66.612
13.664,969.656,-13.664
-16.104,1002.84,-43.432
-10.492,1026.508,-86.376
-7.808,995.52,-73.932
-7.076,966.972,-31.232
-8.296,972.34,-7.32
-57.096,985.028,-29.524
-124.684,978.684,-26.108
-66.612,965.02,-69.784
-41.724,956.968,-85.156
-51.728,950.868,-50.996
-61.976,959.408,-46.604
-70.272,977.22,-70.516
-43.188,967.46,-52.704
-19.276,953.796,-29.768
-0.488,971.12,-70.516
-6.832,981.368,-84.424
-13.42,982.588,-53.192
-36.844,977.952,-32.208
-31.476,969.9,-37.332
-8.784,957.456,-31.72
25.132,963.8,-44.408
6.1,973.56,-25.62
-32.208,978.44,-11.956
-16.348,977.952,-37.088
-21.228,983.564,-48.556
-23.912,974.536,-34.16
45.384,999.668,-80.032
27.328,1004.06,-54.412
-7.564,988.444,-15.86
23.18,1007.72,-52.704
12.2,1001.132,-39.772
2.44,980.636,-22.936
47.58,988.932,-55.144
24.644,999.668,-47.092
37.82,990.64,-45.872
31.964,990.396,-49.288
-5.612,994.3,-40.016
28.792,1006.5,-59.536
31.232,999.424,-45.384
28.06,995.52,-55.144
22.936,997.228,-67.588
15.86,992.592,-53.68
19.276,983.564,-36.844
27.328,995.276,-44.652
36.112,1006.012,-56.852
38.552,997.716,-47.092
39.04,990.396,-40.26
44.652,986.248,-33.916
50.752,987.224,-31.232
44.408,990.884,-40.748
33.428,994.3,-47.824
20.984,993.568,-45.14
32.696,996.008,-55.876
42.456,996.74,-51.972
24.888,997.96,-36.6
23.18,990.396,-28.792
31.232,992.592,-41.48
50.996,993.568,-52.216
46.604,998.692,-44.652
31.476,1002.84,-37.332
38.796,996.496,-36.112
41.236,981.368,-23.668
50.752,979.66,-33.672
35.868,980.88,-41.236
35.624,981.612,-47.336
35.868,979.172,-20.984
48.068,983.076,-20.496
36.356,1000.156,-42.456
36.112,1002.352,-49.288
30.744,996.496,-31.72
29.768,1000.888,-30.012
53.924,1007.476,-46.604
46.36,1001.376,-32.452
34.648,1003.572,-24.888
30.256,1009.672,-42.944
29.036,1020.408,-73.444
43.92,1031.388,-107.36
-7.808,1072.38,-120.536
12.932,1073.112,-131.028
35.624,1092.144,-134.2
37.332,1086.532,-117.608
-22.204,1093.852,-96.868
20.496,1094.096,-126.88
70.516,1091.9,-153.232
53.192,1084.824,-93.94
49.044,1058.96,-22.936
71.736,1057.984,2.44
58.316,1061.644,20.252
77.348,1059.448,-22.692
83.936,1082.384,-81.496
45.628,1095.072,-89.304
9.028,1075.796,-61.976
-26.352,1051.884,-36.6
-67.588,1033.34,-5.856
99.308,994.3,-53.68
175.68,989.42,-79.3
101.016,1017.968,-29.036
59.048,1020.408,5.612
37.576,1020.164,1.22
85.644,973.316,5.612
171.288,933.788,-13.664
138.348,960.14,-42.7
36.6,985.272,-30.5
-17.568,982.1,-12.932
-25.132,970.144,-27.816
66.124,963.312,-82.228
87.352,952.576,-70.76
38.064,942.084,2.684
54.168,946.72,22.448
15.128,957.944,12.932
51.972,1013.576,-104.188
-13.176,1005.524,-99.064
60.756,982.588,-47.336
9.516,966.24,49.044
-26.596,940.376,92.476
14.64,941.352,32.696
7.32,952.82,-6.832
-12.688,953.308,6.588
-29.768,934.276,33.428
3.66,953.308,16.348
-34.892,1019.92,-45.384
-51.484,1006.256,-23.668
-27.816,960.14,30.256
-3.904,956.236,60.512
-12.932,955.016,80.764
-53.436,967.948,75.396
-66.612,962.824,66.124
-32.696,931.104,99.308
23.668,904.996,134.444
-54.9,909.632,149.816
-86.62,946.476,67.1
-89.304,957.944,17.324
-77.348,921.588,45.628
-83.204,885.72,83.936
-106.872,888.892,69.784
-135.908,894.748,41.968
-149.084,902.068,26.596
-147.376,908.9,16.836
-135.42,907.192,20.008
-104.432,916.22,1.708
-160.552,945.012,5.856
-156.16,963.8,-22.936
-133.956,973.072,-38.796
-143.716,974.292,-17.568
-153.964,976.976,13.664
-120.292,982.832,4.88
-114.68,996.74,-27.572
-152.5,998.692,-19.52
-160.796,992.592,18.788
-150.06,994.056,9.76
-141.276,1013.576,-36.112
-84.668,1049.688,-148.596
97.112,1033.34,-264.74
-21.228,1025.532,-137.86
-199.592,1023.58,-35.624
-127.124,998.936,-56.852
44.164,835.212,-26.352
227.408,758.596,-28.548
608.536,608.78,-132.004
627.324,575.352,-52.46
678.32,543.388,155.184
497.028,441.884,213.5
475.068,332.328,142.252
929.152,184.464,-9.76
1375.184,185.44,69.54
1393.972,227.896,11.956
1220.732,273.768,-160.552
1251.72,221.064,-168.848
1259.528,156.16,-73.2
1124.596,137.86,88.572
993.568,93.452,165.676
910.852,124.684,124.44
917.44,134.444,44.652
1017.48,125.904,27.328
1081.896,87.108,8.052
1071.16,64.172,39.772
1047.248,91.012,6.588
1148.996,104.432,-37.088
1183.156,74.908,-37.088
1170.468,37.576,64.172
1310.524,29.524,144.448
1349.808,13.908,198.372
1360.788,-1.952,289.384
1491.328,-43.188,458.476
1555.988,-136.884,728.584
1475.224,-200.08,986.492
1260.016,-247.66,1168.028
1049.688,-282.552,1386.652
971.852,-309.88,1452.776
870.348,-347.944,1429.84
652.456,-367.708,1297.104
388.448,-343.552,1083.116
121.268,-289.872,871.812
-171.288,-251.564,643.916
-134.444,-254.736,272.792
7.808,-193.004,-265.96
-30.5,-36.6,-747.372
-51.24,132.248,-1151.436
8.784,173.728,-1351.028
38.796,181.536,-1497.184
189.1,229.604,-1682.868
360.144,235.216,-1836.588
343.064,181.536,-1850.984
452.132,154.452,-1898.564
552.416,136.396,-1913.204
504.104,127.368,-1892.464
390.888,118.828,-1767.048
350.384,23.668,-1450.336
462.868,-197.396,-1074.332
661.24,-359.168,-819.596
591.944,-321.104,-651.236
410.896,-287.92,-480.436
538.02,-389.18,-249.124
910.364,-515.328,-27.084
976.732,-525.82,225.456
801.296,-534.604,481.412
848.144,-581.94,690.52
1150.216,-619.272,814.716
1419.104,-579.012,784.46
1520.12,-611.952,822.768
1536.224,-651.724,969.168
1468.88,-628.056,1048.712
1443.748,-587.064,958.92
1558.428,-678.564,867.664
1908.08,-723.216,619.272
2007.632,-672.464,386.252
1657.492,-723.948,375.516
1658.224,-841.068,349.164
1971.52,-889.868,133.468
1976.4,-919.88,-69.54
1678.476,-910.364,-232.776
1513.288,-848.388,-467.992
1410.076,-752.008,-702.232
1108.492,-609.268,-915.976
1096.292,-478.484,-955.26
1093.608,-384.056,-937.204
1035.048,-395.524,-647.088
851.316,-408.7,-452.132
507.52,-354.288,-531.676
646.356,-118.584,-508.74
982.344,-64.172,-398.696
1060.18,-24.888,-260.592
1245.62,-33.916,-147.864
1078.48,-87.352,-94.428
853.024,-10.004,-10.004
806.664,48.068,49.776
940.376,110.776,73.2
1013.576,213.256,15.128
997.228,256.444,-8.54
901.58,303.78,66.124
1004.304,342.576,9.76
966.24,422.608,-42.456
904.996,461.16,-20.74
777.384,507.52,44.652
670.268,568.764,84.424
658.068,641.476,59.292
702.476,701.256,-24.888
712.968,721.508,-62.708
459.696,753.716,70.272
407.724,790.072,40.016
468.48,860.588,-69.784
351.848,894.504,-62.708
302.804,908.168,-60.268
241.804,952.332,-83.936
247.904,967.948,-107.36
249.368,978.196,-116.876
227.896,963.068,-84.912
149.816,946.964,-9.516
165.676,940.62,-1.464
130.784,953.552,-21.472
61.488,966.484,-53.924
10.248,975.024,-59.048
5.612,974.536,-52.948
76.616,995.276,-99.308
20.984,982.832,-36.6
7.076,973.804,-10.004
23.912,979.416,-33.184
-12.688,977.952,-30.744
18.3,971.12,-54.412
10.98,976.0,-64.66
1.22,977.464,-62.952
-25.62,968.192,-34.404
-9.76,964.532,-28.304
27.328,976.0,-56.364
53.924,1002.596,-88.572
6.1,998.204,-55.632
14.884,980.392,-37.576
55.388,968.436,-36.356
40.748,962.58,-30.5
39.04,977.708,-68.808
31.72,980.392,-62.22
39.284,995.764,-68.076
32.208,1008.208,-61.488
50.264,998.936,-47.58
58.316,992.592,-38.796
65.636,1003.816,-50.264
58.316,991.128,-31.72
64.172,988.444,-25.62
45.14,998.936,-27.084
47.092,1002.352,-44.652
61.244,994.3,-42.456
46.604,987.224,-20.008
33.916,982.344,-16.592
66.856,978.44,-42.212
62.952,985.516,-53.436
53.924,985.76,-51.728
37.332,982.1,-40.016
41.48,984.052,-37.576
65.392,989.176,-44.896
68.076,992.836,-50.508
41.724,992.836,-45.14
26.352,988.2,-35.136
54.656,981.368,-28.304
72.956,986.98,-34.404
75.396,996.008,-46.36
53.436,990.64,-39.528
48.312,980.88,-32.208
37.088,975.268,-17.08
59.292,975.756,-34.16
83.692,993.08,-60.512
50.508,1003.816,-50.02
58.56,1000.888,-47.092
48.068,994.788,-31.232
53.192,990.396,-35.624
47.824,988.932,-38.552
73.2,998.692,-63.684
70.516,1000.156,-59.048
35.868,988.932,-23.424
40.748,994.056,-34.16
39.772,994.3,-55.144
50.508,1001.864,-76.616
53.924,990.152,-64.904
78.568,990.396,-70.028
55.876,983.808,-47.58
39.772,983.564,-47.336
28.06,1000.4,-65.148
48.068,1000.4,-81.74
81.984,1006.988,-92.232
55.388,1006.012,-68.808
76.372,1008.94,-74.42
74.908,1014.064,-69.784
51.484,1024.556,-66.368
54.412,1024.312,-68.564
57.34,1025.532,-68.32
48.068,1050.664,-91.012
29.28,1076.528,-141.764
16.592,1071.892,-152.256
22.204,1054.568,-120.78
85.156,1049.444,-103.456
112.728,1045.54,-83.204
72.956,1052.86,-76.372
33.184,1073.844,-117.852
-15.372,1072.868,-134.688
82.96,1054.568,-170.8
143.228,1069.452,-188.612
85.4,1086.532,-142.984
61.244,1087.264,-110.044
45.14,1077.504,-108.092
-0.488,1065.304,-96.624
59.048,1050.664,-121.756
121.268,1073.6,-180.072
86.132,1093.12,-173.728
56.364,1097.024,-143.96
28.792,1080.432,-121.512
-5.612,1061.888,-114.924
93.696,1018.7,-134.688
123.464,1019.188,-162.016
5.856,1036.024,-130.052
-9.028,1022.116,-102.236
0.488,1000.644,-73.444
82.96,955.016,-32.452
113.46,927.932,12.932
44.652,946.232,2.44
-20.984,994.544,-43.92
-20.252,1007.232,-78.568
-5.368,1002.596,-93.94
-1.464,989.176,-93.452
13.664,990.884,-79.056
-27.084,978.44,-12.2
-7.076,934.276,59.292
-4.392,901.336,79.056
-24.4,908.412,61.244
-60.024,927.2,36.844
-94.672,944.036,23.18
-67.1,989.42,-23.912
-78.324,972.096,25.62
-40.504,874.74,160.064
-25.132,855.22,186.66
-40.016,891.088,142.252
-61.976,875.96,171.044
-59.78,830.576,217.648
-25.62,815.936,230.58
-50.02,854.0,192.516
-110.776,867.42,165.92
-101.26,860.344,153.476
-96.868,858.636,151.036
-110.288,877.18,137.616
-90.28,889.868,97.112
-112.728,914.512,59.536
-146.156,937.936,33.428
-151.768,903.532,80.764
-151.768,882.304,128.832
-122.0,916.22,70.516
-138.348,969.412,-8.54
-165.432,991.616,-9.028
-157.38,963.556,46.116
-141.276,961.848,43.432
-143.472,976.0,-0.244
-151.524,994.788,-17.812
-147.864,996.008,-5.124
-122.732,991.372,3.416
-141.276,981.612,25.376
-168.848,970.876,26.352
-230.336,976.732,-7.564
-239.364,1003.084,-54.412
-135.42,1022.604,-123.952
-133.712,1018.944,-128.832
-111.752,1028.704,-109.556
-169.336,1007.232,-63.44
-254.98,1017.48,-68.076
-183.244,990.64,-140.3
-170.556,864.98,-139.08
-78.568,684.42,-98.576
226.92,440.42,-9.272
804.468,313.54,-177.632
1408.612,609.512,-666.12
1063.84,651.236,-405.772
866.688,487.268,16.836
844.972,354.288,192.516
903.044,328.424,71.98
1214.876,348.676,-4.636
1032.364,265.472,144.204
1055.544,211.304,249.124
1330.532,183.976,200.08
1381.04,142.252,346.724
1290.516,184.464,432.856
1328.336,202.52,523.38
1343.708,145.424,659.532
1534.76,84.912,783.728
1624.308,-18.544,968.436
1539.884,-129.32,1185.108
1377.38,-203.984,1277.828
1174.128,-265.228,1336.632
1193.648,-309.636,1268.556
982.1,-329.156,1096.78
580.964,-306.708,948.428
310.856,-274.256,781.044
161.772,-213.012,518.744
15.616,-93.696,211.792
-138.348,-100.04,73.932
-32.696,-100.528,-252.296
31.232,13.176,-663.192
-23.912,69.784,-841.556
-113.704,91.5,-1011.624
1.22,224.236,-1400.56
73.688,350.384,-1718.004
-8.052,393.572,-1775.344
-21.228,361.12,-1735.572
-98.576,372.1,-1703.852
-79.3,328.18,-1622.6
67.1,363.56,-1746.308
87.596,339.404,-1746.552
47.824,276.208,-1628.7
143.716,181.048,-1417.152
332.328,51.972,-1193.16
556.808,-81.74,-1018.456
670.268,-125.416,-912.56
480.68,-114.192,-696.864
406.992,-230.336,-403.82
715.896,-317.444,-300.608
1065.304,-346.724,-193.004
920.856,-381.86,63.684
812.032,-427.976,297.192
1134.356,-429.196,365.024
1316.38,-376.492,480.192
1308.816,-438.224,604.144
1519.388,-490.684,603.656
1799.988,-461.404,686.372
1704.34,-515.328,937.204
1743.624,-550.464,844.728
1952.0,-509.228,659.532
1814.14,-427.488,657.824
1636.264,-461.648,656.116
1890.024,-442.86,358.192
1931.504,-443.104,176.656
1886.608,-515.328,147.62
1821.216,-625.372,146.644
1721.176,-667.584,120.78
1614.548,-604.632,-74.664
1508.652,-491.66,-284.504
1619.428,-448.228,-496.54
1472.784,-405.528,-602.192
1119.716,-357.704,-567.056
937.204,-255.712,-603.412
798.368,-195.932,-609.268
630.252,-100.528,-663.436
856.196,-45.384,-618.784
1024.312,-82.716,-426.024
1218.78,-124.928,-245.22
1092.144,-113.704,-341.112
961.604,20.252,-459.94
1061.888,44.652,-433.588
958.676,26.352,-227.164
855.22,112.484,-103.212
987.224,249.124,-168.848
1058.472,384.3,-216.916
780.068,476.776,-89.304
635.132,651.236,-49.288
509.472,727.852,-24.644
361.608,871.324,66.124
175.924,905.484,156.648
259.128,926.712,118.584
413.58,936.96,-41.724
234.484,960.872,-86.132
136.152,940.864,-52.216
17.08,928.664,-12.2
158.844,929.884,-92.476
119.072,930.128,-89.548
4.88,894.504,-2.196
-18.3,880.596,1.708
-19.52,913.048,-93.94
-11.468,955.748,-186.904
-78.324,969.168,-149.084
-47.092,964.776,-69.296
-54.656,945.5,15.372
-49.776,933.544,34.16
56.852,937.936,-34.404
-38.552,967.46,-52.46
-189.344,964.532,0.732
-187.88,948.428,11.468
-97.356,956.236,-34.892
-16.104,984.296,-92.964
-102.968,955.748,-39.284
-87.84,946.476,-56.12
-132.004,956.724,-66.612
-73.688,965.996,-73.2
-73.2,958.432,-49.532
-27.572,957.944,-53.68
-29.768,970.876,-62.464
-20.008,961.604,-47.58
-52.704,960.14,-29.768
-88.816,957.456,-16.348
-21.716,975.268,-43.676
-7.564,984.296,-55.876
-39.04,998.204,-55.632
-22.448,994.544,-49.532
-21.96,981.368,-25.376
-16.104,992.592,-34.404
0.732,1014.552,-70.76
12.932,1007.476,-72.712
2.44,1005.036,-45.14
1.464,994.788,-21.472
11.468,987.468,-22.692
-4.148,984.784,-35.38
-9.028,1006.988,-56.608
12.688,1015.284,-72.712
-5.368,1004.792,-65.88
-10.248,967.704,-34.892
-3.904,951.844,-14.396
12.932,967.46,-35.624
12.688,984.54,-57.096
11.712,984.784,-57.828
7.076,982.588,-58.316
-15.616,980.636,-59.292
3.416,982.1,-70.272
-27.572,985.028,-57.828
-2.928,998.204,-80.032
50.264,1004.06,-94.184
46.116,995.52,-64.416
24.156,992.348,-47.824
1.952,1000.4,-58.804
5.612,1013.576,-77.836
39.284,1011.38,-99.796
33.428,1010.892,-114.924
2.196,1011.868,-119.804
-10.248,1009.184,-115.656
-17.324,993.324,-87.108
9.272,994.056,-92.72
5.612,981.612,-91.256
2.928,971.608,-77.104
-2.928,971.852,-73.932
-9.76,977.464,-72.468
8.54,961.848,-50.508
41.724,946.964,-16.592
58.804,966.972,-29.768
26.352,985.516,-46.848
-4.636,990.884,-61.0
-10.004,997.716,-76.128
28.304,999.18,-74.908
29.28,997.228,-37.82
29.768,1006.256,-35.38
33.672,1011.38,-42.944
30.744,1005.28,-38.064
16.104,999.912,-29.768
29.524,995.032,-50.264
25.376,993.568,-63.196
8.54,990.884,-53.68
4.636,988.688,-45.872
4.88,985.76,-42.212
14.884,994.788,-61.244
56.608,1006.744,-110.044
31.72,997.96,-96.868
9.76,983.32,-64.172
23.912,980.148,-63.196
31.232,978.196,-63.928
53.68,966.972,-69.784
26.84,969.9,-80.032
17.568,993.08,-113.46
22.448,1000.644,-127.612
0.976,994.056,-108.092
-23.18,999.18,-118.34
18.788,1003.572,-150.304
41.968,1004.06,-124.684
17.812,1008.696,-71.492
22.204,1015.772,-68.564
36.356,1023.824,-97.112
43.92,1032.608,-124.196
21.96,1035.536,-131.272
34.404,1023.336,-137.616
14.64,1001.132,-106.384
14.152,974.048,-75.884
36.6,952.82,-61.244
109.312,961.116,-72.468
64.904,971.364,-48.8
27.816,977.464,-39.284
28.06,994.544,-59.292
41.968,991.128,-44.408
55.876,972.828,-27.084
82.228,974.048,-61.0
57.584,993.812,-101.992
1.952,996.74,-79.788
0.0,988.932,-59.78
33.184,979.416,-25.864
50.264,971.852,4.392
54.9,993.568,-26.108
0.488,1021.14,-64.172
-18.788,1013.088,-79.3
-19.52,986.492,-55.632
-12.688,970.632,-11.224
12.688,964.288,16.104
34.16,977.708,-12.444
27.572,1001.376,-47.824
-0.244,991.616,-39.772
18.056,961.116,-16.348
62.22,949.648,-12.2
85.156,948.916,-2.196
40.748,954.528,16.836
15.86,974.048,6.1
5.124,994.788,-23.668
33.672,1009.672,-75.884
28.548,1001.376,-98.088
18.056,1001.376,-93.452
-21.228,1004.548,-35.38
-8.052,1011.136,1.22
37.576,1008.696,14.152
84.668,1004.548,10.492
111.996,1028.216,-22.692
83.936,1042.612,-53.68
22.448,1030.656,-46.116
6.588,996.496,-36.112
19.764,975.756,-64.172
13.176,980.392,-118.096
-6.588,973.072,-132.736
-14.884,961.604,-111.264
19.52,945.5,-96.136
66.856,938.424,-73.444
50.264,947.696,-36.844
12.2,980.392,-66.124
-22.204,1013.332,-127.612
-25.62,1023.824,-155.428
7.808,1023.092,-153.72
48.068,1025.532,-146.4
58.072,1017.48,-128.1
21.472,997.716,-106.628
-7.808,967.704,-104.676
-33.184,954.528,-112.728
-25.132,957.7,-128.344
-23.912,976.0,-150.304
3.66,998.936,-175.68
0.488,990.152,-156.648
3.416,969.412,-146.888
24.888,946.476,-132.248
58.072,936.228,-122.488
54.412,953.308,-142.496
17.568,973.072,-136.64
11.712,972.828,-96.38
36.844,974.78,-75.64
37.82,993.08,-84.424
18.788,1018.944,-95.892
30.256,1012.844,-75.884
47.824,1005.28,-43.188
72.712,995.52,-20.74
64.416,1010.648,-28.792
36.112,1027.24,-69.784
-0.976,1030.168,-89.548
-17.08,1013.576,-69.296
17.324,982.1,-31.476
59.292,973.072,-20.984
56.852,978.44,-9.516
33.672,968.924,20.496
22.692,968.192,28.792
17.324,987.956,-12.688
-5.856,1005.768,-37.82
0.0,1012.844,-49.776
-4.636,1007.72,-35.38
10.98,1002.596,-29.28
22.204,999.912,-28.548
24.644,990.396,-23.18
25.864,982.344,-11.956
4.636,979.904,-0.976
20.008,986.004,-29.524
17.568,1003.572,-60.024
-6.344,1007.72,-63.928
0.488,1000.888,-54.412
-8.052,989.664,-29.28
16.348,986.736,-35.136
31.476,1000.888,-64.66
-8.54,1016.016,-71.248
-26.352,1014.064,-77.104
-22.448,1001.376,-68.32
9.272,998.204,-62.22
22.204,1002.596,-67.832
-13.908,1017.968,-78.812
-35.868,1024.556,-84.668
-36.112,1041.636,-102.48
-32.696,1060.18,-133.712
-45.14,1085.068,-169.58
-54.168,1088.728,-168.604
-54.656,1097.024,-163.48
-60.512,1113.372,-169.092
-62.708,1110.688,-158.6
-62.22,1126.06,-183.732
-81.74,1142.652,-217.16
-90.036,1141.432,-214.964
-69.296,1114.348,-181.292
-50.264,1095.072,-163.236
-49.532,1075.308,-139.568
-62.22,1061.156,-123.464
-110.288,1062.864,-127.124
-164.7,1067.012,-159.82
-143.228,1061.888,-199.592
-85.888,1053.592,-220.088
-99.796,1054.568,-199.348
-108.092,1040.416,-169.336
-106.628,1038.708,-144.692
-125.172,1019.188,-101.992
-117.12,998.448,-91.5
-97.112,981.612,-77.592
-92.964,967.46,-59.78
-121.512,954.772,-46.604
-152.012,920.612,2.196
-125.416,844.484,103.944
-111.264,815.204,148.108
-151.768,829.356,141.032
-145.912,818.62,122.976
-130.54,803.98,120.536
-175.436,779.824,154.208
-192.272,784.948,133.468
-203.008,785.436,122.732
-254.736,790.072,118.584
-278.16,807.396,70.76
-330.132,856.196,-12.932
-426.268,890.844,-52.46
-519.72,936.472,-87.352
-498.492,986.248,-185.44
-489.952,958.676,-157.38
-497.516,938.18,-102.724
-334.524,917.196,-279.868
-166.896,826.916,-253.516
-185.44,667.096,65.636
-110.776,507.52,259.616
209.108,237.9,67.588
991.128,220.576,-135.42
1267.092,479.704,-234.728
940.62,428.708,17.324
956.724,336.964,146.156
1064.084,279.868,53.68
1325.164,214.476,106.14
1424.96,184.22,164.7
1428.62,110.776,346.968
1552.084,16.348,488.732
1571.604,-44.164,639.036
1513.288,-73.932,819.596
1371.768,-120.048,1048.224
1283.196,-171.532,1216.584
1402.024,-260.836,1304.912
1366.888,-321.836,1379.332
1018.212,-365.268,1499.136
712.48,-383.324,1485.716
589.504,-348.92,1248.304
567.3,-376.004,1025.288
380.396,-363.072,825.94
191.296,-344.04,560.712
-125.904,-313.784,241.804
-331.108,-224.236,-111.752
-254.492,-74.42,-552.416
-135.176,11.956,-895.48
-173.24,56.608,-1133.38
-222.04,161.04,-1387.628
-40.748,177.632,-1510.848
133.712,260.592,-1788.764
119.804,303.048,-1937.604
34.648,325.74,-1972.74
50.996,307.928,-1947.852
252.296,293.532,-2010.804
365.756,288.164,-2029.592
286.7,193.248,-1846.104
298.656,76.372,-1642.852
367.952,-44.896,-1326.384
529.48,-171.288,-1016.748
651.724,-298.656,-750.544
739.32,-354.776,-539.24
784.704,-359.168,-338.672
911.096,-455.548,-24.4
1102.88,-479.704,137.86
1078.236,-435.052,246.684
875.228,-467.26,576.328
1175.592,-465.064,630.008
1750.944,-415.532,485.072
1833.904,-397.232,594.628
1492.304,-464.82,854.732
1565.26,-438.956,934.52
1892.464,-351.848,683.444
1907.348,-338.672,555.832
1703.608,-317.688,586.576
1806.82,-307.196,490.928
1947.12,-375.028,315.736
1956.148,-402.6,188.368
1819.02,-437.736,162.016
1726.788,-514.84,177.632
1767.292,-553.392,72.468
1820.728,-589.016,-158.844
1692.872,-642.452,-395.036
1458.388,-631.228,-499.224
1025.044,-572.18,-598.532
764.696,-427.0,-701.012
784.216,-253.272,-902.8
968.436,-115.656,-1007.232
958.432,-77.836,-841.556
858.88,-78.812,-670.268
765.916,-45.14,-539.24
881.084,60.268,-519.232
989.42,139.568,-427.732
1058.716,161.772,-250.1
1148.508,214.964,-210.572
1209.996,205.448,-132.492
1112.884,222.284,12.444
942.572,337.94,85.888
908.656,437.004,94.428
931.592,520.94,68.808
824.476,543.632,89.06
746.396,662.46,-8.296
707.356,741.028,-168.848
446.276,752.008,-99.064
414.8,731.268,-38.064
427.732,764.208,-34.648
244.976,798.124,13.664
104.92,861.076,-1.22
40.016,874.008,-71.004
39.528,879.376,-96.624
47.824,908.168,-97.356
38.308,954.528,-105.408
2.684,966.24,-90.768
-17.324,950.38,-45.628
19.764,946.232,-47.092
48.068,981.612,-111.02
44.408,972.096,-99.064
87.352,951.356,-34.892
42.212,965.264,-16.836
2.196,992.592,-51.24
23.424,991.372,-78.812
73.2,979.172,-104.92
77.348,975.756,-90.768
48.312,952.82,-11.712
36.356,963.312,-20.496
29.768,998.692,-71.492
40.748,989.42,-84.424
29.036,980.392,-59.78
23.668,986.736,-67.344
26.596,980.392,-63.44
25.132,985.516,-44.164
74.42,993.08,-59.048
99.552,1004.548,-87.84
86.62,1001.376,-76.372
42.212,970.876,-20.496
38.796,965.996,-12.2
63.684,965.02,-39.528
93.452,978.44,-76.616
48.8,987.224,-80.276
43.188,987.956,-83.936
30.744,972.828,-52.704
46.36,959.408,-29.768
72.956,967.46,-39.528
85.4,983.32,-61.732
79.544,995.764,-62.952
57.34,1003.084,-53.436
67.344,1010.892,-72.224
56.608,995.276,-59.78
46.604,980.392,-35.136
65.88,976.976,-29.28
92.232,978.684,-28.792
108.58,996.74,-46.604
87.596,1003.084,-49.532
66.368,989.908,-28.792
69.296,984.54,-32.696
80.52,993.568,-65.148
72.224,1001.62,-73.932
72.712,996.74,-54.656
73.2,985.516,-41.968
89.548,986.004,-50.996
72.712,991.616,-55.388
67.832,993.324,-51.728
86.132,991.372,-58.316
65.392,995.764,-56.364
65.88,999.18,-59.048
80.032,996.984,-60.024
101.992,1001.62,-69.052
85.644,998.936,-47.092
88.572,995.032,-44.408
76.128,995.276,-49.044
62.464,992.836,-58.316
57.584,988.688,-56.364
74.908,991.616,-57.584
93.452,995.52,-60.512
99.064,992.836,-50.264
94.916,992.104,-47.824
74.176,991.616,-48.068
60.268,989.42,-43.92
69.052,994.3,-55.876
94.184,996.252,-73.2
94.184,998.448,-84.912
61.488,990.396,-63.684
50.02,987.956,-53.924
58.56,990.64,-53.436
71.004,989.42,-59.048
81.008,994.788,-69.784
68.076,998.692,-70.516
75.884,999.912,-62.464
77.836,989.42,-46.116
78.08,981.612,-30.012
90.524,978.928,-35.868
82.716,988.932,-43.92
72.956,996.008,-61.976
59.048,997.96,-66.856
56.12,1005.28,-62.464
63.44,1001.62,-50.264
74.664,1004.548,-64.416
64.416,1012.844,-90.524
51.484,1008.94,-87.84
52.46,1000.644,-68.564
53.436,996.496,-63.44
76.128,997.96,-82.228
71.98,997.96,-83.448
56.12,991.86,-74.176
51.728,992.592,-77.348
50.996,997.96,-86.864
56.364,998.692,-91.988
55.144,999.18,-90.524
37.332,1000.4,-79.544
38.796,1006.256,-89.792
49.044,1008.208,-105.652
41.48,1015.528,-123.22
18.3,1027.24,-132.98
21.472,1025.288,-131.516
38.064,1025.532,-125.904
23.424,1021.384,-101.504
26.108,1009.428,-84.668
33.428,1002.84,-83.936
28.06,1007.476,-104.432
3.904,1020.652,-127.124
-19.764,1029.924,-135.664
-17.324,1027.728,-138.836
-11.468,1011.136,-139.812
51.484,955.748,-104.92
45.14,949.648,-69.784
-4.636,962.824,-47.336
16.592,979.416,-72.956
28.06,986.248,-76.86
50.508,1002.84,-99.064
31.72,1017.236,-114.192
-27.328,1037.0,-138.104
-49.044,1055.056,-174.216
-25.376,1066.524,-186.66
-13.664,1056.764,-169.092
11.224,1042.856,-145.668
-4.88,1024.312,-123.952
6.1,1011.136,-120.536
-19.276,1001.864,-80.032
-5.612,999.18,-70.028
21.472,975.024,-51.728
29.524,955.016,-4.636
40.016,929.64,45.14
-3.66,967.948,26.108
-20.252,1008.696,-38.064
-10.248,991.616,-27.572
40.504,959.408,3.416
42.944,936.228,21.472
7.808,969.168,-9.516
8.052,1018.212,-56.364
83.204,1009.184,-45.872
107.848,988.444,-3.172
53.192,1001.132,6.832
36.844,1024.8,-55.144
0.488,1041.636,-101.26
10.98,1003.328,-76.616
19.52,968.192,-22.936
22.204,980.88,-38.064
-1.952,972.34,-53.192
-7.076,968.924,-62.464
-21.228,962.336,-46.116
-8.54,962.824,-40.748
1.708,966.24,-49.776
-40.016,974.78,-66.856
-74.176,975.024,-70.516
-65.88,965.752,-54.9
-54.412,968.68,-57.34
-77.592,980.88,-81.74
-97.112,993.08,-115.9
-99.064,1005.036,-116.388
-88.084,987.712,-80.52
-61.244,972.584,-43.188
-63.928,964.044,-15.86
-89.06,966.24,-24.156
-113.46,973.804,-45.872
-111.02,982.588,-55.876
-87.108,975.268,-37.088
-80.52,973.804,-10.98
-68.32,973.072,-12.444
-84.424,957.944,-5.124
-91.012,943.792,20.008
-86.132,928.176,42.944
-87.596,947.208,10.492
-106.14,972.828,-48.556
-123.22,955.992,-32.208
-148.352,914.756,50.996
-111.752,907.68,46.848
-95.16,938.18,-40.748
-133.224,953.796,-73.688
-165.676,947.94,-61.488
-162.504,930.128,-43.92
-148.352,924.76,-29.28
-152.988,920.856,-17.324
-146.644,926.712,-26.108
-140.056,917.44,-24.156
-160.308,912.316,-3.172
-160.308,932.568,-20.74
-125.172,961.36,-72.224
-142.008,985.76,-98.576
-171.776,992.592,-88.084
-182.512,980.148,-60.268
-169.824,975.024,-66.856
-193.736,961.116,-52.216
-231.068,962.824,-39.528
-210.328,973.072,-63.196
-96.868,986.98,-116.632
-23.424,992.836,-171.532
-56.364,991.128,-141.032
-193.004,1049.688,-137.616
-277.672,1053.104,-175.192
-300.608,1045.052,-192.76
-157.38,990.396,-203.74
-143.716,965.264,-199.104
-51.728,863.272,-240.584
-48.312,747.372,-143.228
91.988,528.504,-7.076
585.6,305.976,14.64
1045.052,309.392,-99.796
1260.26,370.148,-211.792
1112.152,434.076,-111.02
1076.04,389.912,13.42
1014.552,257.42,220.82
887.672,157.624,394.792
1020.896,165.188,274.012
1180.716,177.632,187.148
1236.104,154.696,264.252
1378.356,145.424,274.5
1431.792,141.764,339.404
1464.976,112.24,429.928
1483.032,37.82,556.076
1502.552,-16.592,683.688
1445.7,-34.648,780.556
1390.556,-72.468,891.82
1347.612,-120.292,1059.204
1279.048,-170.556,1155.096
1132.16,-224.236,1239.032
992.592,-295.484,1290.028
822.28,-320.616,1226.832
575.108,-324.764,1132.892
397.72,-336.964,965.264
330.132,-331.596,720.044
74.908,-301.096,458.232
-172.02,-190.808,183.976
-166.164,-117.364,-59.048
-165.676,-43.188,-444.568
-133.468,3.416,-711.992
-190.32,17.324,-757.62
-148.352,73.444,-968.68
68.32,178.364,-1329.8
-17.324,268.888,-1520.12
-138.592,253.028,-1496.696
-22.204,226.92,-1590.148
113.704,288.408,-1826.828
-24.4,334.28,-1907.592
-189.588,273.768,-1773.88
-130.296,188.368,-1671.4
221.796,108.336,-1682.38
436.76,-15.86,-1544.52
471.652,-98.576,-1300.032
541.192,-143.716,-1132.648
642.208,-169.824,-1002.352
685.884,-241.56,-727.12
902.556,-368.44,-423.34
1208.288,-365.268,-302.804
1179.984,-343.308,-56.364
1175.348,-386.008,171.288
1440.088,-423.828,327.448
1720.932,-399.428,476.532
1781.932,-334.036,589.26
1747.04,-290.116,612.44
1793.156,-257.664,556.32
1807.796,-229.604,526.796
1653.588,-227.896,606.584
1507.92,-228.872,624.396
1537.932,-255.712,543.388
1629.676,-217.404,298.168
1647.488,-196.176,92.964
1595.028,-240.584,47.58
1736.06,-302.072,-77.836
1842.2,-330.376,-227.896
1719.956,-446.764,-233.508
1628.456,-517.524,-305.976
1524.024,-500.688,-466.04
1331.752,-468.236,-595.848
1171.2,-460.184,-694.668
1057.252,-376.004,-830.82
962.824,-311.344,-947.452
843.996,-246.44,-979.416
617.808,-191.54,-974.292
578.768,-162.26,-863.76
628.544,-96.624,-792.268
702.232,-57.34,-669.048
656.848,-20.008,-601.948
545.096,24.4,-538.264
725.656,50.264,-376.248
909.144,87.596,-279.868
1089.704,112.24,-257.664
1104.1,132.736,-174.46
1071.404,149.816,-64.904
1116.544,205.204,-8.54
1240.252,266.692,-58.56
1274.412,372.588,-153.964
1081.164,382.836,-111.02
823.988,430.416,49.776
748.104,514.108,56.852
748.592,613.172,-54.656
719.8,648.308,-59.292
741.028,692.472,-74.42
534.604,723.704,16.348
431.636,785.68,-0.976
499.468,826.672,-129.076
397.964,835.944,-94.184
395.28,832.528,-31.964
376.98,868.884,-29.768
258.396,930.372,-94.184
180.804,974.536,-165.676
125.904,957.944,-158.844
121.512,976.976,-160.308
133.712,1005.524,-155.184
145.18,991.372,-113.46
134.932,963.556,-85.888
43.432,962.336,-108.092
-27.572,980.392,-162.26
-46.848,975.512,-170.556
-4.148,966.484,-182.024
-9.516,946.476,-119.316
-4.148,930.616,-71.98
-68.32,932.568,-39.04
-97.112,949.892,-82.716
-94.672,950.624,-88.084
-66.124,936.472,-68.076
-42.7,962.336,-118.828
-66.368,984.784,-127.856
-57.828,970.388,-78.812
-60.512,955.748,-30.988
-24.888,967.948,-71.736
41.968,997.716,-139.568
-6.344,990.884,-102.968
-35.624,977.708,-55.632
-78.568,987.956,-37.088
-49.044,983.808,-52.46
51.728,995.52,-117.608
19.276,980.148,-76.86
-5.612,965.508,-37.332
-56.852,975.024,-17.324
-37.82,984.784,-45.628
28.06,978.44,-77.836
17.08,983.564,-76.86
-42.456,1004.548,-78.812
-67.588,1004.792,-64.172
-50.996,976.732,-29.28
-21.716,964.044,-32.94
-0.488,978.928,-80.276
-42.456,985.516,-69.54
-46.116,987.956,-58.316
-36.844,989.176,-63.928
-22.448,986.004,-76.616
5.612,976.488,-84.424
-15.372,976.976,-56.364
-45.872,983.32,-52.704
-27.084,1000.888,-97.6
-41.236,997.228,-80.764
-24.4,977.22,-53.68
-14.396,983.076,-65.88
-39.284,992.348,-63.928
-3.904,994.3,-80.276
-7.076,990.152,-61.732
-19.276,981.124,-50.996
-25.62,976.244,-56.608
-31.964,971.364,-64.172
-56.608,978.928,-62.952
-33.428,994.788,-84.912
-11.224,1003.328,-90.28
-10.248,1012.356,-85.156
3.66,1016.992,-87.596
-6.344,1012.844,-81.74
-25.62,1024.312,-95.404
-27.084,1030.412,-117.852
-23.18,1031.876,-124.684
-45.872,1039.196,-120.78
-37.82,1025.532,-98.576
4.392,1016.992,-99.796
-14.152,1058.472,-165.188
-47.336,1072.136,-197.152
-40.504,1062.62,-162.748
16.348,1012.6,-93.696
47.092,1002.596,-53.436
16.592,1034.072,-63.196
-19.764,1100.44,-133.224
-16.348,1122.156,-160.308
37.82,1101.172,-138.348
50.996,1072.624,-87.108
30.012,1061.644,-58.804
-15.128,1068.476,-88.572
-91.988,1095.56,-139.08
-107.848,1081.652,-166.896
66.124,1037.244,-195.444
121.024,1016.26,-164.7
71.736,1034.804,-152.5
3.172,1062.376,-173.972
-48.8,1069.94,-218.38
-56.12,1042.124,-224.724
69.052,998.448,-252.784
47.824,999.912,-227.408
24.4,989.908,-149.816
20.496,985.028,-91.012
-40.992,1006.012,-76.616
21.472,1011.868,-145.668
71.98,1001.376,-160.064
40.992,952.088,6.1
32.452,932.812,76.86
15.128,970.144,21.228
11.956,985.516,-29.768
64.172,972.096,-50.996
-24.4,953.552,-22.936
-6.588,920.612,47.336
30.256,915.488,88.816
63.44,939.4,48.8
3.66,959.896,26.84
-18.056,976.0,-10.004
-26.84,994.3,-49.044
12.932,983.808,-54.656
34.892,966.728,-8.54
-3.66,945.988,55.632
-33.184,962.336,14.396
-53.436,975.268,-59.78
-71.248,956.48,-54.412
-54.168,936.716,-43.188
-35.136,903.776,10.004
-41.968,888.16,80.032
-56.852,925.248,24.4
-75.152,944.036,-32.94
-65.636,922.808,-32.696
-67.588,895.724,-2.44
-59.536,903.044,11.712
-80.764,928.176,0.488
-84.668,937.448,-7.808
-80.764,916.952,15.616
-74.908,918.904,-1.952
-86.376,919.88,-3.904
-116.876,907.68,34.404
-101.748,915.488,27.328
-96.38,904.508,41.48
-61.244,905.24,43.676
-79.056,937.936,29.524
-91.5,965.264,1.708
-102.968,963.312,3.66
-87.596,982.344,-38.064
-82.96,987.712,-48.8
-99.308,981.124,-5.856
-107.36,981.368,26.596
-123.464,992.348,14.884
-172.508,985.272,22.204
-194.224,974.536,21.228
-142.74,986.004,-27.328
-182.024,1008.696,-91.012
-304.024,1062.864,-153.232
-294.996,1092.388,-231.312
-184.708,999.668,-195.688
-257.664,841.556,-26.352
-441.152,667.096,14.884
-175.68,355.02,-79.788
306.464,69.54,-86.132
817.156,-89.06,86.864
1021.628,-118.828,214.476
1204.628,124.196,13.908
1256.6,258.884,-298.412
1250.5,265.472,-475.312
1470.344,162.504,-376.248
1599.908,11.224,-182.756
1559.892,-56.364,24.156
1327.848,-102.968,215.696
1133.38,-109.556,457.988
1177.056,-162.26,657.336
1638.46,-296.948,789.828
2018.856,-395.524,934.52
1963.712,-432.368,1119.228
1670.668,-407.968,1290.516
1285.392,-408.7,1440.82
1091.9,-455.792,1536.956
931.104,-529.48,1528.416
616.1,-521.672,1414.956
417.484,-476.532,1140.212
275.476,-446.032,917.928
194.224,-429.44,694.668
6.1,-382.104,456.28
-288.896,-283.772,201.544
-644.648,-92.964,-211.792
-643.916,43.676,-568.276
-511.18,134.2,-981.856
-322.08,215.94,-1221.22
-286.7,176.9,-1256.112
-228.872,203.008,-1495.72
83.936,217.648,-1730.936
63.928,197.152,-1850.008
127.856,206.18,-2044.964
251.32,166.652,-2146.712
340.868,95.648,-2076.44
302.804,31.964,-1967.372
248.88,-16.348,-1871.968
216.672,-37.332,-1787.056
219.112,-142.984,-1617.72
428.708,-395.28,-1242.204
648.552,-619.028,-885.476
725.168,-654.408,-579.012
643.916,-747.372,-224.236
829.844,-804.468,88.328
1288.32,-886.696,301.584
1563.308,-841.8,489.708
1404.464,-814.96,731.024
1265.384,-802.272,1015.284
1357.86,-738.1,1069.208
1516.216,-593.896,841.312
1534.76,-577.548,797.636
1598.932,-587.796,876.204
1642.364,-559.004,791.536
1482.056,-571.204,707.6
1607.716,-525.82,536.068
1835.612,-517.768,397.964
1833.904,-618.54,317.932
1874.408,-757.376,355.02
1797.304,-835.944,409.676
1787.3,-946.476,354.044
1884.412,-1020.652,123.22
1777.54,-958.92,-189.588
1538.42,-878.4,-520.94
1222.928,-766.404,-786.656
1043.344,-649.772,-962.336
832.528,-489.464,-1095.072
809.592,-366.976,-1111.908
667.584,-261.324,-1112.152
756.156,-238.876,-899.384
752.252,-249.612,-654.652
860.1,-259.372,-423.828
903.532,-240.34,-338.184
781.044,-143.472,-353.8
794.952,-22.692,-351.116
986.248,-10.492,-160.308
1112.396,-45.872,20.984
1165.1,-47.336,135.176
1063.84,-17.08,214.232
1022.36,58.072,216.916
1089.216,164.7,102.724
986.736,255.468,76.372
921.1,371.124,-28.548
906.46,417.484,-40.504
924.516,443.836,46.848
927.444,450.424,55.388
785.68,507.276,85.644
785.68,552.904,39.772
820.816,573.4,-3.904
785.68,604.144,18.788
696.62,652.944,64.904
670.024,726.144,10.004
550.708,799.832,-48.068
420.656,794.952,-13.176
413.092,813.252,-40.504
469.7,875.96,-106.872
335.256,918.416,-93.94
259.128,957.7,-119.072
169.092,932.08,-76.616
132.736,919.148,-70.028
174.704,967.216,-147.132
151.036,976.0,-122.732
19.032,965.996,-65.392
-18.788,957.212,-63.684
15.372,966.24,-112.24
-1.708,963.312,-124.196
33.672,985.028,-169.58
-27.084,983.564,-142.008
-49.288,968.192,-96.136
-77.592,966.972,-85.4
-21.228,978.928,-126.636
72.468,969.656,-148.596
70.272,951.112,-93.696
13.908,945.744,-26.596
-61.488,951.6,-11.956
-83.692,963.068,-30.744
11.468,963.556,-104.432
123.708,988.932,-198.128
38.552,979.172,-72.712
-28.548,962.092,11.712
-3.416,975.024,-25.376
40.504,965.02,-62.952
43.92,962.824,-64.416
17.812,967.46,-76.128
8.296,984.052,-104.676
-0.732,988.932,-85.888
15.616,972.584,-58.072
24.888,959.896,-32.452
49.288,969.412,-53.192
39.772,970.632,-53.924
44.896,974.048,-65.88
48.312,973.804,-71.492
11.712,976.0,-59.048
35.624,986.248,-84.668
15.86,981.368,-62.952
52.216,991.86,-72.468
78.08,1012.844,-96.136
41.48,1020.164,-85.156
19.52,1014.552,-83.936
8.54,1010.16,-79.788
25.376,996.984,-78.812
69.784,993.568,-85.156
88.572,995.764,-69.784
62.952,1006.256,-57.34
49.532,1007.72,-65.148
39.04,1002.352,-61.244
58.56,1003.084,-76.86
60.268,1002.84,-90.28
47.58,993.812,-87.84
41.236,990.64,-71.492
37.332,985.76,-62.708
38.552,979.172,-57.828
30.5,976.488,-63.44
31.72,989.176,-85.888
40.992,998.448,-95.648
50.264,1000.888,-87.84
61.244,995.764,-77.592
69.784,988.688,-73.688
60.512,980.88,-54.9
78.08,978.44,-62.22
47.336,977.708,-50.02
31.232,989.176,-70.76
35.868,1000.888,-97.112
40.016,1003.816,-96.38
43.676,1005.28,-92.72
40.992,1005.524,-101.016
26.352,1006.744,-99.064
18.3,1008.208,-91.744
41.48,1011.624,-105.164
40.26,1014.796,-109.068
33.916,1000.888,-101.016
42.212,995.276,-95.16
36.112,983.564,-75.396
25.864,995.032,-93.94
31.72,1012.6,-123.22
51.24,1009.916,-117.12
66.124,1009.184,-96.38
36.6,1002.84,-93.452
39.772,1008.208,-127.124
25.376,1015.772,-150.06
16.836,1020.896,-152.744
11.468,1023.092,-137.616
33.672,1020.652,-128.344
49.044,1024.8,-145.18
58.072,1031.144,-157.868
21.716,1029.68,-140.056
17.812,1040.904,-154.452
12.2,1042.856,-170.068
31.232,1025.044,-155.672
35.624,1015.772,-128.1
25.62,1015.284,-113.704
19.276,991.86,-98.576
-2.44,993.812,-97.112
-8.54,1018.456,-146.156
2.684,1048.712,-202.276
8.052,1050.42,-183.732
5.368,1044.32,-130.296
66.856,1025.532,-118.096
61.0,1003.816,-62.952
99.552,987.224,-19.032
102.236,995.276,26.352
82.716,1012.6,42.7
89.06,1023.336,39.284
101.504,1030.9,23.912
153.72,991.86,61.732
173.484,961.116,135.664
134.932,969.9,155.184
135.42,998.204,114.924
125.416,1003.572,81.984
120.048,995.276,65.636
102.236,1002.84,40.016
67.1,1031.388,19.276
65.636,1046.272,6.832
54.9,1032.852,40.016
97.356,1010.404,38.796
129.808,1010.892,2.928
88.084,1010.16,32.696
78.324,991.86,74.42
67.832,972.096,97.6
41.968,971.364,89.548
40.748,982.832,39.284
44.896,1002.596,2.44
25.62,1012.356,11.468
50.02,1012.844,23.18
30.744,1000.888,56.364
39.528,994.056,56.364
29.036,998.936,22.692
19.52,1022.116,-33.916
-13.42,1034.072,-49.288
-39.284,1017.48,-14.64
-57.34,996.496,16.348
-33.672,977.464,18.544
-19.276,950.38,42.456
-55.876,942.572,76.86
-87.596,939.156,78.812
-88.328,913.78,75.884
-68.808,894.992,73.932
-59.536,905.728,20.496
-101.26,945.988,-18.056
-106.384,952.82,-9.76
-90.036,934.276,29.28
-74.908,907.68,37.332
-8.296,876.448,39.04
-15.616,848.632,96.624
-61.488,840.58,133.712
-90.036,830.576,143.228
-93.696,824.72,141.032
-61.0,822.768,117.364
-42.944,854.0,76.86
-99.796,888.648,63.196
-169.58,932.08,63.684
-141.764,954.772,39.528
-90.524,971.852,-5.612
-54.412,965.264,2.684
-29.036,963.312,25.132
-82.228,976.0,25.376
-114.436,1012.844,-30.744
-186.66,1031.876,-22.448
-253.272,1030.656,-13.176
-333.548,949.16,-18.788
-201.3,768.112,-92.476
296.948,531.432,-136.884
473.848,361.12,-8.052
708.088,255.224,49.288
1175.836,292.8,-61.0
1068.964,393.816,-125.172
938.668,303.78,16.592
1068.72,206.912,132.248
1164.612,226.188,31.476
1256.112,249.124,-103.7
1234.152,197.884,-48.068
1133.38,147.62,79.788
1123.62,136.884,129.076
1204.628,114.436,203.496
1298.812,94.428,159.088
1338.584,67.1,210.328
1308.816,68.076,306.22
1434.964,39.772,362.828
1522.56,33.184,446.032
1563.064,11.712,520.208
1529.392,-26.352,694.18
1518.656,-86.132,808.128
1536.956,-167.384,965.752
1397.388,-258.152,1137.772
1168.028,-340.868,1278.072
913.536,-344.284,1297.104
772.504,-325.74,1157.292
615.124,-293.776,994.056
452.376,-278.892,795.44
220.82,-202.276,556.076
43.676,-193.492,419.436
-63.44,-166.408,223.748
-358.436,-80.764,-197.64
-360.144,24.644,-417.24
-233.752,39.772,-644.404
-171.532,109.068,-977.708
-51.484,126.148,-1122.888
-102.236,165.432,-1268.8
-127.612,223.016,-1456.192
-5.368,204.96,-1546.228
93.452,206.668,-1739.72
171.532,254.492,-1954.928
35.868,239.12,-1938.58
109.312,167.14,-1934.676
289.384,82.96,-1858.548
322.568,-29.524,-1645.048
326.228,-103.212,-1474.248
400.404,-168.848,-1306.132
487.512,-259.616,-1077.748
504.592,-355.02,-781.776
545.34,-467.504,-474.336
798.124,-533.384,-313.54
930.128,-527.528,-133.468
867.42,-603.656,146.888
1139.236,-704.672,348.432
1572.824,-697.84,467.016
1618.208,-586.82,569.496
1674.572,-538.264,582.916
1860.012,-492.636,569.984
1883.436,-436.272,693.448
1691.896,-427.0,862.052
1651.636,-477.996,895.968
1886.364,-457.988,658.556
1976.156,-424.56,424.56
1650.416,-460.672,468.968
1444.724,-552.904,519.964
1546.472,-587.308,328.424
1726.056,-629.276,108.58
1798.036,-686.372,4.392
1865.868,-715.896,-172.996
1649.196,-619.028,-517.768
1330.288,-506.544,-639.524
1247.816,-461.404,-676.368
1187.548,-360.632,-796.904
1112.64,-316.956,-790.072
967.216,-269.376,-710.772
886.208,-186.172,-733.22
988.444,-111.752,-677.1
1041.148,-74.42,-611.952
1001.62,-73.444,-455.792
947.452,-94.916,-256.444
931.836,-84.18,-135.176
1020.408,-16.104,-145.424
1020.652,38.064,-111.996
1010.404,67.1,-35.38
974.048,121.512,95.404
985.028,145.424,208.376
1110.2,196.176,193.004
1126.792,309.148,109.556
918.904,423.828,113.948
773.724,497.76,188.856
842.532,540.948,176.656
942.328,555.832,119.804
977.708,575.352,86.376
798.856,620.248,129.564
533.872,722.24,166.652
449.936,750.544,109.068
673.928,760.06,-54.412
608.536,762.988,-24.888
397.476,796.66,85.644
267.668,866.932,58.56
278.648,905.728,-61.488
276.696,928.42,-139.812
199.836,912.072,-77.348
150.304,896.456,76.372
159.82,921.344,75.152
166.164,982.344,-92.232
72.224,1007.72,-123.708
24.888,971.12,-63.44
39.04,974.78,-75.884
111.996,995.032,-114.924
16.592,979.172,-30.012
-4.148,941.108,-6.588
-6.588,967.948,-98.332
-34.16,957.212,-87.352
6.1,925.248,-28.792
22.936,920.856,-2.196
-31.232,930.86,-5.368
-83.692,940.62,-32.94
0.732,962.58,-116.876
-1.952,958.432,-129.076
-61.0,944.524,-56.12
-88.084,930.616,-14.64
-64.904,939.4,-49.776
-15.128,964.776,-109.312
-2.196,966.728,-106.14
8.296,959.652,-60.024
8.052,966.728,-26.596
8.784,983.32,-23.668
14.396,998.204,-30.744
94.916,1004.548,-64.172
105.164,999.912,-57.096
45.628,989.42,-12.444
12.2,996.74,-25.62
-10.004,997.472,-46.36
-0.732,999.18,-54.412
36.6,998.448,-66.124
98.332,1003.816,-85.644
46.36,994.544,-32.452
52.46,991.86,-11.468
30.012,995.52,-8.052
37.82,999.18,-39.04
57.34,1002.596,-77.348
79.056,1006.744,-89.792
42.7,999.18,-41.236
36.112,984.784,-6.1
22.448,981.612,-6.588
6.588,969.168,-21.716
26.596,966.972,-59.048
45.872,969.168,-75.884
40.992,983.808,-57.34
29.28,1017.968,-58.072
52.216,1021.872,-67.344
69.784,996.496,-45.872
77.104,1006.744,-53.192
82.472,996.252,-60.268
50.996,1005.036,-61.0
28.548,1018.944,-71.248
47.092,1020.408,-78.324
68.076,1032.364,-94.428
50.508,1048.956,-107.116
7.076,1057.984,-118.096
-19.276,1056.52,-113.948
3.66,1034.804,-93.94
29.524,1034.316,-136.884
69.296,1046.272,-172.996
42.944,1051.152,-141.764
30.256,1042.368,-113.704
16.592,1044.32,-104.676
-6.344,1047.004,-111.02
58.316,1042.856,-159.576
105.896,1033.828,-159.82
37.088,1041.148,-102.968
13.908,1065.304,-129.808
3.66,1080.92,-160.552
-15.616,1059.204,-130.052
82.716,1022.116,-144.448
118.828,1004.06,-138.104
101.504,1017.968,-108.336
36.6,1041.392,-95.648
14.396,1047.736,-106.14
52.704,1042.612,-122.488
73.688,1038.952,-142.74
52.948,1016.26,-114.192
7.808,983.564,-59.048
-1.464,975.024,-58.56
-10.736,999.912,-105.896
-11.712,1007.964,-113.948
12.688,969.9,-60.024
63.684,966.24,-68.32
33.428,960.384,-68.076
14.64,960.384,-66.368
-31.476,981.124,-85.156
-43.92,986.004,-106.628
3.172,1001.132,-152.988
29.768,990.152,-138.592
-22.204,998.448,-71.248
-37.82,1012.6,-75.884
-25.864,1035.292,-148.352
-86.376,1032.12,-175.192
-98.82,992.592,-123.708
-44.408,972.828,-95.16
-20.984,980.392,-120.048
-53.68,986.004,-128.1
-98.332,969.168,-102.48
-129.32,949.404,-75.64
-81.008,930.372,-75.152
-47.092,921.832,-55.144
-70.028,910.852,-6.832
-128.344,915.976,14.64
-117.852,926.468,2.196
-98.332,954.528,-47.824
-101.992,960.628,-57.584
-43.188,949.648,-22.448
-70.272,950.136,13.908
-103.456,962.336,-12.2
-150.06,973.804,-45.14
-149.572,974.536,-71.248
-139.08,982.832,-89.792
-115.656,970.144,-77.836
-83.204,919.148,-14.884
-118.34,890.6,72.468
-147.864,906.704,69.784
-140.056,952.088,-10.736
-107.604,943.548,-13.908
-106.628,897.676,58.56
-109.068,876.936,104.92
-136.884,893.284,83.448
-141.276,899.14,58.56
-128.588,910.364,29.768
-124.196,924.028,-1.22
-149.328,926.956,2.684
-154.208,927.2,3.66
-133.224,936.716,-19.032
-119.072,943.792,-26.352
-122.488,941.352,-8.296
-137.372,931.592,10.736
-161.528,940.376,-0.732
-157.38,971.608,-66.124
-176.168,993.08,-108.336
-205.936,996.984,-103.944
-237.9,987.956,-56.364
-250.1,976.732,-19.52
-242.78,1002.84,-25.376
-109.8,1026.752,-112.972
-52.46,1030.656,-139.812
-30.744,1051.396,-111.752
-86.864,1029.924,-20.74
-191.784,1009.184,19.032
-115.9,1009.916,-21.716
-146.156,1003.572,-88.328
-129.076,955.26,-102.48
24.4,875.96,-56.364
58.316,681.492,72.468
3.416,493.368,142.008
368.684,217.16,95.892
1064.572,203.252,-169.824
1337.364,364.78,-219.356
998.692,336.232,91.012
902.312,318.908,34.648
977.952,280.356,-93.452
1036.024,276.696,-136.152
1009.184,222.284,-126.148
1019.188,145.668,-24.888
1063.84,52.46,13.42
1038.464,54.412,30.256
1037.976,60.268,45.14
1063.108,46.36,73.688
1147.288,-0.976,139.568
1225.368,-71.98,214.232
1344.44,-89.06,295.728
1489.132,-41.236,249.856
1622.6,-42.944,250.588
1645.78,-155.672,442.128
1674.084,-239.364,682.712
1530.368,-231.556,855.464
1385.432,-203.496,949.404
1395.68,-222.284,972.584
1353.956,-261.324,992.348
1208.044,-302.072,1062.376
1007.964,-290.604,1081.896
755.912,-262.544,1056.764
615.612,-251.076,936.472
477.752,-231.8,816.912
415.532,-204.716,648.796
386.984,-225.212,482.632
190.564,-210.816,377.712
-34.892,-147.376,200.568
-233.996,-56.12,-77.104
-343.308,49.288,-337.208
-331.84,79.788,-557.296
-204.228,134.2,-815.692
-121.512,127.612,-918.66
-196.176,142.008,-1027.728
-231.556,157.38,-1196.332
-247.904,198.372,-1415.688
-42.7,225.944,-1715.808
192.76,288.652,-2014.22
250.832,281.332,-2087.908
176.412,217.404,-2001.044
262.788,97.112,-1845.128
294.508,23.18,-1641.144
290.604,-53.192,-1462.536
278.648,-156.648,-1291.004
291.092,-265.228,-1041.88
380.396,-308.416,-825.208
579.988,-468.968,-545.34
665.632,-569.252,-284.016
791.536,-662.704,-87.108
1005.036,-669.292,-4.88
1168.76,-599.752,87.352
1183.888,-623.664,334.768
1257.088,-745.42,602.68
1500.6,-806.176,768.6
1602.592,-659.532,785.436
1535.248,-662.216,850.584
1648.22,-742.004,893.528
1982.012,-661.728,685.396
2067.412,-558.028,508.496
1860.744,-594.872,437.98
1825.12,-652.7,325.496
1830.488,-602.192,127.612
1812.92,-655.628,93.94
1844.884,-813.496,57.34
1919.548,-883.036,-82.228
1926.624,-856.196,-279.136
1638.948,-890.112,-371.124
1484.496,-888.16,-488.0
1454.24,-755.424,-772.016
1171.688,-644.404,-883.28
815.692,-574.864,-834.48
451.644,-480.436,-835.212
533.872,-363.56,-835.456
633.424,-240.34,-839.36
582.916,-119.804,-818.132
583.648,-73.688,-657.58
590.968,-99.796,-451.644
671.0,-76.372,-362.34
842.776,-83.936,-160.064
1097.756,-108.824,16.836
1389.824,-54.9,35.624
1405.928,35.624,48.312
1204.14,45.14,156.648
1174.372,52.948,204.716
1280.756,241.072,53.192
1183.156,307.928,-28.06
1029.436,368.44,55.144
851.56,398.452,122.244
736.148,498.004,168.116
728.584,618.54,17.812
502.884,669.536,43.676
311.344,710.284,142.984
330.864,763.476,97.112
308.172,807.396,51.728
321.104,868.396,-44.896
229.604,893.772,-54.9
142.74,844.484,37.088
107.848,911.096,56.852
125.66,930.372,-41.724
96.38,926.712,-63.684
-3.66,925.98,-20.496
9.028,950.868,-79.544
24.888,983.32,-113.704
9.76,962.58,-82.228
20.252,974.048,-90.28
64.172,972.096,-133.956
-4.392,968.436,-100.284
-89.06,968.192,-47.336
-44.652,965.264,-81.74
8.784,977.22,-122.488
-21.472,960.14,-62.952
3.66,973.072,-59.536
-12.688,985.028,-59.536
-48.8,964.288,-8.784
-28.792,964.044,-16.592
15.128,987.956,-86.132
-14.152,980.392,-73.932
-34.648,981.124,-45.14
-6.1,996.984,-74.42
29.768,988.932,-67.1
-8.54,962.824,-11.468
33.916,988.688,-46.36
26.596,1000.888,-65.88
-30.988,991.616,-32.94
-16.836,994.056,-53.192
-2.196,1004.304,-81.008
-5.124,1006.988,-78.568
-20.008,1002.108,-65.636
-7.564,990.884,-41.236
-7.076,980.148,-24.644
0.976,992.836,-49.776
-2.684,984.296,-68.076
30.256,978.684,-94.184
-4.636,978.928,-70.028
-41.968,978.196,-55.144
-31.72,973.56,-54.9
20.496,966.24,-51.728
35.624,973.56,-39.284
18.544,983.808,-40.26
4.148,989.42,-37.088
21.716,998.204,-46.116
40.26,1026.02,-81.252
12.444,1035.536,-68.564
20.74,1004.304,-41.968
30.5,992.592,-38.552
-3.66,993.812,-43.676
5.124,996.252,-70.028
6.344,978.928,-48.068
2.684,976.732,-35.136
0.244,987.712,-49.776
16.348,992.592,-69.54
1.22,986.492,-52.216
8.54,980.392,-45.384
21.228,984.784,-56.852
11.956,978.196,-49.776
12.444,975.512,-46.604
3.904,980.392,-53.68
-10.248,988.932,-62.464
-6.832,993.324,-73.932
1.22,994.544,-62.464
27.816,996.008,-63.196
38.796,996.496,-55.144
8.54,993.812,-31.232
3.172,1001.376,-45.14
14.396,1006.744,-65.148
22.692,1006.988,-73.932
15.616,1002.596,-58.804
-1.22,1021.14,-73.688
3.66,1026.02,-91.744
-12.2,1027.728,-89.548
-19.032,1037.976,-96.38
-14.64,1043.1,-109.312
-6.832,1047.004,-115.168
-12.688,1057.496,-119.072
-28.06,1072.136,-121.512
-51.972,1094.096,-133.224
-42.7,1111.908,-150.06
-19.276,1098.244,-110.044
15.86,1115.812,-122.976
-30.5,1133.868,-134.932
-56.852,1152.9,-152.744
-83.692,1139.724,-145.18
-63.684,1153.388,-175.436
-5.368,1140.7,-186.172
23.912,1083.604,-97.112
14.152,1077.016,-31.476
-14.152,1066.768,-43.432
41.236,1095.56,-161.04
6.344,1065.304,-188.368
-41.724,1076.284,-200.324
-66.612,1055.788,-173.972
-109.8,1025.044,-87.352
-73.2,987.712,-36.6
57.584,932.324,-30.744
149.084,886.94,11.468
97.356,888.648,96.136
46.604,930.616,92.964
12.932,930.616,114.192
29.768,950.38,86.62
75.884,961.36,44.896
67.588,968.436,40.26
-19.52,993.568,40.26
-38.308,1033.096,4.392
8.784,1026.264,6.588
5.124,998.204,52.216
-19.032,971.12,80.276
-18.544,996.496,33.184
-73.444,1039.196,-2.684
-92.964,1051.152,-12.688
-40.748,1011.136,39.284
-43.188,970.876,109.068
-68.32,942.328,129.808
-130.784,967.46,71.248
-157.624,1001.864,47.824
-72.224,974.536,75.884
-57.096,904.264,167.628
-43.432,866.444,206.668
-56.608,876.692,169.58
-135.42,900.848,109.556
-56.852,877.912,83.204
72.956,799.832,176.168
14.884,734.44,326.228
-4.392,703.208,362.584
-91.012,738.344,291.58
-82.96,756.4,207.4
-57.584,757.132,207.888
-80.032,794.22,215.696
-97.112,850.828,157.136
-140.544,916.952,82.716
-98.088,941.596,36.112
-107.36,924.76,89.548
-13.908,928.664,95.892
-79.788,945.256,105.164
-166.164,988.688,56.364
-153.476,1116.3,-128.344
-151.28,1173.396,-201.788
-328.912,1096.292,-45.872
-211.792,1071.16,-9.516
31.72,998.204,-33.916
-122.732,941.596,51.972
-292.556,840.336,95.648
8.296,669.048,-47.092
484.584,422.852,-139.812
564.372,276.208,132.98
550.464,176.9,186.172
799.832,164.456,76.616
1036.512,148.84,-13.908
1170.956,144.936,89.304
1142.164,190.32,-8.052
1300.764,150.06,-62.22
1249.036,107.848,-72.712
1200.968,45.872,22.448
1160.464,-22.692,191.784
1101.904,-20.984,265.472
1131.916,-49.044,326.228
1199.016,-50.752,309.148
1278.804,-71.248,388.204
1451.8,-63.196,431.392
1507.188,-49.532,477.264
1550.62,-87.108,594.384
1735.816,-169.092,691.74
1685.796,-251.076,856.44
1521.34,-266.692,999.424
1417.396,-288.164,1098.244
1278.56,-329.644,1193.892
1062.864,-315.004,1232.444
996.252,-343.552,1205.116
910.364,-350.628,1126.792
738.832,-358.192,1030.412
539.728,-372.588,915.732
244.488,-341.844,754.204
-33.916,-343.064,640.5
-182.268,-284.016,399.916
-376.98,-187.392,122.976
-378.2,-51.24,-192.028
-297.192,-8.784,-402.356
-325.74,0.732,-578.524
-413.092,94.916,-815.692
-236.924,124.928,-951.6
-15.128,178.12,-1192.184
183.0,258.884,-1479.372
251.32,361.852,-1696.044
284.504,429.928,-1870.992
268.888,462.38,-2017.148
239.608,371.856,-1934.432
354.044,274.5,-1921.744
456.524,185.928,-1834.88
502.152,125.66,-1719.956
527.528,90.036,-1645.292
501.664,-7.808,-1438.38
604.876,-128.344,-1273.436
717.848,-270.596,-1011.136
561.2,-384.788,-644.16
577.304,-520.696,-275.72
729.56,-646.356,65.636
825.208,-642.452,294.996
913.048,-633.424,360.144
1109.712,-659.532,472.384
1332.728,-597.312,573.644
1396.412,-553.392,743.224
1528.416,-606.096,880.84
1850.252,-642.94,885.964
1931.992,-560.712,838.628
1751.92,-538.752,859.856
1780.712,-537.044,739.32
2075.464,-536.8,549.488
2132.316,-531.432,357.216
1916.864,-565.104,309.636
1784.372,-597.8,265.716
1950.292,-590.968,35.38
2085.224,-623.908,-196.908
2019.1,-674.172,-308.66
1724.104,-753.716,-376.492
1418.128,-767.136,-447.984
1256.356,-692.96,-590.236
1281.488,-584.38,-813.008
1238.056,-501.664,-923.784
1139.48,-421.388,-954.04
752.008,-274.744,-1016.26
638.792,-204.228,-843.02
755.424,-198.128,-605.852
854.0,-73.688,-591.456
889.136,8.296,-517.524
842.044,44.408,-374.052
916.708,18.544,-277.916
945.744,194.224,-267.912
972.34,265.96,-178.852
894.992,310.856,-31.964
816.912,378.688,51.728
807.64,443.836,24.644
737.368,496.052,48.312
669.536,577.06,55.388
539.972,620.004,73.688
488.0,672.464,10.004
534.36,763.72,-64.416
409.676,830.088,-64.416
341.6,895.968,-81.252
376.736,938.668,-148.108
253.272,941.596,-105.408
148.596,945.744,-21.228
230.092,984.052,-97.112
207.644,1002.108,-141.276
98.088,957.7,-31.232
38.796,958.92,40.016
144.448,1002.352,-78.568
219.6,1009.672,-158.356
53.68,970.876,-55.876
-77.348,949.404,-3.66
-105.164,969.412,-32.208
-43.92,990.152,-81.984
-20.252,1009.428,-132.736
-0.976,1006.5,-127.856
-12.444,978.684,-42.944
-83.204,949.648,50.02
-124.684,941.596,51.24
-62.464,967.704,-41.968
8.784,976.732,-87.108
-16.348,966.484,-44.896
-45.628,953.552,-1.952
-69.784,948.184,8.052
-92.72,976.488,-17.08
-105.408,975.512,-31.964
-43.676,990.884,-89.06
0.244,994.3,-121.024
-24.888,985.028,-67.832
-71.98,952.576,-5.124
-85.644,943.06,5.124
-74.908,966.972,-44.408
-84.424,980.88,-60.512
-78.568,973.804,-35.868
-67.588,961.848,-6.344
-66.368,953.064,4.636
-49.532,973.072,-34.892
-47.092,995.276,-67.1
-103.212,982.588,-14.152
-117.852,969.412,12.444
-64.66,978.684,-25.864
-41.724,988.932,-50.752
-70.516,989.176,-22.204
-83.448,991.128,-17.568
-100.772,993.324,-23.668
-109.8,977.952,-0.244
-75.152,976.732,-24.644
-48.312,985.76,-68.808
-62.464,996.496,-41.48
-72.956,999.912,-26.84
-60.512,997.96,-34.404
-81.252,992.592,-24.888
-71.736,987.224,-35.624
-93.452,981.612,-28.792
-99.796,971.852,-25.376
-66.612,981.612,-62.708
-54.656,984.052,-62.952
-82.472,985.028,-35.624
-74.176,1006.256,-48.556
-72.712,1019.676,-65.636
-73.444,1020.652,-70.76
-57.828,1009.672,-83.692
-63.44,995.032,-65.636
-79.544,985.76,-40.748
-87.108,984.296,-36.356
-97.844,986.492,-45.872
-95.16,983.808,-53.192
-119.804,964.532,-33.916
-117.852,954.284,-28.304
-86.864,959.652,-55.388
-113.46,964.288,-46.604
-129.32,965.264,-38.308
-125.172,969.412,-43.432
-100.284,969.9,-57.34
-72.956,962.336,-55.144
-48.8,969.412,-63.684
-52.948,988.2,-82.228
-72.956,998.692,-80.276
-93.94,997.96,-68.808
-90.28,992.104,-72.468
-53.924,988.932,-90.28
-30.988,979.172,-79.056
-40.748,985.272,-52.704
-61.976,992.348,-52.704
-65.148,996.252,-69.784
-69.296,982.344,-74.176
-59.536,981.368,-81.74
-33.672,987.956,-100.284
-43.432,996.252,-101.26
-49.044,999.668,-97.6
-51.484,999.424,-92.476
-48.068,995.52,-84.424
-34.648,984.052,-70.516
-50.264,977.708,-48.312
-46.604,984.052,-72.956
-43.676,1000.888,-103.944
-55.144,1004.792,-105.164
-53.192,989.664,-83.204
-39.528,986.98,-83.204
-33.672,995.032,-92.476
-21.716,995.764,-92.72
-27.084,989.176,-81.008
-44.164,979.904,-70.76
-40.016,975.268,-71.248
-35.38,975.756,-70.76
-47.824,977.708,-70.516
-55.144,979.904,-79.056
-61.244,980.88,-82.228
-60.024,979.904,-79.788
-59.536,987.712,-90.28
-55.876,994.3,-101.992
-45.384,996.496,-98.088
-54.9,986.98,-76.372
-46.848,986.492,-77.836
-44.652,991.372,-87.84
-55.388,994.544,-86.376
-50.752,994.788,-89.304
-53.68,992.836,-86.864
-67.344,989.42,-80.764
-69.296,984.54,-86.132
-82.228,981.124,-68.076
-87.84,972.828,-54.168
-69.296,974.292,-58.316
-50.508,986.492,-68.808
-43.188,999.668,-74.176
