acc_x[mg],acc_y[mg],acc_z[mg]
-53.924,993.812,65.636
-63.684,997.96,59.048
-74.42,991.128,49.044
-69.296,998.448,41.48
-66.368,988.444,42.944
-62.464,994.3,40.504
-63.196,998.204,39.528
-61.0,994.544,41.968
-64.172,994.788,42.944
-89.06,974.78,44.652
-85.644,974.048,49.776
-78.08,975.268,58.56
-56.608,988.688,65.88
-42.212,1010.16,67.344
-48.8,1013.82,68.564
-89.06,991.128,64.904
-120.536,969.412,63.684
-88.572,962.58,75.884
-54.9,963.068,86.62
-45.384,970.876,87.596
-59.048,965.996,83.448
-88.084,965.02,78.324
-99.796,973.072,70.028
-88.816,979.66,69.784
-69.54,982.588,71.004
-60.512,985.272,68.564
-81.008,984.052,62.708
-101.748,969.9,59.048
-107.604,962.336,55.632
-118.828,965.752,46.604
-135.176,956.724,43.188
-137.372,973.56,43.432
-136.396,994.788,53.192
-123.708,997.96,69.784
-109.556,997.228,80.52
-121.512,993.08,87.596
-133.468,979.66,100.04
-121.756,973.072,111.264
-100.772,979.416,120.292
-120.536,976.976,125.416
-144.448,962.336,137.372
-137.128,969.656,142.74
-109.556,1004.304,138.104
-97.6,1051.884,128.344
-122.732,1083.36,111.508
-147.376,1072.868,104.676
-135.908,1055.056,99.308
-119.072,1048.224,85.644
-107.116,1035.292,76.616
-119.316,1039.684,76.128
-143.716,1020.164,81.008
-171.288,994.3,77.836
-189.588,959.896,69.54
-187.636,943.548,58.56
-160.064,957.944,50.02
-153.476,980.636,41.48
-175.924,1004.06,40.992
-210.572,1025.776,45.384
-232.044,1016.26,58.804
-202.764,996.984,66.368
-152.988,1025.532,58.316
-153.476,1050.42,63.44
-204.716,999.912,80.764
-227.164,973.804,74.176
-226.92,966.972,53.924
-201.544,981.856,32.94
-195.932,991.86,22.448
-195.2,977.464,49.288
-228.628,907.68,54.168
-216.428,923.54,30.012
-210.572,962.336,18.544
-216.916,958.432,25.62
-116.876,1021.628,36.356
-110.044,999.668,82.472
-202.032,896.212,79.3
-213.988,905.972,30.744
-209.84,1001.62,-6.344
-235.216,957.212,26.352
-218.624,958.92,28.792
-197.396,1030.412,6.1
-231.556,1004.548,-10.98
-251.32,988.688,-30.5
-264.496,1004.792,-42.944
-257.176,1048.712,-58.316
-240.828,1041.148,-45.628
-250.1,1003.816,-32.452
-273.524,1001.62,-48.8
-259.86,1010.892,-53.192
-252.54,987.468,-40.992
-247.904,931.104,-6.588
-244.244,885.72,-8.052
-214.72,982.588,-38.796
-212.28,943.06,-5.124
-168.848,863.028,29.036
-120.78,888.892,31.476
-104.92,852.048,54.9
-128.832,785.68,76.616
-126.148,788.852,73.688
-115.9,849.364,58.56
-158.844,882.304,42.7
-194.224,876.692,33.672
-179.828,895.236,25.62
-173.728,869.86,23.18
-167.872,894.992,15.128
-183.732,966.972,3.416
-222.04,939.156,10.004
-221.064,914.756,0.488
-186.66,928.908,-5.856
-218.624,909.388,-17.812
-246.928,913.536,-23.912
-242.78,933.544,-12.2
-243.756,960.628,-32.94
-221.308,1000.644,-43.676
-203.252,1003.084,-50.508
-173.972,1041.148,-71.98
-157.38,1099.464,-87.352
-101.992,1144.36,-81.252
-62.708,1144.36,-71.736
-66.612,1151.192,-101.26
-43.188,1140.7,-90.524
32.696,1094.584,-62.464
133.468,1118.984,-112.24
232.044,1172.664,-142.496
319.396,1145.58,-141.032
339.892,1047.736,-130.052
246.44,1004.304,-18.544
163.968,957.456,-95.404
334.768,1014.796,-112.972
465.796,796.66,-81.008
599.996,554.856,-62.22
719.8,516.06,108.58
555.588,433.588,200.812
530.456,296.704,114.924
794.22,148.84,64.904
857.416,-189.344,129.32
886.696,-302.072,225.456
938.424,-246.684,183.976
1007.72,-186.66,120.292
1107.516,-145.424,163.48
1197.308,-200.08,265.96
1307.108,-243.512,428.464
1380.064,-278.16,458.964
1337.364,-292.312,533.628
1252.208,-444.812,602.924
1214.876,-570.716,754.936
1255.136,-555.344,793.488
1224.636,-470.432,778.604
1057.984,-440.908,811.056
970.632,-470.432,866.2
873.276,-474.824,854.732
714.92,-444.568,797.88
559.492,-362.828,734.928
467.26,-303.78,619.516
494.588,-353.556,496.54
408.7,-291.58,324.52
370.88,-225.7,154.208
313.784,-184.708,-44.408
267.668,-44.652,-287.92
307.44,62.464,-495.076
230.336,122.976,-625.128
163.236,202.764,-750.056
178.12,244.732,-863.028
315.492,243.756,-1010.892
272.06,272.792,-1094.584
260.104,243.512,-1164.856
345.504,162.748,-1221.952
467.992,98.088,-1273.192
525.332,78.08,-1268.068
499.224,45.628,-1204.14
523.38,25.864,-1139.968
587.796,-3.416,-1056.52
563.884,-109.8,-899.628
531.92,-170.312,-732.732
670.024,-221.552,-600.972
835.944,-323.3,-472.14
915.488,-444.324,-323.3
993.08,-453.352,-236.436
979.416,-406.748,-100.284
1092.144,-456.28,12.444
1414.712,-570.96,34.648
1483.764,-537.532,139.568
1353.468,-528.992,302.072
1322.968,-611.708,430.172
1542.568,-612.928,341.6
1786.08,-546.804,287.92
1712.636,-605.852,354.532
1626.992,-650.504,403.332
1664.08,-620.98,312.076
1704.096,-659.288,234.728
1667.008,-689.544,134.2
1561.112,-686.128,78.324
1467.66,-673.196,-49.288
1415.688,-607.56,-240.34
1247.816,-635.376,-331.84
1127.036,-559.248,-415.532
1052.128,-507.276,-482.388
876.936,-486.536,-459.696
725.656,-400.892,-489.708
725.9,-328.18,-529.236
742.98,-295.24,-477.752
828.38,-298.168,-379.42
798.856,-334.768,-284.504
813.252,-347.212,-218.38
822.524,-325.252,-194.956
1008.696,-285.724,-154.696
1071.648,-253.272,-120.78
990.64,-215.208,-5.368
949.648,-186.172,56.608
945.012,-135.42,101.26
989.176,-70.76,122.732
1082.872,-0.488,77.104
1157.048,55.876,58.316
1117.764,127.124,27.084
1000.644,216.672,-38.796
890.112,303.78,-83.204
820.084,426.756,-90.036
835.212,523.38,-108.336
853.268,617.564,-95.892
812.52,762.012,-28.548
792.756,789.34,-0.732
606.096,793.976,10.736
589.26,849.852,-39.04
534.36,929.64,-28.304
390.4,917.684,-13.664
247.904,868.884,17.08
265.228,859.124,60.512
367.22,965.02,60.268
400.16,1030.656,49.532
303.048,980.148,63.684
194.956,923.052,70.76
130.052,976.732,13.908
85.644,984.784,-2.684
130.052,983.808,33.184
216.672,958.92,93.94
152.5,929.64,98.576
120.292,1006.744,40.016
125.66,1077.504,-7.076
92.476,1033.34,-15.372
58.072,956.968,25.62
11.956,916.952,39.04
-14.396,963.8,-0.732
-24.4,1033.584,-56.852
8.052,1040.416,-44.896
77.592,1003.328,54.412
-6.588,956.724,34.404
-98.332,944.28,-10.248
-68.808,1055.544,-60.512
-19.276,1066.524,-28.06
7.076,1017.968,23.668
10.248,982.588,49.044
-36.356,971.852,12.2
-116.144,942.328,-11.224
-125.172,915.244,5.612
-75.396,927.688,35.38
-39.528,964.288,28.548
3.172,963.556,67.832
-1.708,961.36,59.536
-66.612,956.968,12.688
-94.672,996.74,-10.004
-59.048,998.936,23.668
-27.572,994.544,48.8
-51.484,961.36,41.48
-76.128,934.764,29.768
-56.852,962.092,25.132
-45.14,973.56,25.132
-51.728,998.936,18.3
-56.12,1002.596,7.564
-55.144,985.516,17.324
-55.876,951.844,27.816
-65.148,943.06,22.692
-63.196,976.488,21.96
-41.48,979.904,34.16
-34.16,982.588,28.06
-38.308,1022.604,4.636
-34.16,1014.552,16.836
-28.792,998.204,27.816
-39.528,994.3,22.692
-46.116,993.812,15.616
-48.556,988.444,14.64
-40.992,1016.992,2.684
-35.868,1030.656,8.784
-34.892,1006.5,19.52
-40.016,971.12,34.404
-33.672,969.656,32.94
-38.552,969.656,25.376
-43.676,974.78,18.3
-25.132,969.656,32.452
-20.008,972.34,30.744
-13.42,977.952,33.672
5.124,1001.376,31.964
-5.612,996.252,37.82
-22.692,1001.62,39.772
-2.928,991.372,36.112
15.128,1042.856,21.96
-0.732,1025.288,21.228
-4.148,1008.208,27.816
0.244,1008.208,24.644
6.1,995.52,30.012
5.124,991.616,24.4
9.272,1039.44,2.684
-19.52,1025.776,-0.244
-36.6,983.076,13.908
-12.688,985.272,23.668
-2.196,1022.116,4.88
-0.732,1050.42,-6.344
-2.44,1068.964,-23.18
-10.248,1087.996,-29.524
-32.208,1070.916,-25.132
-48.8,1071.16,-34.648
-55.388,1055.544,-28.06
-18.056,1076.772,-19.52
3.416,1052.616,-8.296
34.404,1056.032,-1.708
48.068,1095.804,-23.912
46.604,1138.748,-46.848
8.052,1087.996,-33.672
24.644,1050.908,7.564
50.264,1041.636,18.056
64.416,1052.616,25.864
53.192,1039.684,53.192
50.996,1009.672,71.492
81.252,1027.24,70.76
64.904,1051.396,43.676
95.16,1044.32,60.024
75.884,1057.74,44.896
69.052,1081.408,54.168
49.532,1079.944,42.456
52.46,1116.544,29.768
8.54,1111.176,21.228
-18.3,1073.356,26.108
15.616,1033.096,41.724
90.28,1058.716,42.7
48.312,1020.164,32.208
14.152,1008.94,39.528
-15.86,981.612,50.264
-23.668,968.68,41.48
-9.516,972.828,23.668
-37.332,948.916,20.008
-50.752,893.04,62.952
-6.832,952.332,46.116
-62.22,975.756,12.2
-89.792,990.64,-9.028
-81.496,1042.612,-21.472
-138.348,973.804,-15.128
-115.656,906.704,10.736
-84.18,862.54,29.524
-52.704,890.356,36.6
-68.808,884.5,57.096
-95.404,870.836,77.348
-104.676,870.836,76.128
-121.268,891.088,60.024
-113.948,874.496,81.984
-58.316,879.376,103.456
-47.092,846.68,130.296
-59.048,854.976,113.948
-96.624,869.616,65.148
-93.452,849.608,91.988
-79.056,790.804,124.196
-78.568,782.02,139.812
-81.984,833.504,115.656
-133.956,880.596,57.096
-142.008,913.536,36.112
-126.88,911.584,66.856
-141.764,895.236,83.204
-180.316,945.012,28.06
-178.12,1015.772,-25.864
-136.396,1072.38,-39.284
-117.608,1021.872,3.904
-94.428,981.124,37.088
-101.26,1010.16,17.812
-178.12,986.736,-32.94
-229.36,1027.728,-107.604
-184.464,1034.316,-91.988
-136.152,1009.184,-46.36
-102.236,993.08,-33.428
-40.748,1036.512,-33.916
0.732,1047.004,-14.884
1.952,1015.772,-7.808
-13.176,990.152,-40.26
-19.032,1005.036,-78.812
44.164,1142.164,-134.932
88.816,1143.14,-105.652
101.26,1042.124,-27.572
151.036,953.308,8.052
290.116,1017.968,-30.012
352.58,1097.756,-84.912
316.224,1107.028,-161.772
294.264,1037.732,-152.744
300.852,964.288,-111.752
337.94,884.5,-91.012
385.276,791.78,-25.132
371.368,742.492,78.324
561.932,778.116,-31.964
626.836,681.98,-16.348
523.868,552.172,49.044
705.404,454.816,92.476
905.972,260.104,110.532
898.408,92.232,109.556
855.464,6.588,335.744
856.44,-197.64,247.66
918.904,-277.916,261.08
1009.672,-431.392,391.132
1159.976,-485.804,411.872
1357.372,-378.444,464.82
1446.676,-355.02,574.864
1494.5,-364.536,690.52
1549.156,-405.528,741.76
1544.764,-464.088,767.38
1351.272,-536.068,819.352
1062.864,-553.392,971.12
816.424,-528.748,1051.396
822.524,-539.484,1067.988
812.032,-494.1,1031.632
782.264,-462.624,994.544
676.368,-462.136,879.62
507.764,-453.108,782.508
383.324,-359.9,582.916
139.812,-274.012,464.82
-21.716,-225.7,333.06
-11.468,-112.484,85.888
55.388,-12.688,-137.86
148.596,125.66,-445.788
162.992,243.268,-628.056
173.24,249.856,-693.204
250.344,243.024,-839.848
428.952,235.704,-1013.088
501.176,230.092,-1158.024
442.372,185.928,-1149.24
460.184,182.512,-1208.532
495.32,161.772,-1278.804
566.324,100.284,-1311.012
659.288,96.136,-1353.956
643.428,82.228,-1265.14
642.208,21.716,-1123.62
712.236,-78.568,-1002.352
685.396,-124.196,-884.012
591.7,-197.64,-681.248
691.252,-322.324,-475.8
968.436,-491.416,-353.8
923.296,-500.688,-202.764
801.784,-461.16,-61.0
893.772,-476.044,24.4
1166.808,-611.708,127.368
1288.564,-610.244,273.524
1131.428,-601.46,512.4
1098.488,-670.756,703.452
1262.7,-824.72,784.46
1527.684,-909.876,752.984
1566.968,-845.948,686.128
1512.8,-869.86,669.536
1594.784,-908.168,665.632
1759.728,-853.512,477.264
1693.36,-786.412,362.584
1580.632,-801.54,318.664
1522.072,-862.296,227.408
1512.068,-861.808,95.404
1365.912,-837.164,15.128
1272.216,-794.952,-112.24
1267.092,-735.66,-237.656
1220.732,-715.896,-302.804
1174.372,-640.012,-388.204
1058.716,-575.108,-410.408
902.068,-538.996,-357.46
860.832,-477.996,-389.424
871.568,-432.124,-414.556
932.08,-399.428,-438.712
803.98,-358.924,-387.96
740.296,-352.824,-292.312
792.512,-338.916,-258.396
803.98,-319.884,-201.3
814.716,-341.112,-94.672
875.716,-363.316,10.492
786.9,-399.916,95.648
685.152,-327.936,190.32
873.032,-346.724,263.764
1071.648,-370.88,309.88
1178.032,-366.0,313.784
1064.572,-404.796,311.1
1009.916,-295.484,301.828
1059.204,-203.74,244.244
1048.712,-141.52,180.804
986.98,-37.088,121.268
939.644,32.452,94.184
971.608,64.904,81.252
1004.792,124.928,17.568
967.216,222.772,-16.836
907.192,330.864,-37.576
843.508,405.528,-48.8
796.66,499.712,-98.332
824.476,567.3,-130.54
813.496,609.512,-104.92
766.892,665.388,-98.332
687.592,742.248,-125.904
579.5,805.444,-130.784
522.16,858.148,-118.584
500.688,863.516,-68.808
499.468,865.468,-40.26
526.308,935.74,-67.1
446.52,988.932,-94.916
297.436,989.42,-92.232
229.848,935.496,-47.58
195.932,930.128,-29.036
212.524,964.532,-24.888
272.792,1006.012,-48.312
243.024,1050.908,-18.544
139.08,1027.972,-12.2
136.64,955.992,16.348
134.2,1002.596,31.476
178.12,975.268,40.748
159.332,967.948,61.488
119.316,976.244,40.748
23.912,1021.14,0.0
29.524,1036.268,4.148
52.46,982.832,61.244
47.824,917.928,79.788
61.244,941.84,47.824
102.724,983.564,34.16
73.2,1038.464,15.372
-22.204,1023.336,-9.272
-11.956,979.66,-4.148
32.208,966.972,9.028
18.544,940.864,18.544
-3.416,948.672,2.44
-6.344,993.812,-15.372
-17.08,1007.232,-31.964
23.912,1004.792,-25.376
54.168,991.616,-8.296
37.332,962.58,-7.808
0.0,938.668,-2.196
2.928,965.752,-19.52
6.344,1015.04,-51.728
4.392,997.716,-45.384
14.152,976.0,-27.328
-28.06,977.22,-46.604
25.62,978.684,-27.816
17.08,978.44,-36.844
25.864,1048.712,-53.68
-9.76,1035.78,-57.828
12.688,1014.552,-30.988
8.296,1032.608,-37.576
-30.5,1008.452,-41.724
-32.208,988.444,-30.012
-49.776,975.756,-30.012
-27.084,962.336,-18.056
20.252,976.244,-13.664
41.968,996.74,-14.884
42.212,1015.772,-12.932
21.96,1004.304,-8.052
11.956,997.228,-12.2
8.296,1014.308,-20.74
4.148,990.152,-12.932
-5.368,972.828,-8.784
-0.976,978.196,-17.812
20.496,977.464,-19.764
27.328,981.124,-21.472
11.956,1009.428,-31.232
-18.544,998.692,-25.132
-2.196,991.86,-16.348
22.204,976.732,-8.052
30.012,980.636,-13.908
22.936,965.996,-10.98
11.224,962.092,-10.492
18.056,1002.108,-24.888
17.568,996.008,-12.2
20.74,991.616,-10.98
-3.66,952.576,-12.688
-3.66,951.844,-34.16
46.848,1011.136,-45.628
60.024,1036.756,-36.356
43.92,1024.312,-18.056
22.204,1012.112,-22.448
13.908,991.86,-33.428
22.448,981.612,-33.184
34.892,981.124,-30.744
48.068,1000.888,-23.18
50.264,1004.304,-19.032
43.676,1001.376,-19.52
32.208,993.812,-18.056
22.204,974.78,-13.908
30.256,987.468,-17.324
25.864,995.032,-21.96
40.992,1023.336,-27.084
47.336,1039.928,-27.816
31.964,1020.408,-26.596
11.712,1012.112,-36.112
0.976,998.936,-40.748
9.028,1006.988,-42.456
9.76,1023.58,-42.212
15.372,1031.144,-41.724
11.224,1036.756,-45.384
-0.732,1032.12,-57.096
2.928,1045.54,-75.396
18.056,1032.364,-61.488
6.344,1049.932,-51.484
-3.416,1071.892,-54.412
11.956,1089.46,-61.244
18.788,1104.344,-68.076
13.42,1078.724,-61.244
27.328,1067.012,-59.536
34.648,1056.764,-69.54
36.356,1062.376,-72.712
37.576,1073.6,-57.828
27.328,1048.712,-45.384
1.952,1054.324,-56.12
4.636,1055.3,-67.344
32.208,1043.1,-57.584
42.456,1023.336,-54.168
51.728,1045.296,-37.088
36.356,1010.404,-40.992
39.284,1039.196,-43.432
20.008,1083.848,-56.608
5.856,1037.976,-38.796
27.572,1024.068,-27.572
45.872,1038.464,-39.04
85.4,1051.152,-24.644
16.104,1034.804,-50.264
24.888,1038.464,-33.672
36.844,1002.596,-1.708
43.676,967.216,7.32
33.428,950.136,-1.952
30.012,959.652,-9.516
13.42,946.476,10.736
3.904,938.912,23.18
0.732,918.172,30.012
13.664,920.856,28.06
30.744,932.08,29.524
23.18,931.104,27.328
-2.684,940.132,24.888
-18.056,957.7,20.984
-35.136,949.648,17.812
-65.88,944.036,2.196
-60.756,955.26,-2.196
-57.34,946.232,8.052
-51.24,955.016,7.564
-70.76,974.048,-7.564
-85.156,977.952,-16.592
-80.52,981.612,-11.712
-76.86,978.684,-3.416
-82.228,972.584,-7.564
-90.768,978.928,-19.52
-96.136,963.068,-23.912
-93.452,981.612,-27.328
-93.452,960.872,-16.348
-87.108,946.964,-1.708
-85.4,972.828,-19.764
-91.988,972.34,-24.644
-103.944,956.724,-7.076
-97.356,950.868,-2.44
-94.916,975.024,-14.152
-69.052,1000.4,-14.152
-76.128,976.0,-2.928
-95.16,961.604,4.636
-89.304,958.188,4.148
-69.296,946.232,14.884
-59.78,971.364,14.396
-96.868,963.312,15.128
-127.368,933.544,17.08
-102.236,927.444,16.104
-93.696,924.272,14.884
-114.436,907.68,16.104
-126.148,901.092,11.956
-120.78,888.404,18.056
-126.148,887.672,15.128
-137.86,897.432,5.368
-145.424,904.752,-0.732
-135.176,907.192,0.244
-132.492,924.516,-3.416
-144.692,938.912,-9.028
-156.648,951.356,-13.42
-152.744,960.14,-13.176
-131.516,980.392,-13.908
-147.376,960.872,-17.324
-159.82,932.568,-10.004
-124.44,973.56,-23.912
-141.276,965.996,-34.648
-136.64,971.608,-34.16
-114.68,963.8,-17.812
-85.888,970.388,-21.228
-42.944,1006.256,-20.74
-56.12,944.036,4.148
-55.388,910.852,17.08
15.372,892.064,-2.928
151.524,994.056,-31.232
200.08,1084.336,-80.764
155.672,1054.08,-100.528
124.44,974.292,-70.028
244.488,994.3,-45.628
384.056,1025.532,-62.708
481.412,1052.86,-164.212
512.156,1113.86,-244.488
340.624,934.276,-23.912
370.392,702.964,89.792
514.108,570.472,115.412
698.084,575.108,99.308
684.42,537.044,-9.76
690.276,496.784,20.984
801.54,383.568,130.052
962.336,207.4,266.936
1203.652,216.916,289.872
1260.504,139.812,152.256
1177.056,64.66,234.24
1198.04,-123.952,344.284
1324.92,-329.4,504.836
1295.884,-404.552,556.564
1265.384,-313.784,555.1
1165.344,-372.344,650.504
1136.064,-385.764,746.884
1219.268,-318.908,739.32
1121.18,-290.848,724.192
1047.004,-278.404,727.608
855.708,-304.268,770.552
819.596,-326.716,762.256
766.16,-314.516,692.472
648.552,-239.608,618.54
546.804,-182.268,550.708
537.776,-164.212,462.868
508.496,-107.116,330.62
433.588,-44.408,193.98
392.108,-14.64,51.24
391.132,19.032,-91.256
387.472,55.388,-219.844
380.64,115.412,-355.752
467.016,185.44,-540.46
533.872,241.56,-732.244
569.252,254.98,-805.688
576.816,223.26,-828.868
553.392,213.988,-854.732
593.408,196.42,-948.672
632.448,207.156,-1010.648
730.048,179.34,-1029.192
801.296,155.184,-1008.94
699.304,116.632,-913.292
666.852,76.372,-827.648
727.608,-48.556,-739.32
749.812,-168.604,-592.92
773.724,-155.672,-491.172
748.836,-196.42,-382.836
721.996,-293.776,-230.092
801.54,-362.34,-136.396
874.74,-402.844,-46.36
974.048,-437.248,72.468
1148.02,-450.18,135.42
1202.92,-479.948,280.112
1294.176,-565.592,419.192
1454.972,-635.62,494.1
1541.836,-659.288,577.304
1572.824,-757.864,691.74
1708.244,-782.752,651.724
1727.276,-766.648,537.532
1677.5,-734.196,445.788
1669.204,-655.14,319.64
1693.116,-629.52,140.3
1547.204,-592.92,46.604
1349.808,-561.932,-65.148
1192.672,-542.168,-166.896
1147.776,-523.136,-244.0
1035.292,-471.164,-302.56
945.012,-388.204,-343.796
846.436,-319.152,-348.432
801.784,-290.604,-304.024
826.916,-313.296,-243.756
876.692,-341.6,-205.936
801.784,-358.924,-135.908
827.16,-356.484,-94.184
875.96,-362.34,-32.452
903.776,-357.216,35.136
968.192,-339.404,85.156
862.784,-358.192,166.164
863.272,-359.9,252.54
999.18,-354.044,243.512
1067.5,-348.432,255.956
1030.9,-361.852,271.572
934.52,-299.876,235.46
826.916,-159.088,210.328
910.12,-62.952,198.128
1023.824,-24.644,127.368
1124.108,58.072,51.728
1121.668,82.228,46.116
1065.06,147.62,37.82
996.496,229.116,8.296
945.988,272.792,45.872
911.34,331.352,27.572
873.764,404.308,-9.516
848.876,472.628,-20.74
876.204,561.688,-17.08
871.324,622.444,-8.54
805.444,702.232,-5.856
732.244,757.376,4.392
664.168,793.0,-4.636
544.364,806.42,26.352
465.308,863.272,36.844
434.564,951.112,29.524
366.732,990.64,52.704
328.18,985.272,50.508
313.296,1032.608,40.992
248.636,989.42,49.288
149.572,1007.232,16.348
90.768,950.38,41.236
87.108,899.628,81.74
81.252,935.252,74.908
92.72,1024.8,31.72
116.144,1087.02,33.916
69.052,1022.604,65.636
-13.176,967.704,61.732
-29.036,959.652,51.24
-41.724,990.152,26.108
-7.808,975.512,45.872
3.416,959.408,56.852
-28.06,943.304,47.824
-89.304,949.648,20.008
-128.588,983.808,0.244
-98.576,962.092,28.792
-57.828,954.04,38.552
-53.68,952.332,40.748
-55.876,946.72,38.308
-53.436,958.432,30.744
-65.636,996.984,21.472
-80.032,981.856,28.06
-71.248,978.928,28.06
-90.524,993.812,13.42
-109.068,979.172,10.004
-89.548,976.976,12.444
-55.144,991.128,9.516
-32.208,1043.832,-10.248
-46.36,1056.52,-9.516
-81.008,1017.48,-8.54
-84.912,986.004,-5.368
-76.86,972.828,-11.224
-75.64,971.364,-17.324
-92.72,949.648,-8.784
-102.724,929.396,1.952
-94.428,947.696,3.66
-76.86,976.976,8.296
-56.608,975.024,25.132
-51.972,969.412,35.136
-51.24,975.024,35.624
-50.264,992.104,34.16
-54.412,1004.792,36.6
-63.928,990.396,41.724
-69.296,987.712,36.356
-64.904,976.976,34.16
-51.972,992.836,29.524
-51.728,998.936,30.5
-54.168,983.32,34.648
-47.58,988.444,28.304
-63.44,983.076,19.764
-74.908,974.536,12.688
-68.564,974.292,11.468
-64.66,973.316,8.296
-64.172,975.024,7.564
-58.804,989.42,7.808
-60.512,987.468,10.004
-69.052,978.684,7.808
-71.492,977.464,6.344
-66.856,983.32,4.148
-53.68,1001.864,0.488
-46.848,1026.752,-2.684
-70.76,1026.02,-8.296
-96.624,1012.844,-12.932
-94.428,997.472,-10.248
-84.18,999.424,-13.664
-86.62,1026.508,-20.496
-75.152,1037.732,-15.616
-65.392,1034.56,-9.516
-77.348,1016.992,-13.908
-89.06,1012.6,-24.4
-93.94,1006.5,-25.132
-92.232,998.204,-18.3
-67.1,999.668,-9.272
-47.092,1007.964,-8.052
-46.604,1008.696,-11.468
-58.56,1003.328,-14.884
-67.588,1002.352,-7.564
-65.392,1015.284,-4.88
-67.344,1026.02,-10.98
-61.732,1034.56,-16.592
-45.872,1045.54,-19.52
-35.624,1036.268,-13.664
-39.284,1022.36,-19.276
-39.284,1015.04,-23.424
-52.216,1007.72,-33.428
-61.732,1023.336,-46.36
-55.876,1025.776,-45.628
-66.612,1014.308,-55.144
-82.716,1016.504,-70.028
-75.884,1040.904,-82.228
-63.196,1056.52,-81.008
-58.804,1048.956,-68.564
-61.976,1026.508,-60.268
-75.396,1009.672,-62.952
-87.84,1012.356,-74.176
-110.288,992.836,-79.788
-115.412,957.456,-68.808
-114.192,934.032,-64.172
-126.392,959.896,-81.74
-141.52,987.224,-98.576
-140.788,986.736,-90.524
-113.948,998.448,-74.42
-84.668,1027.972,-68.32
-65.148,1056.276,-66.124
-71.004,1028.704,-49.532
-79.544,1012.356,-43.188
-93.208,1005.036,-40.504
-108.336,976.488,-32.696
-122.488,944.524,-27.816
-122.488,945.256,-35.136
-91.256,973.56,-27.084
-65.636,1045.54,-22.936
-70.028,1029.924,-7.808
-72.712,969.656,2.196
-79.3,961.604,-21.96
-99.552,957.944,-41.48
-110.532,970.144,-43.676
-109.312,948.916,-22.692
-87.352,935.252,-7.564
-76.616,925.98,-8.052
-76.128,929.884,-6.1
-94.672,928.176,-3.66
-115.412,906.704,3.172
-112.972,899.384,-0.976
-106.14,891.332,-0.488
-109.312,891.82,0.732
-128.1,894.016,0.976
-141.032,894.26,0.0
-135.176,894.016,-8.784
-129.076,917.928,-29.768
-156.16,928.664,-44.896
-172.752,923.54,-43.92
-171.044,928.176,-44.652
-173.484,935.74,-52.948
-163.236,937.448,-53.924
-141.276,962.092,-53.68
-146.644,999.424,-56.364
-170.8,997.96,-70.028
-191.052,987.956,-82.472
-159.088,968.192,-80.276
-86.132,1006.988,-75.884
-9.028,1039.684,-40.504
2.44,1044.32,-6.1
-38.308,1011.868,-26.108
24.4,982.344,-6.1
91.012,974.292,6.344
153.72,994.544,5.612
215.208,1050.42,-46.116
349.164,1144.848,-77.836
405.528,1161.196,-67.588
309.392,1026.508,-59.536
357.216,1000.4,-78.08
405.04,961.848,-62.22
466.772,892.552,-74.908
557.296,803.248,-131.272
549.244,698.084,-207.156
490.928,678.564,-260.836
432.612,744.688,-7.076
436.76,506.544,223.26
635.376,278.648,213.5
893.772,263.764,99.308
848.876,158.844,50.752
831.308,-1.952,123.464
1022.36,-67.344,203.984
1064.328,-199.104,199.104
1096.536,-277.916,232.776
1200.236,-356.24,283.772
1271.728,-502.64,425.292
1405.196,-541.192,521.672
1456.924,-463.6,526.064
1394.948,-441.64,610.976
1399.828,-572.18,696.62
1270.264,-658.068,798.368
1145.336,-571.448,805.2
1081.408,-460.672,762.5
857.904,-439.932,862.052
831.552,-422.364,897.188
846.924,-390.888,826.672
701.012,-342.82,752.252
536.312,-308.904,664.656
504.836,-299.388,542.412
479.216,-283.772,383.08
436.028,-190.808,171.288
401.868,-77.592,-25.864
304.024,-27.084,-147.376
324.276,56.12,-352.336
377.956,158.112,-540.46
284.748,142.74,-581.452
153.72,153.72,-635.864
144.936,133.224,-753.716
390.156,144.936,-961.116
635.376,153.232,-1113.86
590.48,134.444,-1089.704
530.7,168.604,-1123.864
495.564,143.472,-1057.74
582.428,54.168,-966.484
826.916,-14.396,-996.496
850.34,-66.856,-933.3
724.192,-125.904,-741.272
678.808,-158.6,-602.192
801.052,-219.6,-548.024
990.152,-313.296,-443.836
1039.684,-369.172,-296.46
987.468,-357.948,-198.128
976.0,-374.54,-141.764
1046.028,-382.348,-33.916
1138.748,-454.084,112.24
1207.556,-506.056,208.864
1231.956,-563.152,299.144
1308.328,-575.352,348.188
1331.996,-590.968,442.372
1421.788,-652.456,486.048
1485.96,-691.008,499.956
1423.008,-672.708,506.788
1468.148,-652.456,442.616
1558.184,-632.936,293.776
1571.848,-639.524,208.376
1501.332,-663.68,176.168
1344.684,-689.056,176.412
1278.56,-656.36,8.296
1260.992,-609.756,-173.24
1205.604,-625.372,-230.58
1140.944,-639.036,-332.816
1013.088,-536.068,-444.08
840.336,-502.64,-427.488
747.372,-486.048,-382.592
777.872,-448.228,-364.78
693.936,-435.052,-316.468
651.48,-382.592,-295.972
753.228,-366.976,-290.848
786.656,-382.104,-245.22
888.16,-357.948,-205.204
976.732,-367.708,-145.424
915.0,-389.912,-79.788
878.4,-375.516,-16.592
984.052,-406.748,18.056
1007.72,-418.216,74.908
926.712,-431.392,114.436
946.232,-412.36,119.804
1016.26,-396.744,123.708
1057.74,-387.716,132.248
1081.896,-376.248,139.812
975.756,-358.68,98.088
942.328,-240.34,85.888
976.244,-163.48,82.228
997.96,-116.876,97.844
1005.768,-75.152,89.06
1100.684,-44.896,26.352
1152.168,11.468,-4.636
1096.048,57.584,-24.644
1037.0,89.548,-30.5
952.576,184.22,-22.936
923.54,282.796,-23.424
966.972,354.776,-85.644
1006.012,426.512,-111.752
1053.836,477.752,-146.156
1016.016,529.968,-116.388
909.388,567.788,-71.736
804.712,609.512,-89.304
756.644,679.54,-85.4
716.628,716.384,-93.452
674.904,735.172,-77.836
588.528,747.616,-60.024
513.132,778.848,-63.928
510.936,862.052,-37.332
497.272,876.448,-33.916
468.48,896.456,-47.092
449.448,951.356,-57.828
388.936,951.356,-35.624
330.62,910.364,-22.936
276.208,910.12,-17.568
240.584,923.296,-27.572
215.452,952.576,-26.596
202.764,974.78,-30.012
195.444,986.736,-20.496
189.588,977.22,-19.764
189.588,961.116,-5.124
164.456,946.964,-1.708
118.828,935.984,-7.076
69.296,908.9,-9.76
40.016,887.672,-15.86
41.968,886.208,-22.936
72.224,911.34,-26.84
94.184,946.964,-30.5
91.256,984.54,-36.844
62.464,977.708,-27.328
37.332,962.092,-23.912
32.452,967.46,-37.576
33.184,1009.184,-60.512
42.456,1035.536,-68.076
57.34,1019.188,-58.316
53.436,1019.188,-56.364
39.528,1007.476,-59.292
35.624,998.448,-54.656
47.824,984.784,-49.044
62.464,986.98,-43.432
65.392,984.54,-38.064
67.1,974.78,-31.964
85.156,980.88,-29.768
80.276,979.416,-28.792
71.248,969.168,-27.816
74.42,979.172,-31.72
73.932,1002.108,-37.088
73.688,1004.06,-37.332
77.104,1006.012,-36.6
71.736,1006.988,-40.26
61.0,1013.82,-45.384
52.704,1003.084,-44.896
59.536,1010.648,-48.8
71.736,1022.36,-51.24
72.712,1025.776,-52.704
62.952,1013.088,-51.484
60.268,1003.084,-50.752
53.192,994.544,-58.316
58.072,993.08,-62.952
62.952,996.008,-61.244
59.048,1008.696,-64.66
73.444,1023.58,-60.268
91.012,1034.56,-62.952
70.76,1055.056,-74.664
35.136,1064.572,-91.012
10.248,1052.372,-100.772
12.688,1047.736,-99.796
21.472,1068.232,-108.092
23.18,1080.432,-116.632
32.208,1094.584,-115.168
38.308,1086.044,-96.136
35.136,1075.064,-79.788
25.132,1054.08,-70.272
28.06,1029.192,-68.564
43.432,1010.404,-65.88
61.0,1015.04,-59.536
65.636,1024.556,-45.384
55.144,1020.652,-34.892
45.384,1040.416,-32.208
47.58,1050.908,-31.72
73.688,1041.392,-20.74
85.644,1039.684,-20.252
87.108,1029.192,-16.592
77.104,1018.7,-12.932
54.168,1010.648,-11.468
46.116,1007.72,-8.54
75.152,998.936,13.664
95.648,978.928,38.552
86.62,973.804,41.48
53.436,982.344,27.084
15.86,986.736,12.932
9.272,963.8,17.568
17.568,957.212,28.548
14.396,959.652,26.352
-2.196,963.556,12.444
-24.156,966.728,-2.44
-35.624,965.264,-7.808
-23.18,961.848,-2.44
-22.936,956.724,-7.564
-31.232,962.58,-27.572
-14.152,979.172,-35.38
2.196,999.424,-27.328
-8.54,981.856,-12.932
-29.768,955.26,-6.588
-37.82,957.212,-15.128
-41.968,969.412,-24.644
-23.668,970.876,-13.176
-11.468,937.692,9.76
-26.352,926.956,18.056
-49.532,919.392,14.152
-53.436,909.632,15.616
-47.092,894.26,27.084
-52.46,886.452,35.38
-62.464,874.74,41.724
-68.32,872.056,38.796
-70.76,876.936,30.988
-62.22,897.432,24.156
-37.332,910.852,23.668
-36.356,924.028,23.424
-50.996,932.812,21.472
-64.904,945.988,10.98
-62.708,953.796,-1.22
-50.02,965.02,-2.684
-57.828,972.34,-9.028
-66.612,973.804,-13.42
-63.44,982.832,-26.352
-63.928,989.42,-31.476
-61.976,986.736,-31.72
-55.388,990.152,-37.576
-70.516,1002.596,-42.944
-81.252,1006.256,-49.044
-71.004,983.076,-48.556
-61.732,994.544,-61.732
-53.192,1023.092,-72.956
-55.876,1032.12,-64.172
-58.072,1011.38,-50.996
-58.316,1001.62,-49.288
-51.972,1000.888,-57.096
-40.748,988.932,-58.316
-33.184,984.296,-55.632
-34.16,982.588,-53.68
-29.28,977.708,-51.728
-20.984,993.324,-56.852
-19.032,1002.84,-56.608
-5.612,995.276,-50.264
-18.3,981.612,-52.46
-13.664,965.264,-80.032
78.324,1037.732,-93.94
179.34,1096.292,-81.984
250.588,1077.016,-70.272
350.628,1112.64,-82.472
369.172,1136.308,-107.36
269.376,1056.276,-111.264
321.104,1017.968,-119.072
386.496,971.608,-83.692
443.104,843.752,-71.98
552.66,786.9,-65.392
558.028,696.376,-136.152
650.504,682.468,-78.08
649.772,536.068,38.552
728.096,424.316,43.432
895.968,393.572,30.5
904.752,265.96,18.3
1002.108,128.832,-27.816
908.9,-28.792,25.132
820.328,-132.248,58.316
842.776,-104.432,77.836
979.172,-115.9,11.956
989.176,-270.108,219.112
1149.972,-383.08,335.5
1317.356,-331.596,236.192
1358.348,-279.38,227.408
1400.072,-342.82,244.976
1457.412,-411.872,325.496
1438.136,-525.088,427.0
1361.276,-559.004,522.648
1245.132,-598.776,596.092
1215.608,-665.388,725.9
1223.416,-750.544,769.332
1116.788,-680.272,792.024
1002.84,-566.568,778.848
923.296,-499.712,743.224
782.508,-484.096,751.276
693.204,-471.652,689.3
629.52,-435.784,578.036
488.976,-355.508,493.124
297.436,-254.492,415.532
191.784,-193.248,312.808
147.864,-152.5,195.688
59.536,-60.512,16.104
150.548,52.948,-201.056
83.204,85.888,-342.088
89.792,131.76,-521.428
219.356,199.592,-728.096
212.28,260.836,-840.824
263.52,254.98,-947.208
400.648,252.784,-1072.624
524.112,241.316,-1157.78
575.108,262.788,-1196.576
537.044,276.208,-1165.344
550.708,251.076,-1112.152
636.596,186.416,-1058.472
728.584,88.328,-991.128
798.368,-20.252,-927.2
765.672,-110.044,-793.976
725.168,-234.484,-622.688
800.564,-298.656,-525.82
882.548,-385.764,-429.684
870.592,-420.9,-275.232
833.504,-466.04,-140.3
937.692,-477.752,-87.84
1067.256,-537.044,-0.488
1164.856,-577.792,110.532
1259.284,-615.368,227.652
1260.016,-734.196,372.1
1289.54,-769.576,430.172
1509.872,-780.556,374.052
1725.08,-807.396,367.464
1636.752,-774.7,434.808
1517.68,-759.328,460.184
1509.14,-793.732,386.252
1551.596,-758.108,287.676
1522.072,-751.52,192.272
1444.236,-719.312,100.772
1423.74,-722.972,-24.4
1284.416,-757.376,-138.348
1211.46,-744.2,-232.532
1152.9,-670.268,-339.892
998.936,-550.708,-364.048
892.796,-512.888,-337.452
840.824,-509.96,-315.492
842.044,-541.68,-297.436
837.896,-504.104,-283.528
819.352,-481.168,-263.764
767.38,-473.36,-224.236
789.096,-471.896,-187.148
829.112,-488.244,-174.46
827.648,-457.744,-135.176
789.34,-470.676,-77.836
798.368,-188.124,-57.34
685.64,-498.492,-37.576
737.368,-486.536,50.02
894.504,-381.86,77.592
806.176,-360.144,74.42
962.336,-231.556,91.256
1061.888,-225.7,61.976
1059.204,-264.74,117.12
1118.74,-258.152,166.652
1126.06,-305.488,175.68
873.764,-422.364,178.852
823.744,-276.94,233.996
989.664,-93.696,143.716
1121.18,-9.272,92.964
1143.384,-53.68,90.28
1191.208,14.152,63.928
1196.576,111.02,35.624
1110.932,140.788,29.036
1008.696,161.528,17.08
997.716,207.644,-1.464
1011.136,309.636,-28.06
965.752,389.912,-18.544
905.24,436.272,-11.468
843.264,493.124,-38.064
850.584,561.932,-48.8
884.256,635.62,-57.584
854.488,643.916,-66.368
797.148,665.388,-50.508
680.76,734.684,-40.748
560.468,785.924,-39.04
580.72,815.692,-56.364
625.128,837.408,-55.876
607.804,867.908,-36.844
514.596,873.276,-19.52
376.98,890.844,-40.748
277.184,917.928,-38.552
271.816,919.636,-37.82
305.244,923.296,-7.808
286.456,935.008,5.368
238.876,956.48,14.64
197.884,985.516,20.74
149.328,975.512,19.764
108.58,1006.5,9.272
83.692,1013.088,15.616
98.332,969.656,48.8
91.5,926.468,64.904
85.4,957.944,39.772
91.012,995.032,31.964
79.788,973.56,38.308
33.184,921.588,48.556
-6.344,908.412,54.9
-34.16,877.18,41.236
-30.012,913.536,24.4
6.344,961.36,22.692
38.552,968.924,24.888
58.072,999.912,36.844
44.164,1004.792,38.552
5.368,979.904,40.26
4.392,976.488,35.38
-7.564,974.78,26.352
-13.908,996.252,15.86
9.028,1014.796,12.932
34.404,1016.016,29.524
16.836,987.468,32.452
7.32,986.248,35.624
21.472,997.96,37.576
23.18,997.472,29.28
17.568,1004.304,18.056
18.544,995.52,20.252
14.884,976.488,20.252
7.564,982.344,13.176
4.392,995.52,6.1
4.636,997.228,4.148
-1.708,988.2,2.684
-6.832,976.976,0.976
10.248,978.684,1.708
30.256,998.204,2.44
22.204,990.152,0.732
6.588,994.3,-4.148
7.564,1000.156,-3.904
20.252,990.884,3.172
20.74,985.516,5.856
22.692,993.568,-0.244
8.54,999.912,-3.416
7.808,1000.644,-5.368
13.176,1007.476,-2.44
20.008,998.204,-1.952
22.204,994.788,-2.44
7.564,986.736,-10.004
0.0,997.716,-14.64
-3.172,1008.452,-19.52
3.904,1004.304,-15.372
17.812,996.496,-13.42
23.424,1001.132,-17.812
4.392,987.712,-27.816
-18.788,983.808,-33.916
-38.064,965.264,-35.38
-34.404,957.7,-30.5
-20.74,966.24,-32.208
-22.692,986.492,-30.012
-17.812,1010.404,-32.94
0.488,1021.872,-33.672
10.98,1011.624,-30.5
14.152,1002.352,-30.256
15.128,1016.748,-36.6
25.864,1028.704,-37.332
25.376,1024.312,-33.916
30.988,1012.112,-30.012
31.72,1009.184,-25.376
23.912,1001.132,-26.84
7.564,1001.62,-25.132
15.616,1010.16,-26.352
30.988,1008.208,-23.424
35.136,1007.964,-26.108
24.644,1019.188,-28.06
14.152,1029.436,-29.036
9.76,1031.632,-23.424
12.2,1013.088,-20.984
31.964,1003.328,-18.056
36.6,1000.888,-19.032
14.396,1012.6,-24.156
7.808,1004.304,-14.884
19.52,985.272,-8.296
25.864,996.984,-11.224
37.332,1020.164,-10.98
43.188,1023.092,-1.22
31.476,1013.82,-1.708
17.568,1006.012,-13.176
13.176,1016.992,-31.72
7.32,1032.852,-44.652
1.22,1044.564,-46.604
8.052,1042.368,-41.724
-6.1,1039.44,-51.24
-5.612,1056.764,-72.224
10.98,1082.872,-79.056
3.416,1089.216,-69.052
-17.812,1070.184,-65.88
-18.788,1078.48,-77.836
12.444,1099.464,-84.18
19.52,1114.104,-84.18
-0.488,1079.944,-73.688
-7.808,1037.244,-79.788
-24.644,1060.424,-91.256
-22.204,1093.852,-113.216
13.42,1124.108,-116.876
-2.196,1102.148,-96.868
-17.812,1057.984,-93.696
-3.172,1020.408,-90.28
16.836,1002.352,-87.108
6.832,1004.06,-91.256
7.076,978.196,-80.276
43.676,974.78,-49.288
62.952,958.188,-50.264
52.948,940.132,-42.7
28.792,925.492,-28.304
2.196,921.832,-28.06
-10.004,921.588,-28.548
2.684,917.928,-28.548
6.588,954.04,-26.352
6.588,989.908,-36.356
-12.2,979.66,-33.184
-45.628,952.82,-29.28
-72.224,943.06,-29.524
-59.292,961.116,-22.692
-40.26,951.6,-9.272
-35.38,954.772,11.224
-41.236,984.052,26.84
-67.344,943.304,29.28
-98.576,899.872,39.772
-96.38,878.4,56.12
-90.28,884.988,69.052
-82.96,888.404,84.424
-83.936,887.916,95.648
-101.748,864.736,103.212
-122.244,855.464,112.728
-102.724,859.612,128.588
-101.26,858.392,135.908
-108.336,861.32,135.42
-117.608,892.552,131.272
-141.276,911.34,119.316
-185.928,929.152,101.26
-204.228,939.4,100.284
-194.956,948.916,109.8
-184.22,939.888,112.728
-191.296,947.208,102.724
-215.696,949.404,89.06
-227.408,931.836,80.032
-238.144,944.768,70.028
-245.22,947.452,62.22
-240.828,958.188,54.656
-250.1,978.684,48.556
-264.008,961.36,49.044
-247.172,930.128,51.728
-214.72,935.008,48.312
-209.84,951.844,36.112
-231.312,940.376,33.916
-198.86,939.888,50.752
-108.58,1006.5,45.384
-33.184,1117.276,45.384
60.512,1136.064,58.804
70.516,1088.24,50.996
60.512,1067.744,34.892
77.836,1043.588,2.44
127.124,1094.34,-20.496
192.76,1124.596,-20.496
208.62,1110.932,11.956
250.588,1009.184,43.92
315.736,876.204,54.412
308.66,705.648,72.712
318.908,559.98,131.76
343.552,532.408,161.284
490.196,483.364,196.42
646.6,368.44,106.872
708.332,228.14,109.556
781.776,100.04,204.228
775.92,63.928,236.192
813.252,83.936,250.588
1017.236,25.62,225.212
1217.804,-43.188,180.804
1352.492,-129.808,216.428
1373.232,-236.436,288.652
1438.38,-263.52,294.996
1468.88,-337.208,331.596
1416.42,-454.328,439.444
1411.052,-477.02,474.336
1387.872,-449.204,503.128
1301.74,-478.728,576.816
1199.26,-518.5,651.724
1131.184,-551.928,700.524
1113.372,-488.732,676.124
1046.76,-472.384,648.064
926.956,-455.304,669.292
759.572,-424.804,652.944
658.068,-417.484,629.764
550.22,-344.04,559.492
455.304,-273.036,445.056
528.748,-236.68,268.4
557.54,-160.552,104.676
429.928,-128.1,8.784
378.688,-97.112,-123.22
355.508,-18.056,-240.096
356.728,-17.568,-370.148
454.816,43.432,-552.172
448.228,125.66,-681.736
414.312,138.348,-738.832
419.436,119.072,-825.696
552.172,185.196,-989.908
702.476,273.036,-1121.668
660.264,303.78,-1112.884
604.632,269.132,-1072.868
626.592,263.52,-1047.736
627.08,176.656,-990.152
666.852,110.288,-894.504
730.536,-32.696,-802.516
726.144,-124.928,-704.428
743.956,-226.92,-583.648
752.496,-340.624,-434.32
766.648,-396.5,-313.296
898.408,-451.4,-242.78
1048.224,-568.764,-176.412
1169.98,-606.584,-111.508
1235.372,-590.48,-59.78
1235.372,-596.336,17.812
1253.428,-622.2,132.492
1336.144,-644.892,218.868
1445.456,-678.564,258.64
1431.792,-724.436,303.048
1365.18,-806.664,369.904
1305.4,-819.352,434.564
1247.572,-822.768,415.288
1360.544,-816.668,309.88
1488.888,-737.124,147.62
1480.836,-719.8,93.696
1421.3,-802.272,59.048
1367.132,-761.768,-39.528
1326.14,-662.216,-186.416
1229.516,-600.972,-289.628
1186.328,-537.288,-426.512
1194.868,-483.12,-499.956
1055.544,-440.42,-523.136
920.612,-376.248,-519.72
850.096,-332.572,-476.288
817.888,-281.332,-415.288
745.42,-245.22,-329.644
770.796,-265.96,-352.092
878.156,-203.984,-341.6
797.88,-177.876,-356.484
744.2,-152.012,-303.292
773.48,-57.584,-271.084
870.348,10.248,-173.972
1052.128,-57.34,4.636
1156.316,-2.196,39.284
1195.844,163.48,-14.884
1152.168,188.612,71.492
1108.736,187.636,183.488
1177.544,92.476,96.624
1128.5,101.992,277.672
1104.344,89.304,335.256
1084.336,233.02,186.904
1099.464,309.392,71.248
1080.188,353.068,132.248
1149.484,357.948,250.344
1144.604,421.876,155.672
877.668,472.384,-13.42
705.892,495.32,-25.376
830.576,585.6,15.86
862.54,653.92,74.42
779.58,705.404,-25.132
674.172,797.148,-155.428
574.62,713.456,-0.488
603.168,718.336,172.752
675.88,818.132,51.728
725.656,881.816,-69.54
500.688,781.288,-61.0
490.928,800.564,-64.66
503.86,803.248,-61.732
356.972,825.94,-130.052
349.408,881.328,-118.096
312.32,904.264,-120.536
253.516,908.412,-129.564
282.796,938.424,-142.496
398.94,1016.748,-185.684
404.064,1044.076,-150.792
272.06,996.74,-95.648
191.54,954.04,-88.328
217.648,950.868,-112.24
298.168,971.608,-66.612
224.724,951.112,-60.268
147.376,909.876,-47.824
170.8,907.68,-24.644
198.86,961.848,-100.772
71.248,913.048,-72.712
31.476,873.276,-66.124
191.052,957.456,-29.524
155.916,929.64,-89.304
132.492,944.768,-116.144
128.344,951.356,-85.644
139.324,955.504,-47.092
97.112,888.404,5.612
121.512,939.644,-33.916
99.796,937.936,-80.276
82.716,924.272,-82.96
100.772,921.344,-30.012
135.664,933.544,-17.324
122.0,976.488,-78.324
78.568,954.284,-66.856
97.844,953.308,-50.264
70.516,947.452,-9.76
82.716,943.792,-30.256
95.892,986.492,-82.96
88.084,1017.968,-86.62
90.036,1041.88,-70.76
107.116,1026.508,-13.664
98.088,1018.7,-23.668
56.608,1010.892,-43.92
36.112,976.976,-36.112
72.468,988.444,-27.816
158.356,1032.364,-31.476
136.884,1015.528,-14.152
74.176,992.348,-28.548
63.684,981.612,-23.668
73.688,964.288,0.976
94.428,973.316,-4.392
97.356,980.636,-29.036
92.476,980.148,-30.012
88.572,974.78,-14.152
86.376,959.652,5.124
58.804,942.084,-2.684
115.656,997.96,-10.98
92.476,987.956,-42.944
93.94,993.812,-25.62
105.164,987.956,-23.424
99.308,994.788,-41.236
65.636,988.2,-40.748
99.064,1009.916,-29.524
60.024,990.152,-45.14
91.5,1007.232,-38.308
72.224,1011.624,-47.58
72.468,1011.38,-40.992
80.764,1008.208,-34.404
86.132,1017.724,-47.092
72.712,1018.212,-51.24
40.992,1006.988,-50.264
46.604,1016.748,-64.416
59.536,1033.828,-77.104
90.28,1076.772,-65.636
65.148,1063.108,-65.88
62.708,1057.496,-66.612
66.612,1037.732,-51.972
63.196,1031.876,-54.412
40.748,1013.088,-51.24
54.168,1000.644,-42.7
70.516,1013.82,-59.536
44.164,1007.964,-64.66
47.58,1006.744,-48.312
71.736,1019.188,-67.588
64.904,1027.484,-87.108
19.276,1027.728,-106.14
13.664,1021.872,-104.188
45.872,1084.336,-135.176
25.864,1067.012,-129.32
60.512,1089.216,-146.156
52.704,1100.196,-172.996
-6.832,1063.596,-148.84
-7.32,1029.924,-130.54
0.488,1043.344,-145.18
6.344,1055.056,-140.788
10.492,1046.76,-118.828
44.164,1064.816,-118.34
40.748,1065.792,-88.572
34.892,1059.692,-78.08
1.952,1050.664,-90.524
-5.368,1044.808,-76.86
43.92,1036.268,-41.236
64.416,1022.116,-18.788
52.216,1012.6,-11.224
20.008,977.464,-11.956
0.488,961.116,7.808
-47.336,930.372,16.836
-68.32,891.82,21.228
-52.216,896.456,61.976
-36.844,906.46,13.176
-10.492,903.532,42.212
-21.96,861.808,110.532
-26.108,855.464,81.984
-31.964,857.904,88.816
-27.084,855.952,98.82
-18.056,875.716,85.156
-16.348,892.796,56.364
-34.648,858.148,123.22
-44.652,837.408,111.996
-35.624,847.656,75.396
-5.124,882.06,73.2
-35.136,879.62,70.272
-32.208,906.948,57.096
-54.656,914.756,44.652
-11.712,924.028,62.708
-17.568,917.196,40.504
7.564,946.232,41.48
35.868,975.756,26.596
35.38,993.324,20.008
35.624,1008.696,0.976
33.184,1019.92,-9.516
30.744,1018.456,-23.912
40.504,1003.572,-1.464
53.68,982.588,4.392
112.728,999.18,-50.996
170.068,1034.072,-91.256
145.668,1016.504,-55.632
124.196,982.588,-26.84
107.848,941.84,-23.912
128.1,900.36,-36.356
119.072,894.26,-52.948
112.484,803.492,-110.288
222.772,782.752,-201.544
424.804,817.156,-223.748
448.716,710.284,-159.332
467.016,602.436,-7.32
595.36,570.472,131.272
557.54,488.976,61.488
604.632,355.264,-69.296
971.852,320.616,-77.348
1171.2,284.26,125.66
1008.452,204.96,285.48
1004.792,158.844,210.084
1142.408,136.152,266.204
1247.084,100.772,303.292
1270.752,49.532,375.76
1419.592,55.144,397.232
1418.128,23.668,459.452
1456.192,-8.296,526.308
1401.78,-71.98,651.48
1360.056,-103.7,729.56
1352.492,-123.464,765.184
1311.5,-133.956,788.12
1237.324,-99.064,780.068
1156.316,-101.26,787.876
1103.368,-119.56,819.596
986.248,-126.88,796.66
882.792,-113.948,739.076
734.928,-72.712,699.06
619.272,-66.124,628.056
512.156,-96.868,524.356
352.824,-113.46,451.156
301.584,-112.972,307.928
255.224,-104.92,176.412
203.74,-131.028,13.908
296.704,-119.316,-154.94
354.288,-104.92,-335.5
382.104,-86.132,-471.408
475.068,-77.104,-627.568
596.336,-53.192,-772.992
636.352,-30.012,-863.028
632.936,-17.324,-933.788
720.776,-10.98,-985.028
802.272,-31.232,-998.692
808.616,-49.776,-981.612
772.748,-105.408,-900.116
745.664,-171.776,-767.624
804.468,-263.276,-638.304
823.012,-362.096,-463.112
901.58,-415.776,-331.84
982.588,-439.932,-200.812
968.924,-466.284,-79.3
973.072,-500.932,97.844
1067.256,-534.36,272.06
1152.168,-570.228,410.164
1166.076,-591.456,557.052
1320.772,-578.036,658.556
1403.976,-588.528,740.54
1447.164,-586.576,786.9
1428.62,-630.984,853.024
1432.036,-663.192,846.192
1419.592,-657.824,810.324
1418.86,-629.764,684.42
1441.796,-601.704,520.208
1390.312,-617.808,398.452
1315.892,-667.584,301.34
1338.096,-714.432,144.936
1268.312,-684.908,-18.544
1240.252,-612.196,-179.096
1163.392,-556.32,-273.524
1075.552,-519.964,-349.164
1002.596,-481.168,-380.64
930.616,-455.06,-347.456
822.768,-445.788,-277.916
761.768,-432.856,-213.5
750.056,-420.656,-149.084
771.772,-391.864,-95.892
808.372,-396.5,-24.156
762.256,-401.136,40.504
812.52,-384.544,94.184
899.14,-380.884,164.7
851.072,-419.436,225.456
901.824,-419.436,263.032
952.332,-377.712,305.0
909.144,-364.536,308.172
959.896,-343.796,303.536
1013.576,-333.06,289.14
911.34,-360.632,280.112
1013.576,-316.468,268.888
1032.364,-296.216,245.952
1059.448,-261.812,241.316
1069.452,-238.876,245.22
954.528,-239.364,240.096
948.916,-224.968,192.76
1076.772,-164.944,133.712
1078.968,-130.54,139.324
1052.128,-103.7,179.34
1043.1,-82.228,125.66
1004.304,-55.144,86.62
1026.752,-17.568,93.452
1101.172,3.416,52.216
1088.972,55.632,61.732
1072.38,85.4,31.476
994.788,107.116,59.536
1009.184,141.764,25.376
1057.496,178.852,5.856
1074.82,214.476,26.352
1039.196,257.176,0.732
964.776,251.564,1.952
961.36,319.64,38.552
1025.776,394.06,17.812
991.86,416.02,-10.736
953.552,448.96,-51.24
1016.016,510.204,-79.788
915.488,527.04,1.708
827.16,548.268,11.956
845.46,601.704,-80.764
850.096,630.008,-99.308
803.248,665.632,-13.42
809.104,719.8,-39.528
797.148,755.912,-195.688
770.552,782.02,-176.412
667.096,789.828,-43.188
673.196,805.2,-57.34
675.148,833.992,-162.016
624.884,875.716,-167.14
551.44,865.712,-95.648
544.852,857.904,-79.788
489.22,860.832,-39.284
445.056,878.888,-66.856
437.004,883.036,-107.604
435.296,894.748,-110.532
458.476,931.348,-96.624
355.264,917.684,-38.552
324.52,881.328,-71.004
274.012,908.656,-96.624
254.492,881.328,-80.52
320.616,917.928,-103.456
273.768,904.996,-97.844
290.116,921.832,-124.928
279.868,945.744,-126.88
219.844,937.204,-121.756
140.788,913.536,-104.676
148.108,903.044,-57.096
128.588,888.648,-62.708
178.12,916.952,-142.008
180.316,932.08,-122.0
169.58,926.712,-51.972
142.74,917.928,-25.62
141.276,910.852,-55.144
148.108,908.168,-27.328
207.156,931.104,-68.076
197.396,948.428,-51.728
198.86,948.916,-37.576
230.092,961.116,-39.284
249.124,977.952,-29.768
256.444,978.684,-9.028
220.82,976.244,1.952
216.428,977.952,-23.424
240.584,989.664,-42.456
224.48,992.348,-8.296
220.82,992.104,-13.42
220.576,991.372,-13.908
198.86,984.54,-15.372
221.308,995.032,-32.696
230.336,1005.036,-52.46
198.86,996.984,-37.82
193.492,995.032,-7.076
220.576,997.228,-26.108
219.112,1003.084,-53.436
185.928,991.86,-47.336
196.176,1000.888,-45.384
225.456,1016.26,-52.46
198.372,1012.6,-18.3
188.124,1019.92,-32.208
175.436,1015.528,-60.024
181.536,1026.996,-63.44
188.612,1043.832,-58.804
185.196,1061.644,-98.576
169.824,1071.648,-109.312
195.2,1066.036,-83.448
199.592,1066.036,-59.78
183.976,1036.756,-59.292
154.452,1025.044,-48.556
162.016,1020.164,-56.364
169.092,1018.212,-61.0
189.832,1018.456,-52.704
162.26,1001.62,-31.232
126.636,995.276,-41.236
115.168,987.956,-46.848
142.74,993.08,-31.964
144.936,991.128,-22.936
133.956,991.372,-22.936
151.28,1013.82,-46.848
145.18,996.984,14.64
150.548,986.248,50.508
139.568,977.708,40.016
149.816,986.98,-0.244
128.1,985.516,-1.464
121.024,987.956,1.22
117.852,990.152,11.712
111.02,991.616,48.556
101.748,991.616,10.248
61.732,980.636,-28.792
51.484,975.756,-22.204
75.396,981.856,-14.64
79.544,985.272,2.44
84.668,984.784,14.396
86.376,988.932,38.308
95.892,979.66,39.04
78.08,982.588,27.328
50.02,982.344,14.396
50.508,993.568,-24.4
86.62,1016.748,-28.792
67.832,1005.768,31.476
66.856,994.788,34.648
41.48,979.66,-6.1
47.824,958.676,-8.296
48.312,937.448,12.2
19.032,905.972,9.516
-5.856,884.988,-36.844
26.84,873.52,11.468
48.068,845.948,59.78
50.264,850.34,11.224
24.4,842.044,37.332
-4.88,815.692,103.7
32.94,840.58,81.252
41.236,866.932,46.36
54.412,887.184,41.48
41.48,915.244,17.812
65.148,963.556,-20.74
61.732,987.468,4.88
69.052,980.392,62.708
117.852,1003.572,102.236
140.544,1006.5,31.232
146.156,1022.116,7.564
143.716,1015.528,16.104
158.6,1008.208,12.444
179.828,998.448,43.676
155.428,992.104,68.32
88.816,947.452,55.632
162.748,927.2,66.124
324.52,921.1,42.212
468.48,916.952,20.74
503.128,904.752,-97.112
395.524,844.484,-165.188
271.572,750.3,-49.532
342.576,672.464,131.516
588.04,627.812,145.912
806.664,634.156,39.772
748.836,530.456,-17.08
870.592,484.828,-49.044
998.936,466.284,-48.068
1043.1,305.488,-40.504
929.884,196.176,131.028
801.052,124.928,272.06
987.956,97.844,233.02
998.936,40.748,254.736
1002.352,-16.104,300.12
1077.992,3.416,277.428
1279.048,48.556,116.144
1360.3,62.708,28.304
1374.94,106.14,53.68
1356.64,95.648,149.328
1380.308,53.436,213.744
1355.908,52.704,291.824
1335.9,-26.108,325.008
1353.468,-55.388,396.5
1385.188,-60.024,429.196
1270.996,-77.348,548.756
1075.552,-162.504,621.468
1165.344,-59.78,599.996
995.276,-151.768,536.068
831.552,-123.22,488.244
779.58,-174.46,478.484
746.884,-181.048,377.468
625.86,-105.408,221.064
489.952,-19.276,144.448
462.624,-8.54,5.856
432.368,45.14,-184.464
403.332,61.0,-258.64
332.816,61.976,-336.964
268.644,92.232,-444.324
360.632,71.248,-545.096
518.988,39.772,-679.052
537.044,75.64,-812.032
526.064,68.32,-867.908
579.744,45.14,-894.016
619.516,38.552,-910.852
671.976,-29.036,-872.056
683.444,-54.656,-850.828
718.092,-88.816,-812.764
732.488,-147.376,-727.12
820.572,-218.136,-645.38
866.688,-274.5,-569.984
833.504,-286.944,-453.84
793.732,-332.328,-266.692
885.232,-406.26,-166.896
963.312,-443.592,-60.756
1026.02,-437.492,28.548
1093.12,-424.56,102.724
1210.972,-447.984,191.784
1301.984,-491.416,298.168
1402.756,-537.044,439.688
1591.124,-576.328,482.876
1615.768,-594.384,489.22
1651.148,-601.704,481.412
1699.948,-625.616,470.432
1660.664,-642.452,528.26
1610.4,-643.184,466.528
1558.428,-677.588,351.848
1442.284,-717.36,260.348
1380.064,-689.788,107.36
1331.752,-659.288,-80.52
1216.34,-656.36,-184.952
1136.064,-623.176,-274.744
1057.984,-583.404,-334.524
979.416,-534.848,-366.976
931.104,-513.864,-379.42
843.264,-496.54,-346.968
776.408,-438.712,-344.04
777.384,-378.444,-301.34
766.892,-359.9,-215.452
761.036,-374.784,-111.264
782.996,-366.244,-70.76
795.684,-370.636,21.228
799.832,-363.56,87.596
889.624,-318.908,111.02
889.624,-326.228,182.024
867.42,-298.9,232.288
979.66,-271.084,224.724
1009.428,-296.216,244.732
1055.056,-279.868,260.836
1117.032,-278.648,263.032
1023.824,-295.24,262.3
927.2,-248.148,254.004
951.844,-190.564,196.908
1034.316,-123.952,130.784
1057.496,-115.168,162.016
1073.112,-86.132,143.96
1086.288,-7.076,165.432
1086.776,45.872,133.468
1037.244,135.908,36.844
1071.16,170.8,20.74
1037.488,201.056,48.312
1019.92,227.652,73.2
1002.108,233.02,87.108
963.556,315.004,21.228
992.104,354.532,-23.912
981.124,375.76,90.036
996.984,396.988,96.136
973.56,431.88,51.24
944.28,488.244,16.348
913.292,525.576,19.52
891.82,530.944,70.516
854.244,540.704,75.396
817.156,578.28,45.384
839.848,650.992,5.124
843.996,711.016,8.784
771.284,704.672,40.748
657.824,682.956,51.972
593.652,719.8,13.42
619.516,810.812,-51.728
619.272,849.364,-39.772
561.444,813.252,-4.148
493.368,810.08,-7.076
454.816,883.28,-85.4
434.076,930.372,-121.268
454.328,905.972,-47.824
429.684,910.364,-12.2
401.624,917.928,-52.948
360.632,931.348,-71.248
357.948,934.52,-61.732
365.756,933.056,-23.18
354.288,924.272,0.488
329.888,927.932,-15.372
319.152,943.304,-32.208
298.168,948.428,-26.108
220.82,909.144,-12.932
258.64,934.276,-17.812
235.704,955.504,-30.988
190.32,958.188,-45.384
180.56,955.016,-48.8
120.292,929.396,-29.524
128.832,938.668,-46.116
129.564,964.532,-71.492
136.884,975.024,-76.372
122.244,964.532,-49.044
80.032,942.816,-51.728
47.092,935.984,-79.056
39.04,942.328,-96.136
67.1,969.9,-89.06
75.884,975.512,-67.1
78.08,985.272,-72.224
72.224,979.172,-79.544
54.9,956.724,-77.592
55.144,970.876,-88.328
68.808,991.128,-81.74
73.932,983.32,-60.512
69.784,980.88,-55.388
62.952,973.316,-66.124
56.12,963.556,-69.296
54.9,985.028,-74.664
44.164,978.684,-60.024
62.22,986.004,-57.096
82.228,999.18,-56.852
76.128,1005.28,-63.196
64.172,1008.208,-66.124
54.168,995.764,-62.22
58.072,996.984,-65.392
70.272,1000.4,-57.34
57.096,976.0,-53.924
62.22,973.316,-58.072
77.104,995.276,-65.392
68.564,988.688,-56.364
58.804,995.52,-66.368
61.976,1002.84,-72.956
52.46,992.592,-69.052
54.656,987.956,-66.612
64.172,996.496,-71.736
53.68,1000.644,-76.128
46.36,993.324,-63.196
50.996,992.836,-60.024
60.756,1004.06,-67.344
56.364,1007.476,-70.76
46.848,1014.308,-79.544
42.944,1026.752,-84.912
43.92,1037.488,-91.5
41.236,1047.98,-90.768
24.156,1058.472,-106.14
4.88,1067.256,-123.22
-15.372,1071.648,-133.224
-30.012,1080.676,-143.472
-26.352,1087.264,-138.348
-5.612,1074.82,-116.144
15.372,1076.528,-118.096
18.056,1070.184,-117.364
7.808,1028.948,-85.888
6.344,1020.164,-84.668
-4.148,1007.964,-77.836
-4.148,1000.4,-68.32
29.036,1010.16,-69.784
-0.732,1009.428,-56.608
9.76,1020.408,-57.34
10.98,1019.676,-57.584
1.952,1010.892,-55.632
-20.008,1000.644,-49.532
-20.008,998.692,-53.436
-31.476,1012.844,-72.468
-39.04,1023.092,-78.324
-48.312,1020.652,-71.98
-53.924,1016.26,-72.224
-74.176,995.52,-68.564
-95.648,982.832,-74.908
-108.58,974.048,-65.392
-109.312,979.904,-62.464
-104.92,996.74,-71.736
-117.852,1016.504,-78.812
-132.492,991.86,-54.9
-120.536,981.612,-39.528
-113.704,969.656,-34.648
-98.82,978.928,-33.184
-97.356,987.468,-32.94
-122.0,960.872,-22.936
-128.588,938.912,-16.592
-122.244,930.86,-21.228
-120.536,919.148,-20.008
-104.188,898.896,0.732
-105.164,899.872,-5.856
-123.708,900.848,-19.52
-149.084,881.572,-19.764
-159.576,861.32,-19.52
-158.356,840.58,-8.052
-130.784,855.708,-12.2
-127.368,868.152,-16.104
-142.008,874.008,-20.984
-167.384,864.492,-15.128
-186.66,881.572,-46.36
-193.248,880.84,-36.356
-179.828,896.456,-32.94
-155.428,930.128,-39.528
-142.984,942.816,-40.504
-120.536,978.196,-73.932
-55.632,1057.252,-105.164
-15.128,1078.724,-88.816
-21.228,1052.128,-56.12
-83.204,1023.092,-81.74
-72.468,1050.176,-127.124
65.392,1099.952,-179.828
206.18,1120.936,-139.812
305.0,1054.812,-29.28
333.06,985.76,-13.664
252.784,968.436,-56.12
224.48,1043.832,-211.304
199.348,1011.38,-208.62
333.548,909.144,-176.168
445.3,748.104,-132.492
701.988,590.236,109.556
713.456,583.892,96.624
367.22,461.648,-2.928
466.528,240.828,268.644
1075.064,62.952,386.496
1200.968,-15.372,176.656
1078.968,-1.952,348.432
1154.608,-83.204,504.592
1304.18,-38.308,477.264
1514.752,-46.36,353.8
1376.16,-96.624,528.992
1224.636,-127.124,750.3
1260.504,-192.272,775.92
1213.412,-286.7,862.54
1085.312,-353.312,920.856
1093.12,-383.568,939.156
983.32,-394.06,996.74
895.724,-360.144,959.408
800.32,-316.224,886.208
736.636,-266.692,813.252
658.312,-209.596,689.3
546.316,-173.484,553.392
420.412,-105.164,424.804
299.388,-21.716,294.508
275.72,18.788,119.804
289.872,107.848,-68.32
244.732,122.488,-164.456
244.244,147.62,-309.88
291.336,158.844,-454.572
453.84,160.308,-637.084
531.432,152.5,-759.816
599.996,174.948,-846.924
659.288,149.328,-894.26
752.984,137.128,-949.648
826.428,99.308,-936.472
864.736,10.004,-868.884
919.88,-54.412,-816.912
890.356,-100.772,-677.588
932.08,-152.012,-546.804
954.04,-192.516,-419.924
930.616,-247.66,-252.296
940.864,-266.204,-132.248
950.624,-274.988,-5.368
975.024,-274.988,97.6
1027.484,-301.584,211.304
1108.736,-320.86,340.38
1205.604,-356.972,446.52
1269.776,-398.452,561.2
1388.36,-459.452,662.216
1455.948,-523.136,705.892
1502.308,-557.784,674.66
1562.82,-566.08,605.608
1625.284,-524.844,496.54
1636.264,-467.992,361.608
1548.424,-476.776,301.34
1474.98,-500.688,209.84
1413.98,-551.44,128.832
1367.132,-547.048,-6.588
1222.684,-491.66,-105.652
984.54,-431.636,-94.916
910.364,-357.216,-103.456
909.632,-313.54,-151.524
881.084,-294.264,-183.732
881.816,-259.616,-204.228
809.348,-243.268,-128.588
788.12,-238.144,-67.832
878.888,-234.484,-52.948
907.68,-238.388,-0.488
878.888,-236.436,76.616
895.724,-238.632,142.984
922.564,-267.424,223.016
947.94,-281.088,271.084
988.444,-310.612,301.828
1031.388,-320.372,326.228
1023.336,-306.952,332.328
1002.596,-289.872,328.424
913.536,-248.148,343.796
758.84,-181.292,335.256
958.432,-148.596,318.664
1102.88,-130.296,296.216
1086.288,-127.368,233.996
1016.504,-48.8,200.812
912.56,-18.544,211.792
965.752,36.844,203.496
1083.848,45.872,192.76
1160.952,54.656,124.196
1118.252,112.24,120.78
993.08,173.484,130.052
913.292,221.796,140.056
927.444,279.136,133.712
965.996,289.384,127.856
986.736,315.004,142.252
996.74,385.032,113.46
1010.16,410.164,125.416
1025.288,412.36,141.276
987.224,487.268,131.028
912.072,515.816,107.116
831.796,555.832,81.496
731.024,586.82,72.956
665.876,606.584,101.504
687.348,638.06,134.2
667.096,698.816,97.112
648.064,770.064,29.28
551.928,814.228,16.348
590.236,916.952,21.716
529.48,832.772,68.564
454.816,884.744,26.596
411.872,928.908,-3.416
366.976,909.632,10.248
313.052,865.712,47.336
327.692,944.036,12.688
319.396,967.704,2.928
290.36,955.748,17.568
274.012,946.72,30.012
218.624,949.648,5.124
181.78,975.512,-21.472
162.26,996.008,-33.428
116.632,1005.768,-39.772
102.236,1001.376,-50.264
95.404,1015.04,-61.732
98.576,1006.988,-51.24
80.032,1028.216,-72.712
45.14,1036.268,-83.936
-4.88,1022.36,-94.428
-31.476,991.372,-97.844
-4.88,997.472,-94.184
12.688,1007.232,-94.184
-0.244,1006.256,-83.936
-32.452,980.392,-82.716
-26.84,985.028,-75.884
0.732,978.928,-62.708
7.32,980.88,-56.608
-6.344,984.296,-59.78
-24.888,979.66,-58.804
-36.112,966.972,-63.928
-32.208,985.272,-76.86
-23.668,998.936,-79.788
-29.036,998.204,-72.468
-40.016,995.276,-77.592
-34.404,997.228,-76.372
-34.404,996.252,-75.884
-27.328,982.1,-70.76
-22.204,996.74,-69.296
-37.82,992.104,-68.564
-39.528,984.052,-64.416
-27.572,980.636,-54.412
-31.72,980.636,-62.708
-43.432,990.396,-75.152
-53.436,979.172,-70.028
-42.212,992.592,-72.956
-33.916,1004.548,-71.98
-32.208,1004.792,-66.368
-30.988,1001.376,-63.684
-36.112,985.028,-61.244
-44.164,969.168,-71.98
-38.308,973.56,-71.736
-38.308,980.88,-73.2
-37.82,992.104,-75.64
-33.672,1002.84,-78.08
-30.744,1001.376,-75.64
-26.352,990.64,-67.344
-25.864,985.516,-66.124
-30.744,988.444,-68.808
-34.404,1010.892,-82.228
-27.572,1009.184,-71.492
-15.372,1010.648,-64.416
-15.128,1007.964,-65.636
-22.448,992.348,-61.976
-24.644,985.76,-58.56
-23.18,993.812,-63.44
-28.304,986.492,-61.488
-22.448,1007.476,-72.224
-39.528,1032.12,-93.94
-59.292,1023.336,-94.428
-60.512,1022.36,-97.6
-50.996,1024.312,-94.428
-40.26,1025.532,-96.624
-40.016,1043.588,-102.724
-57.34,1037.732,-108.824
-75.152,1028.704,-108.092
-69.052,1031.876,-104.432
-51.728,1047.004,-110.044
-42.944,1046.028,-113.216
-50.508,1027.484,-115.656
-65.392,1022.604,-125.904
-84.18,1030.412,-138.348
-100.772,1033.34,-138.348
-114.68,1031.876,-137.616
-95.16,1036.024,-130.296
-73.2,1026.264,-114.924
-58.072,1038.952,-114.192
-49.288,1045.052,-111.264
-61.732,1020.164,-93.208
-75.152,1008.452,-86.132
-78.568,1022.604,-78.324
-64.66,1030.412,-71.98
-43.188,1010.16,-60.024
-13.908,1023.58,-67.1
-6.588,1038.22,-67.832
-10.736,1028.948,-56.852
-27.328,1001.376,-44.164
-38.796,984.784,-49.288
-23.424,1006.988,-56.364
-10.736,1021.628,-51.728
-5.612,1015.528,-38.796
-12.444,994.3,-27.084
-31.232,978.928,-33.184
-40.016,989.42,-49.288
-26.352,1022.604,-48.8
-25.62,1007.72,-24.644
-31.232,998.448,-11.956
-46.604,993.324,-30.5
-66.368,968.436,-45.628
-75.884,959.408,-47.824
-82.716,984.784,-59.78
-80.764,1015.04,-59.048
-95.16,1026.996,-64.172
-109.8,993.08,-57.34
-96.624,989.42,-59.048
-70.272,991.372,-44.164
-62.708,968.436,-14.396
-76.86,946.964,-6.344
-81.496,945.5,-8.296
-76.86,943.792,-3.904
-80.52,915.976,12.688
-85.156,909.388,18.544
-82.716,889.624,28.06
-77.592,851.316,46.36
-77.104,833.504,54.412
-90.28,829.112,55.144
-112.24,819.596,55.388
-124.928,801.296,59.048
-129.564,816.668,48.556
-120.78,836.188,43.92
-120.536,865.468,28.304
-126.392,885.232,17.568
-124.928,899.14,17.324
-149.816,890.844,2.928
-163.48,921.832,-29.28
-132.492,975.268,-37.088
-115.168,992.592,-28.304
-111.996,976.244,-58.56
-139.08,1011.38,-37.088
-113.216,982.832,-72.468
-76.86,1027.972,-77.104
-12.688,1033.828,-40.26
17.812,978.928,27.816
40.26,966.484,-0.244
153.232,1014.552,-93.208
290.116,1139.236,-91.988
297.924,1124.352,-96.38
312.808,1079.944,-144.204
432.124,1094.34,-160.308
492.148,1022.116,-171.288
501.664,967.46,-113.216
472.384,865.956,-106.628
480.924,764.94,-122.976
508.496,680.272,-126.636
596.336,661.728,-57.34
586.576,529.236,36.6
800.564,409.188,-120.048
1150.46,438.956,-184.464
1149.728,243.268,-122.732
1115.568,89.304,20.496
1213.656,56.852,7.808
1114.104,-25.132,38.064
1143.14,-71.736,109.068
1232.688,-119.56,158.6
1337.608,-136.64,222.04
1372.744,-202.52,324.764
1416.176,-237.168,375.76
1458.388,-255.956,414.068
1453.996,-342.576,515.084
1355.908,-386.984,588.04
1251.476,-355.752,617.808
1086.044,-315.004,625.616
911.584,-324.52,736.148
811.3,-348.188,795.928
773.724,-249.856,731.268
652.456,-176.168,692.716
670.024,-161.284,589.016
577.06,-158.6,476.288
411.384,-69.784,358.924
271.084,-5.368,223.992
166.408,104.676,43.188
94.428,176.412,-110.532
106.384,234.24,-290.604
131.516,276.94,-509.472
223.504,322.812,-720.288
274.5,369.66,-884.256
315.98,377.956,-990.396
365.512,348.432,-1044.32
449.692,296.704,-1116.544
551.684,264.252,-1160.22
595.848,238.632,-1130.696
605.364,213.012,-1085.556
609.268,179.34,-1018.7
600.484,110.044,-880.84
670.756,26.352,-762.744
754.936,-87.108,-608.292
787.632,-172.996,-446.032
806.664,-249.856,-319.152
827.404,-306.22,-210.084
912.316,-267.424,-109.068
1026.508,-281.332,-32.94
1109.712,-328.424,33.428
1262.456,-371.856,127.368
1314.672,-406.26,280.844
1299.544,-447.74,437.98
1268.556,-528.016,542.656
1262.456,-536.312,647.576
1356.64,-562.176,651.48
1474.248,-580.72,576.328
1502.064,-532.408,478.728
1541.592,-488.976,406.504
1611.864,-472.384,287.188
1564.284,-481.9,215.94
1530.124,-492.88,150.06
1557.94,-517.524,54.168
1467.904,-542.9,14.884
1359.568,-529.724,-13.42
1222.684,-516.548,-49.532
1140.944,-498.736,-126.392
1108.98,-463.356,-202.276
1060.668,-409.432,-261.812
1001.132,-341.844,-289.384
906.46,-295.972,-289.628
808.372,-250.832,-270.108
759.084,-218.136,-229.604
726.876,-203.74,-176.412
761.524,-209.84,-150.06
817.156,-224.968,-127.368
857.172,-211.304,-78.08
874.984,-214.232,-12.688
916.464,-226.432,36.6
974.048,-257.42,104.432
989.664,-294.996,173.972
1011.868,-340.136,244.732
1004.06,-373.32,283.528
973.072,-361.608,311.832
1016.504,-332.816,328.18
1058.228,-324.032,337.452
1079.944,-348.432,344.772
936.472,-323.3,324.52
771.284,-187.88,288.408
934.52,-115.412,288.652
1090.924,-137.86,284.26
1174.128,-107.116,229.604
1080.92,-53.68,152.988
831.064,40.748,113.46
825.452,149.328,150.304
1017.968,119.316,138.592
1111.908,124.44,111.508
1167.784,183.0,84.912
1055.788,157.38,64.172
927.688,236.68,61.732
927.444,255.468,74.908
930.128,271.084,81.496
986.736,374.052,33.428
930.616,370.88,31.964
909.876,474.824,75.884
916.22,508.984,82.228
885.72,591.7,42.212
866.932,671.976,37.088
871.812,718.824,83.692
701.5,721.508,94.184
691.74,766.648,50.264
662.216,793.244,68.076
652.944,839.604,67.344
599.508,872.3,62.464
519.232,880.352,74.664
396.988,853.756,61.488
246.196,823.012,48.556
189.832,854.976,26.596
270.108,974.048,11.468
305.244,985.76,0.976
316.468,1038.952,29.28
293.776,977.22,45.872
239.364,961.116,38.064
214.476,964.044,19.52
203.496,961.116,23.668
186.66,945.988,41.968
173.972,964.044,18.544
122.0,980.392,1.464
85.156,948.672,8.052
66.124,930.372,20.984
67.344,937.936,2.684
71.004,957.944,10.98
70.272,1002.352,-4.636
54.168,1023.092,-7.076
53.436,1025.532,-11.224
74.664,1025.288,-13.908
88.572,1039.44,-10.492
47.824,1001.376,-14.884
17.568,984.296,-18.056
-4.636,993.812,-37.332
15.616,998.448,-46.604
56.364,1004.304,-18.544
66.612,1021.872,-7.32
53.436,1007.476,-4.148
40.26,987.712,-13.176
40.992,982.832,-18.544
53.924,969.9,-4.392
29.036,968.68,-4.148
45.872,1009.672,-6.832
25.864,993.812,-13.176
14.396,990.396,-20.252
25.376,989.176,-16.104
39.284,992.592,-16.348
42.944,991.86,-18.544
47.824,1006.012,-24.156
40.016,1006.012,-28.06
34.16,996.252,-23.668
36.6,989.42,-25.864
42.212,992.592,-26.84
28.792,1002.352,-47.336
9.516,996.496,-47.824
14.884,985.272,-42.456
29.036,985.028,-31.476
29.524,997.472,-35.624
28.06,1002.108,-33.916
31.232,994.3,-25.132
36.844,1006.256,-27.328
37.332,1015.772,-29.28
32.696,1012.844,-30.5
23.912,1008.696,-36.112
8.052,998.448,-39.772
5.124,1001.62,-44.896
9.516,1000.888,-41.724
16.592,1005.036,-40.748
13.908,1014.796,-46.848
-1.952,1009.672,-50.264
-0.244,1014.796,-46.116
14.152,1011.136,-35.868
21.716,1017.236,-34.892
14.396,1019.92,-45.384
2.196,1009.916,-46.36
-11.224,1000.644,-48.556
-17.812,999.912,-48.068
-5.368,1001.864,-40.748
2.928,1004.548,-40.26
2.44,1015.04,-38.796
1.708,1012.844,-37.332
22.692,1003.816,-28.792
41.236,1001.132,-21.716
41.968,987.468,-13.908
29.524,973.316,-14.396
14.884,978.44,-20.008
2.196,993.08,-30.5
4.148,1005.524,-44.408
14.396,1006.988,-41.724
10.98,1026.996,-57.584
4.636,1067.5,-68.076
-10.248,1080.92,-70.76
-18.056,1073.6,-65.392
-5.124,1070.916,-68.564
12.688,1052.128,-64.172
10.736,1032.852,-63.684
-0.732,1031.632,-61.732
-8.052,1025.776,-59.78
-7.564,1009.672,-50.264
-10.004,999.424,-54.168
-6.1,985.028,-47.824
6.1,982.1,-37.82
2.928,1001.864,-42.944
-25.62,1025.288,-61.732
-54.412,1029.192,-76.372
-51.728,1037.0,-76.372
-26.596,1031.144,-55.876
-0.732,1013.82,-35.136
-6.1,999.424,-37.088
-27.328,993.568,-51.972
-41.48,1015.04,-61.0
-40.992,1003.816,-42.7
-35.38,987.712,-31.964
-24.156,998.692,-41.236
-24.888,1032.364,-51.24
-43.432,1036.268,-51.24
-46.36,1022.848,-41.968
-27.084,1026.752,-32.208
-20.74,1025.532,-33.428
-25.864,1022.848,-43.188
-61.732,1050.176,-61.976
-95.404,1022.604,-55.144
-80.032,1001.132,-40.016
-51.24,1022.604,-30.5
-64.904,1022.116,-32.94
-86.62,1021.384,-36.356
-95.648,1034.804,-39.284
-114.192,1025.044,-37.332
-124.928,993.324,-25.864
-114.924,967.704,-23.18
-122.0,960.628,-31.476
-151.524,939.644,-25.62
-135.42,937.204,-6.832
-104.676,941.596,15.616
-87.108,947.208,27.084
-101.504,902.068,38.552
-112.972,867.908,37.576
-120.536,843.508,37.576
-101.016,834.724,44.652
-58.316,833.26,72.956
-35.868,835.7,87.108
-58.804,821.304,87.352
-96.624,784.216,75.884
-132.98,791.536,44.896
-150.548,818.376,13.42
-160.552,842.044,-8.296
-154.696,874.74,-13.176
-153.964,888.648,-12.444
-156.648,911.828,-34.892
-160.796,953.064,-66.368
-169.58,972.34,-84.18
-174.216,981.856,-88.816
-172.02,1003.084,-96.38
-163.48,996.252,-80.032
-150.548,988.2,-83.204
-152.744,998.936,-91.256
-155.916,1000.4,-98.82
-152.012,1008.94,-111.508
-150.548,1022.36,-124.684
-158.844,1025.288,-132.248
-138.348,1024.312,-111.996
-116.388,1021.628,-97.356
-101.504,992.348,-84.912
-65.148,992.592,-81.252
-17.08,1044.076,-103.212
-3.172,1022.116,-102.724
-45.384,980.88,-153.232
-33.184,1059.936,-230.336
28.304,1146.8,-244.976
172.02,1154.852,-200.324
377.956,1189.744,-81.496
428.464,1161.196,-101.504
289.14,1046.516,-135.908
183.488,956.236,-168.848
223.748,957.944,-279.38
357.216,996.008,-361.852
545.828,1043.1,-195.2
698.572,815.448,-67.1
590.724,631.716,44.896
364.536,466.284,7.32
319.64,441.884,126.636
625.128,366.488,64.172
895.236,182.756,-21.472
1017.236,31.72,-14.884
1051.152,-10.98,78.568
1073.6,9.516,88.084
1056.52,23.912,93.452
1132.16,-21.96,90.768
1190.232,-86.376,68.076
1175.104,-94.916,147.376
1223.904,-108.336,164.7
1300.276,-170.556,188.612
1272.216,-230.092,288.408
1254.404,-284.504,382.348
1306.864,-307.684,453.352
1279.292,-365.756,577.06
1157.048,-385.764,621.956
1186.328,-421.876,697.108
1089.216,-385.764,772.26
1042.124,-364.78,793.976
1049.688,-340.868,747.372
801.052,-310.856,802.272
667.584,-288.408,811.056
597.312,-280.6,717.116
588.284,-217.648,563.884
464.088,-138.592,445.544
282.552,-64.416,358.436
239.364,22.936,218.136
180.072,81.252,42.7
200.568,97.356,-166.652
304.268,181.048,-428.22
324.032,230.336,-620.736
297.68,294.264,-796.904
328.912,298.412,-926.224
500.932,275.232,-1064.816
578.524,242.536,-1103.124
508.008,186.416,-1069.94
506.056,139.568,-1049.932
654.164,55.388,-1041.392
749.812,8.296,-994.544
702.964,-64.416,-859.124
717.848,-148.596,-721.02
727.852,-196.176,-563.884
676.612,-263.276,-326.228
718.58,-374.54,-177.632
833.26,-484.34,-127.124
892.064,-511.18,-36.844
975.512,-450.912,42.212
1077.748,-473.848,128.1
1256.6,-537.532,201.544
1418.86,-592.188,291.824
1418.128,-682.956,449.204
1501.576,-755.912,500.688
1580.388,-778.848,552.904
1596.736,-781.044,580.72
1608.204,-829.356,545.584
1563.552,-815.204,467.992
1604.788,-783.24,310.124
1625.528,-787.632,113.216
1514.264,-728.34,-26.84
1424.472,-669.292,-133.224
1206.824,-641.476,-185.684
1042.368,-609.512,-241.56
981.124,-574.132,-313.296
928.664,-496.052,-381.616
941.84,-435.052,-435.296
833.992,-397.72,-394.304
719.312,-384.056,-319.64
728.096,-364.536,-300.608
761.524,-367.952,-222.772
693.448,-375.272,-107.36
639.28,-356.728,-19.276
803.492,-400.404,31.964
959.164,-401.868,83.448
971.852,-431.636,135.176
791.536,-352.58,177.388
819.596,-209.596,238.144
962.092,-171.776,261.08
1015.528,-162.504,286.7
1030.9,-140.056,281.332
1083.36,-66.368,234.728
1093.608,-51.484,236.436
1088.24,-71.736,187.636
958.676,22.204,187.392
1037.488,148.108,123.952
1170.224,132.98,106.14
1241.96,156.16,78.812
1104.1,156.892,85.4
977.952,196.176,136.152
870.348,249.612,155.184
763.476,305.976,89.06
806.908,400.892,99.064
917.684,432.368,131.516
945.744,495.808,123.22
884.988,540.704,104.676
736.148,564.616,84.424
705.648,648.308,58.072
710.528,732.488,55.144
711.016,785.924,85.4
623.176,784.948,61.244
494.832,845.216,23.424
364.78,893.528,20.496
260.348,909.144,-3.904
481.412,984.296,118.828
359.168,1019.676,81.496
355.508,1084.824,17.812
307.928,1068.476,9.76
178.608,1010.16,-4.88
54.9,977.22,-31.72
46.116,946.476,-25.132
62.952,957.212,-24.644
87.84,986.736,-9.516
131.028,1012.112,2.44
128.588,1037.0,23.912
98.576,1004.06,33.184
20.984,994.788,-7.808
-13.664,968.924,-24.888
19.032,935.252,-14.152
32.208,922.564,-10.248
34.648,953.064,-17.568
10.492,992.348,-38.064
7.564,1028.948,-46.116
10.98,1031.632,-43.92
1.22,1013.088,-37.088
-6.1,1014.796,-40.016
-18.788,1028.46,-65.636
-26.352,1039.196,-73.932
-18.788,998.204,-52.704
-16.104,976.976,-44.164
-16.836,972.096,-46.36
-14.64,947.696,-38.796
-9.76,970.876,-40.26
9.272,1005.036,-31.72
33.184,1026.752,-28.792
29.768,1037.244,-25.864
7.32,1007.72,-25.864
-1.952,988.932,-27.084
-7.076,965.752,-30.012
-7.564,962.58,-33.916
-15.128,969.656,-39.772
-4.148,1001.132,-40.748
0.0,1011.136,-39.284
-1.952,995.276,-30.988
-9.76,973.56,-31.232
-19.764,976.244,-38.064
-5.368,972.828,-27.816
10.492,973.316,-18.3
8.54,979.904,-24.156
1.464,996.496,-27.572
-4.88,989.176,-28.548
1.708,991.128,-22.204
-1.708,982.1,-21.228
8.052,996.008,-24.888
9.028,996.252,-25.376
13.176,1003.084,-29.28
10.248,1005.036,-27.816
4.148,996.984,-29.28
-5.612,989.176,-33.672
-12.2,976.488,-36.844
-8.54,982.344,-41.724
-3.66,981.856,-39.772
-2.684,991.128,-37.576
-3.172,997.472,-36.356
-0.976,997.96,-35.624
4.636,999.424,-34.892
8.54,1003.572,-36.6
10.736,1015.284,-37.576
-4.636,1026.02,-44.164
-16.592,1024.556,-48.8
-21.716,1006.256,-49.044
-31.964,1003.816,-58.072
-25.376,1008.696,-56.608
-19.52,1013.088,-56.12
-27.816,1014.552,-63.684
-40.748,1006.012,-63.196
-44.408,1009.184,-62.22
-34.892,1011.136,-54.412
-30.744,1003.084,-43.188
-17.08,1013.332,-34.648
-4.636,1024.556,-28.548
-16.104,1010.648,-27.572
-17.08,1003.328,-22.936
-8.296,1006.744,-19.52
-14.64,998.448,-21.472
-18.544,995.52,-21.96
-21.716,1001.376,-23.18
-37.332,984.784,-25.132
-48.312,978.684,-38.552
-62.464,991.616,-56.12
-69.54,1006.5,-60.756
-71.98,1017.48,-60.512
-65.88,1032.852,-64.904
-68.808,1033.096,-71.248
-72.712,1012.356,-62.22
-63.928,1007.476,-51.728
-65.636,1017.236,-55.876
-70.516,1010.16,-58.804
-67.344,1002.352,-52.46
-70.76,1000.644,-57.828
-79.056,981.368,-63.684
-92.476,979.66,-72.224
-109.068,987.468,-81.252
-112.484,997.96,-88.328
-114.192,1012.112,-96.38
-103.212,1027.972,-93.696
-94.672,1030.9,-91.256
-108.336,1025.044,-93.452
-138.348,1029.68,-106.628
-143.472,1026.264,-101.504
-126.636,1026.02,-89.06
-114.192,1029.436,-79.3
-130.296,1011.136,-74.42
-127.124,998.936,-71.98
-116.632,1007.72,-72.224
-135.908,1003.328,-78.324
-175.436,970.388,-85.156
-203.984,955.26,-100.528
-208.864,959.408,-111.264
-187.88,981.612,-105.652
-176.168,991.616,-93.94
-181.048,983.076,-87.84
-193.004,963.312,-91.744
-203.008,963.068,-97.112
-221.796,968.192,-97.6
-230.336,964.776,-98.088
-218.136,980.88,-90.036
-209.108,985.028,-78.568
-216.428,979.416,-76.372
-221.308,986.004,-84.424
-244.244,981.612,-96.38
-269.62,957.212,-105.896
-270.108,963.068,-106.384
-260.836,966.972,-105.652
-246.44,960.872,-93.452
-253.516,972.34,-95.648
-258.396,961.36,-89.304
-238.632,971.364,-82.716
-238.388,967.704,-72.468
-246.196,928.664,-54.412
-232.776,914.268,-41.724
-211.792,921.1,-27.084
-199.836,901.824,-13.664
-195.932,850.096,-1.708
-197.152,830.82,8.54
-193.492,842.776,11.956
-186.904,832.04,18.544
-167.872,822.524,36.112
-147.62,832.284,51.24
-159.332,831.796,49.776
-182.268,840.58,42.456
-195.688,842.776,31.232
-208.62,840.336,36.356
-202.276,844.728,40.748
-186.904,878.644,19.276
-199.836,908.656,1.464
-230.336,930.616,-13.664
-248.148,942.328,-23.424
-242.78,935.984,-19.764
-209.596,962.824,-29.524
-163.724,995.032,-40.992
-140.544,1025.044,-47.092
-108.092,1070.428,-54.168
-105.164,1083.604,-69.052
-110.532,1082.384,-112.972
-31.964,1111.42,-107.604
132.492,1113.372,-22.692
228.384,1063.108,77.836
228.628,1057.008,41.236
213.988,1047.736,-7.808
305.976,1096.048,-26.108
337.696,1054.08,24.4
407.724,1056.276,-18.3
495.32,909.876,46.116
608.292,739.808,89.06
578.036,661.728,89.06
450.668,682.712,45.872
606.828,756.644,123.464
843.752,674.416,249.612
921.344,523.136,216.428
928.42,484.584,243.024
771.04,308.172,262.3
832.528,182.024,198.128
1098.488,1.952,395.768
1084.58,-345.504,578.524
1023.824,-392.84,549.488
983.808,-261.568,536.312
1016.26,-229.36,642.208
1074.332,-315.736,717.116
1265.14,-357.46,714.676
1357.372,-361.852,679.296
1149.728,-366.732,711.748
704.428,-351.116,798.856
671.488,-287.432,873.764
745.176,-339.404,823.988
667.096,-348.432,743.712
379.42,-285.48,673.928
296.948,-206.424,577.792
282.796,-184.708,372.344
394.548,-9.028,15.372
613.416,168.848,-336.232
540.704,259.86,-474.58
358.192,317.444,-493.124
276.452,327.204,-624.396
299.388,304.024,-796.416
428.464,314.272,-953.796
474.58,285.48,-1008.94
460.916,265.96,-1007.232
376.492,229.848,-973.072
264.252,170.8,-918.904
359.412,134.688,-958.432
545.828,120.048,-953.552
639.768,64.904,-846.68
716.628,-38.552,-799.344
681.004,-107.116,-730.536
665.632,-149.572,-580.72
760.304,-264.008,-384.3
1002.352,-414.556,-273.768
1123.376,-537.288,-171.532
1137.04,-542.656,-67.588
1078.236,-489.708,-13.664
1095.316,-527.772,34.648
1234.884,-628.056,90.28
1444.968,-631.716,162.992
1515.484,-659.288,203.496
1498.404,-729.804,227.896
1525.732,-781.776,209.596
1712.148,-770.552,110.532
1835.124,-825.208,12.932
1813.896,-881.572,-38.308
1715.076,-856.928,-108.824
1523.78,-781.776,-202.52
1448.14,-676.856,-380.884
1388.116,-635.62,-455.792
1235.128,-655.14,-459.696
1007.476,-594.14,-421.144
913.048,-585.844,-366.244
820.328,-530.944,-382.104
793.976,-470.676,-416.264
771.04,-470.676,-427.732
769.088,-397.232,-431.88
769.332,-315.492,-435.296
731.024,-262.788,-349.164
716.384,-274.012,-232.776
707.112,-305.488,-138.104
710.528,-325.008,-101.016
787.632,-353.556,-86.62
883.768,-354.532,-101.016
905.484,-361.12,-50.508
926.468,-399.428,10.98
964.288,-397.72,59.78
994.3,-394.792,91.256
1003.816,-401.624,105.408
989.664,-389.18,101.748
1041.148,-388.448,127.124
1019.432,-411.384,151.524
1011.38,-401.624,154.208
1009.184,-401.136,128.1
1024.312,-374.784,120.292
975.268,-357.948,118.584
950.38,-337.94,133.712
978.928,-340.136,124.684
1035.536,-332.572,107.36
1037.976,-320.86,98.088
1015.528,-288.652,101.26
997.716,-261.568,103.7
976.976,-278.648,89.06
954.772,-228.14,101.504
957.456,-156.892,79.788
1003.572,-87.596,47.824
1039.684,-48.556,34.648
1052.128,-37.576,-2.196
1046.028,39.528,-23.424
1037.976,89.548,-21.228
996.74,98.088,9.028
970.144,81.74,11.712
974.536,150.06,-17.324
960.872,253.272,-46.848
976.732,326.96,-84.424
1024.556,327.448,-84.912
971.852,355.508,-68.32
924.76,452.62,-95.404
907.68,561.2,-113.216
895.48,570.96,-102.724
838.628,547.292,-81.252
755.912,634.644,-93.452
778.116,660.752,-101.992
811.056,601.948,-35.868
811.3,628.788,-19.276
792.268,682.224,-61.488
710.528,719.068,-52.46
615.124,701.5,-23.424
627.812,726.144,42.7
544.364,776.164,12.932
486.78,804.468,-20.74
519.476,900.848,-19.276
528.992,936.472,-0.732
515.328,976.244,-7.808
440.664,938.424,17.324
303.048,845.704,26.352
281.576,889.136,19.764
238.876,905.484,15.372
205.448,927.932,-4.88
218.38,958.676,-13.42
234.728,962.092,6.588
218.868,962.336,16.104
195.932,975.756,5.368
171.776,975.756,10.004
160.308,976.976,8.54
177.876,997.472,0.0
188.856,987.468,4.636
179.34,986.98,-1.464
162.016,1013.576,-17.568
117.852,1015.528,-21.472
91.256,980.392,-12.932
115.656,970.632,-6.344
117.364,985.76,-7.076
119.56,995.276,-8.052
113.216,989.908,-9.028
98.576,989.664,-17.812
108.824,989.176,-18.788
116.388,988.688,-17.324
118.096,1001.62,-24.156
119.804,1008.208,-29.28
118.096,999.424,-38.552
115.656,1020.164,-53.192
100.772,1018.212,-60.268
85.4,989.664,-44.408
88.084,966.484,-40.016
93.696,970.144,-46.848
100.528,989.176,-55.632
100.284,1016.504,-65.148
91.256,995.276,-47.58
91.256,978.684,-39.04
84.912,973.56,-44.164
75.152,983.32,-58.804
84.424,985.272,-56.852
107.604,988.932,-43.92
94.428,985.516,-48.312
96.136,1011.136,-62.464
94.428,1030.9,-68.32
87.84,1037.488,-64.66
98.576,1015.04,-45.384
100.772,999.18,-45.14
83.692,1009.184,-54.168
65.636,1010.16,-48.8
70.272,997.96,-39.284
81.984,1009.184,-40.992
85.644,1020.652,-38.308
94.428,1022.848,-34.404
84.18,1024.068,-36.356
74.176,1026.996,-38.308
87.84,1024.312,-30.012
89.548,1013.332,-23.668
83.448,1019.188,-31.72
70.76,1020.896,-38.796
56.608,1013.576,-38.552
47.336,1018.7,-42.7
27.816,1017.724,-47.58
27.572,1034.56,-50.02
40.748,1051.884,-44.896
59.536,1056.764,-30.5
70.028,1061.4,-29.036
67.588,1064.572,-28.548
53.192,1062.62,-28.06
26.352,1053.836,-28.06
22.448,1029.436,-21.96
43.432,1017.968,-23.912
42.944,1034.316,-37.088
21.96,1036.268,-39.04
10.736,1012.112,-21.228
7.808,994.056,-15.128
7.076,1000.4,-29.036
4.88,1018.456,-29.768
-10.492,1011.868,-17.08
-15.128,987.224,-3.416
-19.52,976.0,-8.296
-25.376,981.856,-16.348
-23.912,993.324,-15.86
-18.056,998.448,-8.784
-14.152,992.348,1.708
-27.328,979.416,2.928
-52.216,977.464,-8.296
-77.592,947.452,-9.028
-49.776,961.604,2.684
-48.556,949.648,-2.196
-65.88,935.252,-1.952
-72.956,942.572,-9.516
-89.304,959.164,-24.644
-97.112,957.212,-12.932
-93.696,969.9,-7.076
-61.244,961.848,20.008
-43.432,973.804,18.056
-62.952,998.692,-12.688
-93.94,1017.724,-31.964
-117.608,1012.6,-26.596
-122.244,998.692,-22.692
-103.7,981.856,-13.42
-90.28,973.56,4.88
-75.152,971.12,25.864
-51.484,1039.44,13.176
-76.128,1013.332,1.708
-82.228,962.824,5.856
-93.208,952.088,8.052
-99.552,953.552,-14.64
-102.236,934.764,-19.52
-94.428,915.488,-6.588
-87.596,894.992,11.224
-100.04,875.716,0.488
-98.82,893.04,-1.952
-101.992,873.764,-0.732
-123.708,866.688,-11.224
-116.632,885.232,-20.496
-97.844,893.284,-20.008
-91.012,890.6,-14.396
-89.792,919.148,-22.448
-115.656,927.2,-37.82
-129.808,925.492,-39.772
-125.416,926.956,-33.184
-112.972,929.64,-17.812
-107.604,944.768,-22.448
-123.464,978.196,-44.164
-131.516,997.472,-47.336
-131.028,997.472,-40.504
-128.832,983.564,-31.964
-119.072,990.152,-37.82
-97.356,1015.284,-45.384
-111.752,1037.0,-73.2
-115.412,1024.068,-59.048
-109.556,1000.644,-45.14
-98.088,993.08,-37.82
-76.86,1015.528,-42.944
-63.196,1008.696,-40.26
-53.192,986.98,-22.692
-27.816,976.244,-14.152
53.436,934.764,3.172
122.488,986.492,-27.328
106.872,1074.088,-41.968
19.52,1012.6,-9.272
11.712,942.816,-9.76
163.724,1010.892,22.936
294.996,1039.684,12.2
366.0,1047.004,-28.548
418.704,1124.352,-65.88
342.82,1068.476,-85.888
293.776,1034.072,-77.348
349.896,954.528,-40.748
449.936,837.408,16.836
545.584,767.868,-28.548
527.528,750.3,-15.128
495.808,705.16,-67.344
456.524,664.9,66.368
521.428,486.292,98.82
940.376,275.476,208.132
1074.576,94.672,102.236
1064.572,125.172,-34.404
923.052,114.192,8.784
889.136,-85.4,201.3
971.12,-213.256,323.056
1129.964,-211.304,253.028
1277.34,-236.436,246.684
1311.256,-285.48,291.336
1249.524,-289.628,374.784
1228.54,-302.56,455.304
1253.672,-364.536,523.136
1357.86,-419.192,539.484
1183.888,-414.312,645.38
1127.524,-364.292,760.06
1240.984,-393.328,800.808
1144.604,-451.156,912.072
1102.392,-457.744,921.588
1043.832,-424.316,861.32
936.96,-389.18,875.716
859.124,-360.876,829.356
804.956,-302.804,734.684
616.344,-279.38,691.74
467.992,-188.612,593.652
416.508,-128.1,442.372
375.028,-96.136,289.872
273.036,-35.38,129.076
229.36,20.496,-31.72
155.916,77.592,-187.88
180.316,158.356,-372.588
170.556,228.384,-500.2
161.284,191.54,-624.396
365.024,236.192,-936.716
474.824,258.64,-1095.316
496.052,270.108,-1144.848
569.496,306.708,-1248.792
582.184,251.808,-1227.808
617.076,217.16,-1208.044
650.26,188.124,-1186.572
610.976,134.688,-1070.672
647.576,61.244,-961.116
703.208,-36.844,-852.048
812.276,-107.116,-698.084
947.208,-153.72,-606.828
843.996,-236.68,-444.568
804.468,-295.728,-305.732
867.42,-265.96,-198.86
972.828,-278.404,-74.908
1024.312,-314.76,51.972
1017.48,-321.592,186.904
1040.66,-378.688,344.04
1236.592,-428.952,423.828
1377.136,-515.084,483.12
1435.94,-597.8,529.724
1474.98,-597.068,533.384
1521.34,-548.756,504.348
1605.032,-531.432,460.184
1660.908,-584.38,397.964
1601.372,-573.644,326.472
1587.952,-600.728,220.088
1618.452,-631.472,109.556
1621.136,-638.548,2.196
1515.24,-631.716,-95.16
1397.388,-592.676,-178.608
1226.344,-592.432,-203.008
1104.1,-570.716,-234.484
1154.364,-477.02,-391.132
1064.328,-438.468,-413.824
951.6,-390.888,-396.5
917.44,-361.364,-386.496
849.12,-302.56,-331.108
730.536,-281.576,-230.336
699.792,-264.74,-189.1
762.012,-252.54,-169.58
876.204,-248.636,-151.768
911.096,-266.936,-109.068
852.292,-278.892,-29.036
820.572,-307.44,63.44
869.86,-337.452,130.784
946.232,-344.284,159.088
1018.212,-365.268,189.344
996.496,-392.352,238.876
986.492,-373.076,260.104
970.388,-374.052,280.844
1032.608,-373.32,309.636
1030.168,-371.124,321.836
971.852,-317.688,292.068
906.948,-247.172,274.012
887.672,-198.86,263.52
911.34,-95.648,240.584
1031.144,-44.164,199.348
1105.564,-11.956,144.204
1091.656,71.492,95.404
1031.876,123.708,89.304
991.128,154.94,102.724
941.352,163.724,157.624
966.484,178.12,118.828
994.544,323.544,13.664
997.472,445.3,11.712
979.66,397.476,82.472
927.444,371.612,127.856
820.084,500.444,64.904
742.248,660.996,15.616
752.252,731.512,-0.244
719.556,730.536,26.352
636.352,711.504,71.98
572.18,749.324,68.32
479.948,826.428,15.128
469.7,896.7,-21.716
602.436,908.656,77.348
387.96,865.468,53.436
365.512,905.728,5.856
356.484,983.076,-19.764
380.884,966.728,16.104
380.884,1010.404,27.572
299.144,989.176,37.576
224.236,972.584,32.208
122.0,925.98,29.036
139.568,949.404,20.74
216.916,960.384,46.848
228.628,942.816,74.908
193.98,960.14,49.532
134.688,977.952,45.628
95.648,950.624,53.924
86.864,929.152,43.676
122.0,1016.748,21.96
116.876,1038.22,18.544
102.236,989.176,36.6
84.668,995.276,36.356
46.848,997.96,23.424
18.544,999.18,1.708
6.344,999.912,-8.296
8.052,1009.184,-1.22
12.688,990.152,7.564
24.4,976.732,17.568
11.956,984.296,-0.244
-10.736,997.472,-12.2
-23.668,984.784,-8.052
-24.156,990.152,-7.32
-13.42,982.588,-3.172
-6.588,983.076,-7.808
-16.348,988.932,-18.3
-31.964,996.74,-19.764
-44.408,990.884,-15.128
-42.456,995.764,-15.616
-18.544,1007.964,-19.52
-5.124,1022.36,-18.544
-26.352,1011.38,-20.74
-47.336,1005.768,-20.008
-52.216,974.536,-13.908
-31.232,977.708,-18.788
-17.08,989.908,-21.716
-27.572,984.784,-16.836
-29.524,983.32,-14.64
-32.94,978.44,-20.252
-38.552,984.052,-26.352
-36.844,989.664,-30.744
-30.012,987.224,-26.596
-22.204,989.42,-26.352
-29.524,993.324,-34.16
-33.428,1001.864,-32.452
-33.428,996.984,-30.012
-35.136,986.736,-25.62
-35.624,990.884,-35.38
-31.232,992.104,-30.5
-35.868,983.32,-23.424
-41.236,980.148,-25.62
-43.676,988.688,-33.184
-41.236,982.588,-33.916
-34.16,984.296,-33.428
-44.408,988.932,-37.088
-51.484,985.272,-40.016
-41.48,1002.108,-40.748
-44.408,994.788,-34.404
-46.36,987.956,-30.988
-45.384,995.764,-34.16
-40.26,1003.328,-35.624
-35.136,1010.892,-40.26
-39.772,1010.892,-44.164
-56.852,1003.572,-49.532
-62.22,1000.888,-52.948
-54.656,997.96,-52.704
-46.36,998.448,-51.484
-45.628,1012.112,-59.292
-54.9,1010.892,-68.076
-73.444,1009.428,-81.496
-90.524,1006.744,-93.94
-103.7,1009.916,-98.576
-126.392,1014.308,-107.848
-110.532,1019.676,-105.652
-80.276,1021.384,-97.112
-61.0,1029.436,-93.452
-56.12,1034.56,-84.912
-68.076,1036.024,-72.956
-77.836,1018.944,-62.464
-72.956,1003.572,-59.048
-49.288,1009.428,-63.928
-35.624,1016.016,-59.292
-40.26,1022.116,-51.24
-48.068,1013.82,-50.02
-49.288,1020.408,-57.096
-48.312,1036.512,-67.1
-52.948,1032.364,-64.904
-62.22,1018.212,-63.928
-71.736,1023.092,-71.736
-69.784,1064.572,-84.424
-88.084,1079.212,-89.792
-101.504,1072.136,-108.58
-101.26,1067.012,-124.684
-102.968,1033.096,-107.116
-101.016,1015.04,-87.352
-94.672,1005.036,-63.196
-80.764,999.424,-41.236
-44.652,1013.576,-25.864
-12.932,1026.02,-9.516
-6.1,1017.724,11.468
-22.692,990.152,33.428
-40.26,961.604,36.112
-50.508,954.284,17.324
-80.032,976.0,0.0
-103.7,972.096,-2.196
-79.544,979.172,13.908
-74.664,1006.012,7.076
-72.712,1024.068,-6.588
-59.78,1016.748,-4.636
-24.156,1025.044,0.488
8.784,1027.484,19.52
-9.028,1011.624,13.908
-57.34,993.324,-16.348
-104.188,991.128,-56.364
-158.356,952.332,-50.996
-77.104,973.56,-21.96
-47.824,955.016,5.124
-76.616,950.624,-17.568
-77.836,948.916,-30.744
-85.4,944.524,-33.672
-64.66,962.824,-58.072
-64.66,975.024,-74.908
-87.84,1002.352,-78.812
-77.348,1047.736,-71.736
-84.424,1029.68,-62.952
-96.38,1016.748,-59.536
-114.436,966.24,-47.58
-137.128,915.488,-40.748
-162.016,910.12,-34.648
-149.572,933.788,-19.52
-123.708,920.856,14.396
-94.916,911.828,33.672
-76.86,889.868,49.776
-96.624,845.704,58.316
-119.56,846.192,49.044
-123.464,852.292,52.216
-111.752,858.148,66.124
-92.232,884.988,63.196
-91.988,902.8,49.776
-128.588,894.504,30.256
-167.628,911.096,3.66
-166.408,926.956,8.54
-161.772,927.688,14.152
-145.668,964.044,-1.952
-143.228,986.004,-8.54
-169.824,963.312,-14.396
-182.756,954.772,-30.256
-181.536,976.0,-36.6
-191.54,970.144,-28.304
-181.536,970.632,-21.96
-177.876,974.78,-31.476
-201.3,988.2,-49.044
-188.856,995.764,-42.456
-156.16,990.396,-24.888
-149.816,1005.036,-30.012
-157.868,1023.824,-43.676
-171.776,1010.648,-39.284
-185.684,989.908,-40.016
-172.996,999.18,-40.016
-156.404,990.884,-30.744
-139.568,979.66,-27.816
-173.24,973.56,-44.896
-192.516,975.756,-57.096
-134.444,1015.284,-45.872
-116.144,1025.532,-29.28
-114.924,1030.168,-17.324
-37.576,1052.128,8.052
-11.468,1017.968,46.116
-6.1,1029.68,5.612
79.788,1145.58,-32.452
139.324,1193.404,-40.26
208.376,1242.204,-70.516
306.952,1223.416,-45.872
267.424,1148.02,-34.16
263.276,1101.904,-43.676
362.096,1069.452,-98.088
315.004,1045.54,-73.932
465.796,974.048,-19.764
589.992,841.312,-12.2
595.604,708.332,-60.512
620.98,559.004,156.16
373.808,327.692,147.62
651.724,365.512,94.916
917.44,145.912,113.46
798.612,-60.024,247.66
735.172,14.884,228.872
673.44,103.456,185.196
828.136,172.02,148.108
1004.06,165.432,105.896
1057.74,94.428,126.148
1078.236,129.076,120.292
1125.816,122.244,74.42
1154.364,66.368,105.652
1190.476,-11.468,207.888
1248.548,-10.98,248.148
1264.164,-42.212,343.796
1331.752,-115.412,412.116
1330.776,-200.324,540.704
1358.104,-273.768,625.616
1305.644,-326.228,684.908
1143.384,-387.228,815.204
1038.464,-362.096,875.716
1038.22,-338.428,846.924
833.748,-321.348,831.552
685.396,-316.712,821.06
505.08,-288.164,705.16
364.536,-185.44,580.72
264.252,-133.956,435.052
174.948,-65.148,199.104
185.684,35.136,-60.756
140.3,132.004,-227.652
122.732,149.572,-403.82
260.104,267.668,-685.396
277.184,334.036,-814.472
268.644,301.34,-870.836
394.792,285.236,-1042.124
541.924,309.148,-1139.236
562.664,269.864,-1150.704
664.9,256.2,-1212.68
687.836,209.596,-1178.276
604.876,119.316,-1016.016
597.068,2.196,-887.184
749.324,-146.156,-809.592
797.88,-270.84,-682.956
680.272,-291.092,-508.496
641.232,-270.108,-417.24
729.56,-271.084,-336.964
840.824,-377.224,-170.312
1030.412,-486.536,-24.4
1181.204,-574.132,149.816
1174.372,-674.416,388.448
1355.908,-790.316,449.204
1741.184,-806.664,340.136
1862.94,-798.856,407.968
1813.896,-768.844,595.116
1763.632,-775.92,701.744
1725.812,-811.056,702.964
1705.804,-858.392,596.092
1777.296,-756.156,312.076
1748.748,-665.632,137.616
1605.764,-646.844,74.908
1467.904,-629.764,-6.1
1343.952,-622.2,-135.908
1243.424,-580.964,-276.696
1164.368,-511.912,-399.916
1129.232,-465.796,-465.308
1049.2,-408.944,-493.612
877.424,-335.988,-439.2
762.012,-270.596,-370.392
698.816,-239.852,-321.104
813.74,-236.192,-319.152
804.956,-193.98,-336.476
826.672,-154.696,-248.88
802.76,-210.328,-130.052
793.244,-227.896,-27.328
895.236,-222.284,10.736
910.852,-254.492,8.54
921.588,-199.592,35.868
994.544,-200.324,56.364
1021.384,-177.388,79.056
1026.752,-168.116,76.86
1088.484,-177.388,71.98
1056.032,-209.596,74.176
1049.444,-178.608,66.612
1073.6,-145.424,33.428
1092.388,-108.58,21.228
995.276,-88.084,18.788
996.496,-38.552,18.544
1055.056,-46.36,-7.076
1098.0,-13.176,-33.672
1090.68,43.676,-65.636
1036.512,65.636,-50.508
998.692,96.868,-40.992
964.532,186.416,-54.168
936.96,212.036,-42.212
922.808,271.084,-49.288
963.312,375.76,-81.252
1026.264,414.312,-121.512
996.008,478.484,-83.692
882.06,503.616,-74.664
846.192,539.484,-91.012
800.076,608.536,-91.5
813.008,655.628,-107.116
827.404,687.348,-79.3
797.148,728.096,-63.928
656.36,794.22,-89.06
508.74,754.936,-32.696
484.584,720.532,-14.396
536.312,786.9,27.328
475.068,837.652,0.732
474.824,922.076,-32.94
440.42,959.408,6.832
407.968,930.128,40.26
369.904,912.316,62.22
405.772,963.556,122.976
294.264,987.224,76.616
220.332,967.704,71.248
225.212,953.796,117.12
236.924,1014.552,79.788
203.984,1069.452,52.46
151.768,1026.996,84.912
103.7,964.288,111.996
53.436,906.704,114.436
73.2,932.08,88.328
112.972,958.676,108.092
107.36,940.376,118.34
73.444,935.74,106.872
27.328,914.268,103.456
-17.812,948.672,79.3
-24.4,974.048,77.348
7.808,974.536,99.796
14.152,1013.332,89.304
-15.128,1053.836,57.828
-27.572,1051.152,56.364
-34.404,1013.088,57.828
-28.548,983.32,65.392
-16.348,977.22,51.484
0.488,1026.508,42.944
-19.032,998.936,44.164
-48.068,981.612,37.82
-45.14,958.92,48.312
-15.86,967.216,42.456
26.352,998.448,49.044
20.74,988.444,51.972
-5.612,979.66,39.284
-7.32,995.52,35.136
7.564,987.224,46.36
64.66,1015.04,77.348
50.752,988.444,79.056
33.672,968.436,77.836
25.62,989.908,72.224
12.2,981.612,74.42
-3.904,949.648,80.52
11.224,953.064,77.104
63.44,986.736,83.448
62.952,994.3,80.764
49.288,1003.816,74.908
34.16,997.472,78.08
10.98,983.564,73.444
15.372,986.98,71.248
31.476,991.86,81.008
33.916,985.028,83.204
46.36,1006.256,76.616
48.312,1016.748,70.028
51.728,1022.604,70.272
38.552,1014.796,79.788
22.692,998.448,77.104
24.156,978.684,78.08
35.38,974.78,77.592
39.772,983.564,73.2
10.248,972.096,67.344
13.908,958.92,79.788
62.22,965.508,86.132
68.564,986.492,70.76
69.052,1008.94,69.54
54.168,1012.112,70.272
53.436,1010.648,68.564
39.04,1011.624,57.584
22.936,1019.92,47.58
11.956,994.788,43.188
18.788,993.568,36.112
32.452,1004.06,31.476
54.412,1004.792,36.356
61.244,1015.04,34.892
49.288,1031.876,23.424
43.188,1029.192,18.544
29.524,1016.992,11.712
7.32,1034.072,-12.444
-6.588,1043.344,-17.568
-3.904,1038.708,-9.516
7.32,1047.98,-9.272
13.42,1054.324,-9.272
9.516,1038.22,-5.612
3.172,1029.924,-4.148
6.344,1043.344,-8.052
16.348,1043.1,-15.616
10.004,1022.116,-10.736
-13.176,1013.82,-12.444
-1.464,1039.928,-13.664
15.86,1045.052,-0.488
-2.928,1041.88,-14.152
-28.792,1028.216,-41.968
-51.24,1013.332,-48.556
-57.096,1007.72,-45.872
-47.58,1032.852,-53.68
-40.748,1048.956,-47.336
-51.972,1063.596,-53.924
-70.76,1077.992,-60.756
-47.824,1089.216,-41.48
-19.276,1080.432,-15.128
-16.592,1044.076,15.128
-30.5,1034.316,18.3
-43.188,1039.44,20.74
-37.82,1046.272,29.28
-28.304,1025.776,58.316
-31.232,988.932,103.944
-24.644,967.46,138.104
-31.476,945.988,140.056
-60.512,927.444,113.948
-76.616,954.528,89.06
-70.272,977.464,103.212
-36.844,1000.4,126.392
-34.892,999.668,149.084
-43.92,992.348,144.692
-58.804,978.928,129.808
-34.648,1015.772,112.484
-7.808,1050.42,122.244
-10.736,1022.604,138.348
-25.62,991.128,146.156
-27.084,990.64,136.884
-33.184,987.224,123.708
-38.552,929.152,140.3
-31.476,892.064,160.552
-48.8,872.544,148.84
-79.3,847.656,124.44
-102.968,844.972,118.34
-131.272,820.816,122.488
-168.116,761.524,129.076
-188.368,739.076,110.532
-195.444,750.544,86.864
-201.056,754.204,71.248
-204.472,777.872,58.804
-195.932,803.98,62.22
-183.0,845.704,59.78
-178.364,882.06,62.708
-167.872,928.908,57.584
-161.528,971.852,36.6
-148.84,1017.724,20.74
-146.644,1040.66,14.396
-155.672,1037.244,16.104
-149.328,1016.504,32.696
-138.104,1008.696,30.988
-151.524,1009.428,9.272
-167.628,1001.864,-4.392
-175.436,1006.988,-9.516
-190.32,1009.672,-13.176
-183.488,996.984,8.784
-160.308,988.2,19.764
-150.548,1005.28,10.736
-161.528,986.248,11.712
-165.188,977.22,10.248
-172.264,990.152,-1.708
-175.192,990.396,8.296
-138.592,1000.644,28.548
-117.12,1007.72,40.504
-119.56,1005.036,30.988
-135.42,975.756,35.136
-139.812,944.28,41.48
-146.644,930.86,36.844
-151.28,943.792,23.668
-130.296,941.84,35.136
-120.536,940.376,42.456
-131.272,941.108,33.184
-118.34,955.992,40.992
-114.68,948.672,58.072
-93.696,941.84,52.948
-30.988,965.02,81.984
92.964,927.932,150.304
215.696,977.952,132.248
201.3,1247.816,-70.76
112.484,1187.792,-39.284
156.648,1138.992,0.488
320.616,1247.816,-27.084
438.468,1182.424,-35.624
447.984,1071.404,-58.804
278.892,985.028,-120.78
237.412,981.612,-213.256
432.124,1107.272,-223.26
625.372,1090.924,-249.856
743.468,941.84,-121.756
609.268,801.052,73.2
638.792,581.452,202.032
840.58,453.596,109.556
924.272,259.616,65.148
996.74,-10.736,136.884
897.188,-237.412,233.752
711.748,-229.848,343.064
726.144,-236.924,368.44
865.224,-218.624,377.468
1154.608,-192.516,345.748
1297.836,-213.988,338.916
1331.508,-175.436,346.724
1393.972,-181.048,320.128
1404.22,-232.288,325.496
1304.424,-270.352,400.16
1266.36,-314.272,451.644
1248.792,-340.868,506.3
1292.712,-365.512,546.804
1291.248,-352.824,554.856
1142.896,-387.96,614.636
988.932,-385.276,730.536
875.716,-403.332,796.416
761.28,-412.604,776.164
630.74,-379.176,711.748
459.208,-377.468,679.784
282.552,-330.376,602.436
251.076,-214.72,404.308
224.968,-82.96,200.324
134.688,-0.488,31.72
151.036,41.48,-176.412
203.252,125.172,-421.144
225.944,229.848,-619.516
317.444,313.052,-815.692
409.676,369.66,-981.612
438.468,390.644,-1036.024
439.932,365.024,-1046.272
534.604,317.932,-1118.008
655.628,237.656,-1126.792
626.836,190.564,-1065.06
613.904,159.088,-1009.184
669.78,125.904,-948.184
682.468,114.924,-851.316
750.544,44.164,-757.376
678.564,-71.98,-582.184
631.716,-148.84,-407.48
708.332,-167.872,-321.592
781.776,-288.408,-198.128
950.136,-477.02,-57.34
1145.824,-518.988,49.288
1048.712,-504.836,245.952
894.748,-519.72,506.544
982.1,-611.708,698.084
1213.168,-707.844,741.76
1391.044,-822.036,769.576
1510.116,-855.464,766.648
1536.224,-856.196,742.98
1654.32,-885.232,654.896
1811.456,-844.484,474.58
1862.452,-850.34,301.34
1865.136,-836.188,131.272
1710.684,-842.288,5.612
1503.528,-820.572,-97.6
1276.364,-756.644,-203.74
1135.82,-651.236,-284.26
1030.168,-515.084,-360.388
910.608,-399.672,-380.152
831.796,-360.876,-348.432
834.236,-357.948,-340.38
799.588,-376.492,-317.932
794.952,-357.46,-315.004
781.532,-325.496,-284.748
805.2,-303.292,-207.4
852.292,-293.044,-139.568
862.296,-309.88,-90.768
893.04,-348.432,-32.208
888.648,-395.036,47.092
864.492,-433.344,123.708
930.616,-471.652,171.044
967.46,-492.392,217.404
941.596,-478.972,259.616
974.292,-483.852,282.308
991.128,-494.832,290.116
1029.924,-519.232,301.34
1038.22,-509.716,257.42
997.716,-443.592,241.316
847.412,-408.944,257.664
887.672,-338.916,270.596
998.448,-312.32,229.848
999.668,-281.82,190.808
908.412,-220.332,142.74
895.968,-93.94,118.828
901.336,-11.712,95.16
954.284,30.988,109.068
1038.22,80.032,36.112
1067.988,153.232,-40.992
1095.804,246.684,-91.5
1054.08,302.56,-78.324
1029.924,313.784,-51.24
1011.624,368.684,-57.828
984.052,439.2,-70.028
925.736,445.544,-66.124
887.428,449.936,-50.996
929.396,490.684,-57.34
906.948,513.62,-46.36
835.7,554.124,-52.46
818.62,642.452,-59.048
810.812,671.976,-71.98
803.98,670.268,-37.576
768.356,678.564,-52.948
750.3,737.124,-44.408
669.536,773.48,10.248
587.552,769.332,-17.568
510.692,790.804,-21.716
526.064,799.588,-19.764
553.636,849.608,-22.936
482.632,838.628,-0.976
421.388,821.304,24.888
433.344,835.456,25.132
420.9,888.892,18.3
342.088,940.864,-17.08
268.4,910.364,-23.912
225.212,896.944,-3.904
209.352,913.78,-19.032
177.632,947.696,-33.672
155.672,1000.644,-30.256
74.176,1008.696,-56.364
40.992,1002.108,-63.44
36.112,997.228,-24.156
58.804,998.936,-18.3
15.616,1006.012,-56.608
20.984,1005.28,-51.728
11.956,1006.5,-37.088
-11.956,1018.7,-39.04
-11.712,1041.392,-42.944
0.0,1035.536,-29.768
-13.908,975.268,-9.272
10.492,948.428,0.244
41.724,957.944,10.98
48.312,964.288,2.684
65.148,1008.94,1.952
70.272,1026.02,7.32
52.216,1011.868,8.052
36.6,984.54,6.344
33.916,988.444,-6.1
35.136,1006.256,-13.664
40.992,1002.108,-7.076
47.58,1012.356,-5.368
42.212,1020.408,-15.372
26.352,994.056,-13.176
6.344,976.0,-14.884
-1.708,971.608,-23.424
9.516,979.904,-25.864
15.86,992.592,-29.768
19.032,1024.8,-37.82
10.98,1015.772,-29.524
2.928,994.3,-24.4
8.54,1001.132,-29.28
11.712,994.544,-28.792
10.492,1002.352,-33.428
8.784,1019.188,-41.968
13.176,1003.816,-33.672
7.32,985.028,-32.94
12.444,999.912,-37.82
18.3,1020.408,-43.188
11.224,1022.604,-50.02
5.368,999.668,-40.504
-18.3,974.048,-47.336
-23.668,963.556,-43.432
-14.884,973.072,-40.016
-3.172,997.716,-42.944
4.636,1014.308,-47.824
0.732,1023.58,-48.068
4.88,1011.624,-39.528
7.564,1013.088,-35.868
14.884,1021.14,-38.796
23.18,1031.144,-36.112
18.788,1023.824,-37.332
10.248,1003.572,-41.48
3.904,992.348,-40.748
10.492,1002.596,-48.556
31.964,1057.74,-57.34
30.012,1060.424,-50.996
21.716,1045.052,-40.26
13.176,1025.288,-36.6
14.64,1007.72,-42.7
22.204,1020.164,-50.996
9.272,1032.12,-65.392
-0.244,1047.98,-73.688
-6.344,1042.124,-66.612
1.708,1040.416,-65.392
23.18,1065.548,-68.076
44.408,1062.132,-55.388
34.648,1022.36,-47.58
11.224,1007.476,-55.876
-1.464,1006.012,-63.928
-13.908,1012.6,-73.2
-13.176,1017.48,-67.588
6.344,1022.36,-50.264
42.212,1012.112,-26.108
52.46,1006.012,-3.172
30.744,989.176,-4.636
5.368,968.924,-8.54
-4.392,994.3,-17.812
-14.64,996.496,-15.372
-4.636,968.436,-4.636
22.936,964.288,3.416
14.884,981.124,-12.2
-2.44,978.196,-30.012
-10.248,970.632,-31.72
-22.936,977.952,-36.844
-19.276,999.668,-42.456
-11.956,1000.888,-41.968
5.368,1015.284,-42.212
15.372,1014.552,-29.036
10.248,1031.632,-30.012
-11.224,1023.092,-28.06
-38.796,978.684,-18.3
-47.092,952.82,-17.324
-33.672,972.584,-37.576
-14.64,1003.328,-48.312
-22.692,1009.184,-48.312
-48.8,975.756,-43.676
-69.052,939.156,-43.676
-69.296,945.5,-65.392
-57.828,947.452,-70.272
-42.212,950.136,-55.388
-48.556,952.332,-53.192
-83.936,947.452,-53.68
-118.584,935.008,-58.804
-121.512,930.128,-60.756
-94.428,926.712,-43.432
-65.636,944.768,-16.348
-80.032,951.6,9.272
-100.284,928.908,37.332
-99.308,921.588,47.092
-85.4,937.204,43.92
-78.08,969.168,44.896
-91.012,957.212,55.388
-99.552,958.432,53.68
-111.02,972.34,40.26
-113.46,976.0,28.304
-99.064,981.124,26.108
-99.308,967.948,27.328
-114.924,953.796,13.42
-129.32,958.432,-11.712
-141.764,954.284,-26.352
-151.036,950.136,-40.992
-161.04,940.62,-42.456
-171.044,946.476,-46.36
-152.5,948.916,-32.696
-133.468,955.504,-33.428
-145.912,983.564,-54.9
-160.552,994.3,-62.22
-155.916,998.692,-60.756
-165.188,1016.748,-63.196
-160.552,1000.888,-52.948
-104.188,1001.864,-32.94
-67.344,1072.624,-46.604
-63.44,1058.472,-35.624
-87.352,1046.272,-37.576
-51.972,1076.284,-36.6
-4.392,1079.212,-19.764
45.384,1095.072,0.0
113.46,1124.84,4.148
171.776,1134.356,31.72
216.184,1145.58,-78.08
282.796,1151.192,-134.2
310.856,1084.092,-137.616
397.964,1064.572,-134.2
500.688,1109.224,-158.356
540.216,1119.228,-165.676
459.94,1008.208,-162.26
450.912,924.028,-125.66
534.604,818.864,-55.388
582.672,592.92,148.596
692.228,403.088,177.876
735.172,317.444,27.328
729.072,316.468,-97.6
806.176,221.552,-79.788
887.428,-17.08,143.228
1004.548,-124.928,219.6
1034.072,0.976,117.364
1050.908,79.056,76.86
1087.996,24.156,99.796
1152.656,-46.848,164.212
1190.964,-62.22,196.176
1246.596,-104.676,146.888
1257.576,-146.644,139.08
1263.92,-148.596,161.528
1307.596,-171.288,222.528
1270.996,-250.1,340.136
1298.568,-336.232,456.524
1318.088,-286.456,496.296
1186.572,-423.34,530.944
1090.924,-406.992,770.308
1049.688,-449.448,730.048
1036.512,-456.036,768.6
940.62,-396.012,755.424
751.764,-391.864,760.548
574.376,-382.592,795.684
571.936,-331.108,655.628
396.5,-269.62,536.8
181.048,-110.044,465.552
23.668,11.712,366.244
25.376,96.136,183.244
40.26,149.084,-80.764
75.64,233.996,-280.844
179.828,323.788,-531.92
234.972,406.992,-731.268
355.02,436.76,-887.184
453.84,434.808,-995.764
499.224,389.18,-1077.992
535.824,351.848,-1147.288
575.84,285.724,-1131.672
636.596,249.612,-1110.932
675.88,219.844,-1068.72
726.388,148.596,-1033.34
778.604,36.112,-946.476
821.548,-24.888,-837.164
801.54,-59.536,-688.08
709.796,-81.008,-439.932
630.74,-232.288,-183.488
629.032,-392.108,41.236
800.32,-476.532,251.808
802.272,-595.848,518.988
873.52,-718.092,665.388
1165.1,-770.308,693.692
1531.588,-799.344,662.704
1766.56,-797.88,694.424
1827.56,-878.644,762.256
1887.096,-839.116,730.048
1829.268,-795.928,702.476
1842.688,-827.404,629.032
1863.184,-832.04,373.32
1781.932,-726.144,125.416
1620.404,-657.824,-68.076
1448.384,-553.636,-174.216
1267.824,-467.504,-274.744
1161.44,-401.38,-384.056
1098.732,-332.816,-482.388
948.428,-265.472,-457.012
827.648,-269.62,-373.076
849.364,-256.2,-326.228
812.032,-212.28,-272.06
797.392,-214.72,-188.856
823.988,-235.704,-129.808
891.088,-234.24,-86.864
964.776,-224.968,-47.58
936.716,-247.416,43.676
927.688,-298.168,134.2
938.668,-358.68,193.492
949.892,-391.376,224.724
1011.868,-400.648,243.756
966.24,-368.684,273.036
886.94,-355.02,298.412
955.26,-329.644,307.196
1008.94,-313.296,271.572
944.768,-284.26,234.728
912.804,-231.8,215.94
1010.404,-217.404,182.512
1033.34,-219.112,147.62
989.664,-163.968,87.84
1009.672,-74.42,43.432
1022.36,1.464,-5.124
1064.328,66.124,-40.504
1146.312,110.288,-88.328
1107.76,146.644,-48.068
1048.468,223.016,-30.744
993.568,284.992,-37.332
973.56,353.8,-56.608
989.42,410.408,-74.664
940.62,409.432,-32.94
890.6,358.924,23.424
939.156,423.828,7.32
969.168,507.764,-60.268
897.92,566.812,-65.88
825.208,650.26,-23.912
735.904,616.1,51.728
711.992,606.584,59.536
705.648,743.224,12.688
628.788,827.648,5.368
511.424,817.888,41.724
404.796,855.708,33.184
421.144,970.388,18.3
470.676,1017.968,51.972
474.58,1046.272,54.412
350.384,1066.524,16.104
237.9,977.464,65.148
114.192,896.212,83.692
12.688,884.012,58.804
29.28,941.84,49.044
156.892,1052.128,86.62
104.92,1065.304,32.94
132.248,1031.144,63.684
107.116,1027.484,28.304
35.136,1027.24,11.224
-45.384,968.924,13.664
-44.896,924.516,42.7
6.1,928.664,65.636
88.816,991.86,54.9
77.592,986.004,66.856
35.624,905.728,94.916
51.972,893.04,105.408
87.108,924.76,99.064
96.624,910.12,111.264
146.4,930.616,118.34
137.616,944.28,98.332
134.444,961.116,92.232
156.892,980.636,103.456
147.864,1023.336,95.404
146.644,1036.268,86.376
155.428,1036.512,86.376
128.832,1018.7,77.592
141.52,1015.528,78.812
136.884,998.692,84.912
126.636,1000.156,78.324
113.216,988.932,73.444
127.612,994.3,71.248
126.148,985.516,67.588
105.408,957.456,64.172
117.364,953.552,58.316
143.716,995.764,44.164
120.048,1005.28,43.676
97.112,996.984,55.144
109.8,981.612,64.66
117.12,980.636,58.072
120.536,977.464,46.36
132.492,1002.352,39.772
132.492,1011.136,43.676
129.808,1000.4,59.048
128.832,1004.548,49.532
92.72,1008.94,28.792
76.128,996.496,25.132
92.964,1008.208,22.936
98.332,1019.676,14.884
105.164,1024.8,15.128
119.072,1024.8,26.352
120.048,1027.484,23.18
104.92,1023.58,8.784
84.912,992.592,12.2
89.548,983.564,14.396
120.292,990.884,23.668
113.948,996.74,22.204
113.216,1009.428,15.616
96.38,1020.164,10.98
79.544,995.764,17.08
96.136,990.152,17.324
114.192,994.788,12.688
115.656,1024.8,2.684
96.136,1061.156,-6.832
79.3,1066.036,-11.468
81.252,1052.372,-3.416
100.772,1047.248,-6.344
111.02,1033.096,-3.66
116.144,1064.084,-9.516
91.012,1024.068,0.244
67.832,1006.988,-3.904
63.44,1000.4,1.708
82.96,995.276,12.688
93.452,972.584,18.788
114.68,985.516,9.272
108.58,954.04,18.3
91.256,947.94,20.74
71.98,952.088,19.764
62.952,961.848,11.224
75.396,977.952,9.028
77.836,1004.304,-1.952
64.416,1018.456,6.1
41.48,1011.136,5.856
60.756,1012.6,15.128
68.32,1038.22,15.372
60.756,1026.264,22.692
74.908,1027.972,29.524
73.688,1020.896,29.768
66.856,1020.164,29.524
35.38,1004.304,30.744
12.2,1006.988,28.548
7.564,997.228,29.524
28.06,992.104,31.964
40.26,991.372,40.748
31.72,996.74,39.284
16.104,987.468,42.456
-2.196,971.852,47.092
-2.684,958.92,50.752
0.244,942.328,52.216
-4.88,958.92,37.576
-21.472,976.976,28.06
-36.112,964.044,34.648
-55.144,955.016,24.4
-53.436,961.604,13.42
-54.9,958.92,13.664
-66.368,963.068,13.42
-76.372,960.14,5.124
-72.956,944.768,8.54
-73.688,947.208,-3.66
-81.008,954.528,-8.54
-90.768,942.816,5.124
-98.088,945.744,5.368
-106.384,947.452,0.732
-101.016,965.508,0.488
-93.208,952.088,25.132
-95.404,941.352,48.068
-93.94,949.892,52.948
-95.892,957.212,61.0
-95.16,955.016,85.4
-90.28,955.016,112.24
-77.836,937.936,131.76
-68.808,938.424,138.836
-86.376,934.764,134.688
-113.216,935.496,117.12
-127.612,938.424,105.652
-132.248,951.6,83.692
-120.78,980.392,62.708
-130.052,1004.548,39.772
-161.284,971.364,27.084
-165.432,960.872,4.148
-149.328,991.86,-21.96
-139.568,1003.084,-25.132
-148.596,978.928,-16.836
-145.668,971.608,-16.836
-143.96,973.316,-26.596
-136.152,975.024,-30.988
-143.228,977.708,-31.476
-158.356,980.148,-33.916
-162.504,993.08,-40.016
-160.552,999.18,-43.92
-152.012,986.98,-35.868
-142.496,981.124,-31.232
-142.496,979.172,-30.5
-147.376,971.12,-28.06
-152.5,964.288,-29.28
-145.18,971.12,-35.136
-136.884,974.048,-33.184
-144.936,972.584,-36.844
-146.888,956.724,-34.892
-129.564,970.632,-33.672
-132.004,990.396,-48.312
-142.984,978.44,-45.14
-151.036,992.592,-50.752
-150.792,973.56,-44.164
-91.744,963.068,-30.744
-22.692,991.128,-9.028
-9.76,979.66,-10.736
54.9,1011.38,-10.492
96.38,1114.592,-55.144
140.788,1150.948,-109.312
236.924,1139.48,-78.08
257.908,1103.124,-43.676
171.776,1019.432,-108.336
181.78,1099.464,-111.264
172.752,1109.468,-49.044
259.372,919.636,-59.78
595.604,821.304,-45.384
811.3,607.56,152.744
939.4,491.904,-17.812
989.664,465.308,-211.548
970.144,268.4,-60.024
892.064,-78.08,134.444
929.64,-230.336,221.308
918.66,-211.792,151.28
841.312,-178.608,283.284
877.424,-225.456,385.52
1140.456,-182.756,305.732
1345.904,-104.676,193.492
1374.208,-113.216,211.06
1385.92,-158.112,261.568
1411.54,-237.412,331.108
1444.48,-354.532,370.88
1356.396,-358.68,427.0
1263.676,-361.852,548.268
1249.768,-444.812,695.4
1139.48,-401.38,807.884
1085.068,-409.676,852.78
946.232,-453.108,876.936
792.024,-439.2,918.416
729.072,-500.444,878.156
650.748,-505.324,820.084
462.136,-395.524,719.312
317.932,-308.904,653.92
324.276,-221.308,458.476
284.26,-50.752,237.9
157.868,28.304,127.124
93.696,39.284,10.98
184.22,133.224,-245.464
262.3,181.536,-444.08
211.548,257.664,-575.108
312.808,308.66,-702.476
468.724,328.18,-828.868
602.68,304.268,-927.444
713.212,255.224,-948.184
804.712,233.264,-973.316
757.132,169.58,-927.688
720.776,100.04,-872.788
786.412,70.028,-824.964
964.044,59.048,-807.64
919.148,-6.344,-677.344
798.856,-113.216,-491.416
706.868,-230.58,-267.424
745.664,-340.624,-125.66
864.004,-362.096,-9.76
959.164,-437.004,201.788
1070.916,-551.44,409.676
1121.18,-682.956,618.052
1181.936,-726.632,801.784
1311.012,-800.564,912.072
1401.78,-893.284,965.508
1445.212,-944.036,988.688
1461.316,-943.304,965.752
1580.632,-903.776,835.7
1747.284,-833.504,592.188
1770.708,-754.692,413.58
1622.112,-760.304,306.952
1363.716,-799.588,250.588
1365.424,-776.408,47.092
1356.396,-666.12,-175.436
1277.584,-587.064,-309.148
1112.396,-506.544,-366.244
975.268,-453.108,-383.324
911.828,-408.944,-408.944
914.024,-324.52,-456.768
878.4,-300.364,-413.092
784.46,-270.596,-314.516
775.92,-280.112,-226.432
817.156,-325.496,-155.428
842.288,-345.26,-97.6
823.012,-347.944,-12.688
857.172,-323.3,50.996
925.248,-337.452,104.676
939.888,-335.5,164.212
875.228,-360.876,206.912
965.752,-340.624,225.456
1073.6,-358.192,229.36
1077.016,-365.756,255.956
847.9,-336.476,242.292
826.428,-186.904,220.576
1008.94,-155.916,169.824
1106.54,-87.596,113.948
1157.048,51.728,39.04
988.932,94.184,71.736
808.372,129.076,61.0
904.752,304.024,40.26
1033.584,349.164,3.172
1107.028,314.76,-24.644
1118.008,327.204,-38.308
1050.908,433.588,-56.364
986.004,599.996,-83.204
843.02,628.056,-47.58
830.088,534.848,2.44
830.82,522.648,2.44
849.608,589.504,-23.18
822.524,624.884,-24.4
768.6,624.152,-11.224
703.452,610.732,23.424
653.432,625.616,44.164
619.76,666.852,37.576
596.336,754.936,-28.792
622.932,836.188,-52.46
524.356,856.928,-62.708
420.168,917.928,-56.852
370.88,959.896,-48.068
376.004,957.212,-58.316
326.472,971.608,-94.428
296.704,1013.088,-107.116
252.54,1051.64,-82.96
277.184,1021.384,-88.572
234.972,1042.124,-97.112
200.812,1006.012,-106.872
138.592,919.88,-58.56
103.212,872.544,-36.844
111.02,897.676,-57.584
174.704,970.388,-73.2
193.492,1008.696,-72.224
146.4,1044.808,-78.08
75.884,1008.94,-53.436
38.308,983.808,-58.56
28.06,988.688,-87.108
70.516,1007.964,-86.864
98.82,992.592,-53.68
68.32,1009.672,-51.24
42.7,1018.7,-53.192
58.804,1032.364,-59.536
59.048,1017.236,-44.896
62.22,987.468,-35.136
58.804,974.048,-30.256
51.972,969.656,-30.012
64.172,973.804,-31.964
78.812,994.788,-40.26
72.712,1005.524,-30.5
50.508,973.804,-21.228
55.876,994.3,-25.376
43.188,971.608,-28.06
54.656,981.856,-34.892
79.788,1016.748,-41.236
66.612,1000.4,-25.376
66.612,996.496,-25.376
79.788,999.668,-31.72
79.544,999.912,-38.308
67.344,1003.572,-44.408
69.052,1004.792,-40.016
91.256,1001.376,-34.892
79.544,991.616,-30.5
44.164,970.388,-34.404
26.108,968.68,-39.284
25.132,953.308,-28.792
52.46,974.048,-30.256
69.784,1024.8,-42.456
58.072,1048.224,-52.216
58.072,1038.464,-47.824
52.948,1024.8,-49.532
38.308,1018.7,-61.244
41.236,1006.012,-64.66
41.48,1021.628,-68.076
38.796,1052.372,-76.616
31.964,1032.12,-64.904
9.272,1006.256,-57.828
2.44,998.448,-60.756
18.3,1009.184,-66.612
13.664,1015.04,-71.736
20.496,1038.708,-77.836
20.496,1039.928,-74.664
-9.76,1037.976,-78.324
-42.944,1049.688,-88.816
-51.728,1066.28,-98.332
-20.008,1080.432,-98.332
-16.836,1100.928,-97.844
-9.76,1133.868,-96.136
3.172,1102.148,-71.492
-4.392,1062.864,-62.708
-11.224,1053.836,-67.588
-27.084,1034.56,-67.1
-66.124,1028.216,-73.932
-59.048,1059.204,-70.76
-54.168,1055.056,-61.0
-47.092,1056.032,-52.216
-29.524,1079.212,-42.944
0.244,1069.696,-19.52
5.612,1037.732,-12.2
4.636,1039.684,-24.888
-10.492,1064.328,-31.476
-35.136,1058.228,-13.42
-47.58,1030.656,4.88
-36.112,1026.264,3.172
-26.596,1022.36,4.88
-36.112,978.928,30.988
-49.776,956.968,46.116
-63.44,938.912,46.848
-67.588,942.328,41.48
-78.568,942.328,39.528
-57.584,950.38,57.828
-25.864,949.648,68.32
-43.92,962.092,56.364
-46.848,969.656,53.436
-58.56,945.5,65.392
-90.768,908.168,61.488
-59.292,934.764,55.388
-14.396,918.172,72.956
-28.06,900.604,84.18
-64.904,859.368,83.936
-84.18,876.936,62.464
-69.784,892.796,59.536
-49.044,897.92,77.836
-35.624,884.012,110.044
-17.324,861.076,115.412
-34.648,846.436,101.748
-54.9,867.664,88.572
-60.024,873.032,100.528
-61.244,882.792,112.972
-35.38,910.608,116.632
-18.056,885.232,123.464
-4.636,923.54,103.7
-28.304,933.544,93.452
-35.136,936.472,100.772
-29.036,943.06,107.116
-42.944,944.28,92.476
-57.096,962.092,72.468
-42.7,945.5,79.788
-16.104,970.632,82.228
-15.86,985.516,82.716
-24.644,993.324,73.688
-38.308,1015.772,49.776
-64.66,1023.824,40.016
-71.492,1009.428,40.992
-48.556,1034.56,39.772
-58.56,1035.536,39.04
-55.876,1026.752,44.408
-29.768,1011.868,48.068
-18.788,998.936,43.432
-34.648,1022.848,28.792
-56.12,1026.752,30.988
-54.168,1013.332,40.992
-32.94,1033.34,33.916
-35.38,1023.092,31.232
-3.416,1023.336,33.672
13.664,1018.944,42.212
-21.228,985.516,45.14
-37.088,975.512,34.404
-7.808,974.78,53.924
7.076,976.732,29.036
47.58,1018.456,33.428
47.58,978.196,41.968
44.896,955.26,54.656
64.172,950.624,53.192
126.148,898.164,61.244
222.284,906.216,72.468
162.504,852.78,42.944
120.78,855.708,-1.22
253.76,1020.652,-80.032
307.196,1087.996,-74.908
397.232,953.796,-36.356
543.876,901.092,0.976
603.9,929.884,-69.784
558.516,794.464,-70.028
512.888,590.48,110.776
794.22,360.876,81.252
997.472,210.084,-55.388
1101.904,159.576,29.768
1081.652,-44.408,182.756
968.192,-131.516,239.608
988.688,-103.944,271.084
1023.58,-190.564,256.2
1062.132,-278.892,257.42
1128.5,-243.756,233.752
1191.94,-224.968,222.04
1239.276,-244.976,221.796
1276.364,-194.956,231.556
1389.58,-202.52,223.504
1328.092,-270.108,305.244
1281.244,-294.02,395.036
1229.272,-314.516,489.708
1129.964,-302.072,610.244
1054.324,-350.384,734.684
1010.16,-465.796,813.496
934.764,-508.252,828.624
721.996,-462.136,805.688
616.1,-448.472,721.996
513.62,-399.428,626.592
393.084,-328.18,490.928
366.0,-271.084,276.208
380.396,-166.896,43.92
407.48,-43.92,-189.588
340.136,70.76,-365.268
204.96,162.748,-462.38
200.324,191.052,-565.836
267.18,204.228,-728.096
364.536,261.568,-889.624
458.964,283.284,-964.776
537.288,264.252,-1043.588
610.732,260.104,-1096.78
668.56,188.368,-1058.716
731.512,119.316,-989.176
752.496,28.304,-917.928
700.28,-44.408,-800.32
686.372,-101.26,-692.472
752.008,-214.72,-589.016
785.436,-285.724,-434.32
803.004,-388.936,-221.552
761.768,-548.512,-17.812
859.368,-602.436,69.296
1078.724,-540.948,135.908
1252.696,-598.776,320.372
1298.812,-742.492,595.36
1303.692,-860.344,812.52
1399.34,-984.296,902.312
1583.072,-1113.372,864.492
1782.908,-1087.02,747.372
1830.0,-1011.136,672.464
1840.492,-989.42,577.548
1913.936,-931.592,334.524
1896.124,-889.136,52.216
1669.448,-885.476,-96.624
1455.704,-751.032,-264.252
1207.312,-646.112,-354.776
1069.94,-571.692,-401.868
1055.788,-454.572,-519.476
993.08,-356.24,-545.828
819.108,-345.26,-416.264
654.408,-402.6,-311.344
638.06,-407.724,-299.632
697.108,-371.368,-304.512
660.264,-290.604,-257.176
754.448,-200.08,-219.112
772.016,-208.132,-168.604
784.46,-264.984,-120.536
861.564,-323.544,-76.86
929.884,-373.808,-0.976
899.628,-402.844,71.98
907.68,-373.564,105.896
1016.748,-355.752,118.828
1143.384,-348.188,138.104
1026.752,-345.748,170.8
907.924,-272.06,203.74
840.58,-193.736,158.112
1018.944,-102.48,89.792
1072.868,-39.04,35.136
1122.644,97.356,9.76
1193.404,259.86,-42.944
1122.644,306.464,-35.38
1026.508,301.096,-10.004
907.436,252.052,-17.812
914.756,357.948,-22.936
995.276,485.316,-43.676
998.936,525.332,-40.504
984.784,546.804,-24.156
925.98,585.844,-35.868
796.904,588.772,-44.164
725.656,622.932,-33.916
713.212,650.504,-22.448
711.748,684.664,-12.932
697.108,762.744,-54.656
645.38,850.584,-81.984
571.204,837.652,-67.1
479.46,839.116,-24.644
494.832,863.516,-40.504
451.644,899.384,-47.092
376.004,967.216,-60.512
310.368,987.956,-49.288
225.456,895.48,-64.66
200.324,898.652,-5.612
194.468,933.3,-19.032
224.48,1011.136,-37.82
205.936,1032.12,-24.888
156.892,1007.232,-16.592
102.724,955.992,-9.516
75.884,943.06,-12.688
107.848,977.464,-12.444
115.412,1012.844,-5.856
74.176,1005.036,4.636
26.84,1023.824,-7.076
-9.76,991.86,5.612
-12.2,932.324,4.636
4.148,950.136,15.128
19.764,969.656,23.18
45.872,993.568,31.476
46.36,1014.552,30.744
25.62,997.228,36.356
11.956,937.448,40.016
43.188,944.524,58.56
63.928,1003.816,43.92
66.124,1028.216,33.184
63.928,1043.1,47.092
42.212,991.128,54.9
7.076,957.456,61.244
2.196,966.728,66.612
19.032,960.14,59.292
8.052,1006.012,44.896
-5.612,1025.288,47.092
-4.392,992.104,64.416
4.636,979.66,73.444
-8.052,960.872,78.324
-23.18,957.944,70.028
-35.868,951.844,64.66
-39.772,956.724,56.12
-30.988,987.468,25.132
-28.06,1006.012,14.64
-21.228,982.1,31.964
-14.884,961.604,43.432
-27.572,942.816,36.6
-52.46,946.476,20.984
-36.6,998.936,-12.2
-0.732,1048.712,-14.152
-6.588,1015.284,6.588
4.88,991.616,16.836
13.664,996.74,9.76
0.488,1008.208,-2.44
-11.956,1040.172,-17.08
-3.66,1029.924,1.464
29.524,1022.36,17.812
22.692,990.884,24.888
5.856,967.216,16.836
1.464,970.144,7.32
4.636,976.976,3.172
7.076,978.684,5.124
-1.464,994.056,3.416
-4.148,987.712,11.468
-3.904,974.536,16.348
14.884,986.004,12.444
10.98,985.272,13.908
4.392,974.292,20.984
6.588,991.128,25.62
9.272,990.396,29.768
21.472,986.736,28.548
38.796,980.636,24.644
28.304,975.512,15.616
21.716,972.096,4.636
12.688,973.072,7.564
5.612,978.196,8.296
3.904,971.852,9.76
-0.244,968.436,8.54
-11.956,971.364,5.124
-2.684,976.488,-3.66
2.928,996.74,-4.88
4.148,981.124,-5.856
-3.172,997.228,-10.98
-35.868,1007.964,-16.592
-34.16,1003.816,-4.88
-3.172,991.616,5.612
-2.928,1003.084,-0.976
-27.084,994.3,-5.612
-29.28,990.64,-1.464
-18.788,992.348,4.148
-17.08,1002.84,0.488
-27.816,1010.16,-8.296
-32.696,1003.816,-10.004
-34.404,998.204,-9.028
-39.284,995.276,-12.444
-25.62,1004.792,-18.056
-26.84,1010.16,-25.376
-33.672,1001.132,-24.888
-34.648,986.736,-19.276
-23.18,986.492,-17.812
-20.496,982.344,-14.64
-13.664,986.736,-17.568
-23.668,986.004,-19.276
-32.696,980.636,-15.86
-23.424,973.316,-5.856
-18.544,973.316,-3.172
-19.764,981.856,-6.832
-25.132,990.884,-7.076
-27.572,997.96,-7.32
-25.62,992.104,0.244
-19.032,992.348,2.196
-15.616,1002.84,-1.464
-16.592,1004.792,-0.976
-13.908,996.252,1.22
-3.904,999.912,1.708
-5.124,1000.156,-0.976
-5.612,997.228,-3.172
-8.54,997.716,-4.392
3.172,1004.06,-1.22
11.712,996.252,4.392
22.448,1003.816,-2.684
11.956,999.424,-8.784
4.392,990.884,-10.98
-5.368,991.128,-16.348
-24.156,991.86,-20.252
-28.548,996.008,-16.836
-16.836,993.08,-9.76
-6.832,992.104,-4.636
