# PAMAP2 dataset (wrist-mounted sensor)

acc_x[mg],acc_y[mg],acc_z[mg]
-846.03534,318.21255,119.35533
-1138.5496,178.70572,-20.750765
-826.3088,248.98912,-52.373432
-795.70685,267.50464,-97.08416
-622.48395,164.54309,-6.3171287
-513.5873,131.9844,8.0958395
-447.05383,30.389744,8.622351
-449.9625,149.4773,64.620735
-465.6942,126.63991,122.67772
-566.6994,351.91394,224.57007
-653.294,358.93866,341.87262
-774.8603,600.25024,333.04865
-1470.0645,344.35925,274.6831
-2450.2314,1613.789,724.9776
-1422.1189,1439.7406,593.91956
-1217.1531,628.97595,395.4649
-892.7652,633.91284,233.0631
-631.1866,20.609438,173.39818
-412.23685,417.5517,202.88109
-197.64568,409.92636,208.66768
-165.17546,636.4252,222.52136
-244.12494,545.8457,204.29407
-536.7366,561.92487,244.05852
-948.16266,373.5219,285.92166
-1157.9086,227.15674,297.62753
-1482.4935,130.26697,290.50418
-1718.093,323.16312,412.11047
-1918.3751,335.66486,423.94815
-1516.0413,286.99353,355.16705
-1189.497,258.1729,314.19803
-737.54126,218.24693,316.80746
-473.35208,203.18428,269.3894
-237.78967,219.00693,172.94994
-249.35547,197.4064,126.56894
-342.24255,204.40614,40.41612
-502.3371,241.09901,28.609573
-593.904,335.48734,72.24696
-736.16797,428.26294,162.2819
-1176.4303,526.85,274.55984
-1943.288,792.1874,530.646
-1956.6753,860.0562,976.1586
-1216.7234,594.17487,780.5164
-1120.4862,358.9517,558.8381
-844.31244,80.65898,462.99908
-501.68942,326.27716,363.2548
-341.22095,418.37793,321.8966
-361.7835,511.2594,299.74588
-393.66412,393.97568,284.5973
-518.5002,402.4279,234.44492
-677.40155,330.2544,215.18112
-805.9915,321.26755,217.10046
-865.77344,246.4034,219.53883
-1164.7684,241.50255,200.19638
-1464.4973,249.23137,291.29636
-1680.6854,391.62387,347.39133
-1657.6644,436.52444,331.3437
-1385.0568,447.1244,281.6813
-1053.8134,376.37292,270.12775
-730.03723,382.53497,274.83884
-564.63306,365.9964,243.75479
-435.12204,285.49643,171.73883
-401.72824,227.15465,93.31109
-426.72827,225.50153,-17.349834
-498.43564,319.19327,-6.727053
-710.9416,513.9344,120.03722
-864.5915,562.75854,304.33844
-1268.3152,653.5008,373.5133
-1826.8167,769.5898,701.3112
-1524.2775,731.9483,842.7953
-1264.6615,635.9485,572.64465
-1254.6162,366.71506,528.88794
-1030.8721,250.6494,474.44223
-866.21063,255.10435,386.43738
-628.7693,235.98027,272.71838
-433.0058,189.2238,191.93913
-392.99442,271.59027,123.38839
-510.62726,283.64062,106.68919
-651.7425,304.31,58.30632
-782.3637,294.84183,116.252014
-1019.85913,416.63757,178.05945
-1290.6415,478.9876,256.2094
-1550.4506,507.571,363.26068
-1449.7996,381.25034,337.05167
-1287.9384,359.8931,268.14514
-1026.3759,353.17838,318.88177
-755.3518,398.3705,316.81128
-572.5681,414.79446,237.6775
-403.93655,362.66714,135.01959
-445.01785,342.00156,115.909035
-606.85974,384.18417,101.113014
-911.7577,421.47986,97.63683
-1502.5297,470.96252,-23.95667
-1813.6115,635.66376,140.65189
-1619.2837,990.2159,812.0002
-1118.6857,661.9699,841.15875
-1023.79364,725.75415,533.6913
-887.80316,430.6803,434.1388
-508.7235,-51.10911,345.51407
-330.1213,247.72266,434.34564
-392.93323,370.11826,520.0529
-431.54987,325.04648,409.66238
-617.0898,126.73311,262.47473
-720.4113,147.62566,232.42523
-824.08856,262.89493,324.665
-1037.3406,410.73688,332.6047
-1331.1725,304.038,253.26398
-1632.5804,413.02817,349.97647
-1420.71,369.54782,355.93372
-1149.3403,425.51035,319.7113
-1037.7758,443.79803,393.95425
-931.51984,586.437,333.70398
-707.6506,400.45807,209.65437
-557.55524,322.762,180.94496
-476.2544,378.92688,130.38693
-549.9391,400.37027,117.74777
-659.75073,444.96878,83.50845
-707.19507,465.66595,151.89258
-833.16125,409.4232,171.06558
-1651.2646,333.34045,144.29138
-1855.5817,434.9885,363.0802
-1532.9072,478.14365,815.8101
-1222.2477,403.472,886.46185
-996.5552,305.5161,669.89716
-646.78784,-126.796455,497.5151
-342.398,39.281944,422.23184
-398.4943,256.2485,436.33075
-443.2218,255.54625,405.56027
-575.2885,195.89877,359.9465
-694.0925,339.6092,371.73886
-996.14825,373.94952,401.37576
-1142.3936,357.05795,399.76553
-1296.7533,319.6422,384.22565
-1425.7578,444.8107,380.1802
-1322.0614,532.708,459.99216
-843.5984,399.67914,303.6414
-753.44904,238.8501,217.86641
-1026.9125,161.96947,174.92924
-1206.5043,151.90776,57.31229
-1084.521,328.1944,82.88931
-934.7314,454.84344,185.26321
-728.15497,441.43286,194.50693
-626.6225,348.81656,157.6116
-567.9629,344.6031,175.57916
-526.32007,302.4003,176.82588
-458.5684,362.5881,165.05667
-585.27484,462.73666,202.15909
-727.59784,506.69052,234.21675
-933.7057,470.69617,289.85004
-1163.0684,425.34406,303.60025
-1528.9785,365.1245,307.2932
-1271.6351,333.18497,316.73907
-1088.4905,260.32602,304.3056
-1203.5765,230.45317,316.51376
-1091.95,225.05379,312.17075
-734.60754,282.78683,212.81827
-536.3722,343.73987,224.55496
-414.90695,349.8427,223.94481
-426.84048,407.62814,221.52194
-479.76102,484.79727,271.69638
-522.4519,466.2577,352.83472
-572.00024,450.74573,435.85675
-606.953,379.0199,453.8162
-600.69855,247.76756,394.92084
-613.0902,209.79044,322.07788
-732.18164,297.42227,383.96085
-1145.3086,322.72156,455.4752
-1582.279,333.88446,455.31573
-1698.1251,265.90985,396.96075
-1534.4384,203.02084,260.70828
-1316.3693,193.26561,226.73271
-1050.4622,300.51688,198.07959
-682.8172,309.3745,185.02597
-468.04236,299.86758,171.05423
-382.3162,276.5834,167.30212
-351.04953,238.70308,151.50098
-360.34097,238.79744,124.28839
-626.5376,340.0712,158.92712
-714.3445,360.45673,232.32527
-829.0182,403.3655,319.20932
-1080.8165,511.08444,351.4761
-1914.5168,827.3796,594.55084
-1623.6918,697.46155,717.275
-1203.004,619.4752,543.1468
-1202.1399,500.30325,650.35394
-724.47174,221.83878,510.5791
-421.55496,285.30292,342.4721
-318.57266,332.4037,299.4671
-323.84274,159.15562,287.2895
-290.48798,224.4219,217.00868
-427.4304,402.14148,171.61377
-623.33093,447.56683,205.64194
-1007.7407,384.92715,113.16878
-1414.1517,426.53174,104.714355
-1619.8014,595.14594,278.19046
-1444.144,471.7927,230.14267
-1380.0999,453.24518,233.82854
-1163.4662,388.67026,329.77588
-922.3321,491.84326,346.5091
-566.87964,424.884,274.55612
-360.78543,292.85468,209.83112
-324.99957,225.8415,202.6941
-415.9003,197.30518,166.56018
-500.32053,325.97272,213.23637
-781.0383,413.78247,240.75536
-1211.6643,544.15936,201.0725
-2038.0181,892.19354,648.4217
-1556.9601,717.326,853.58966
-993.74524,541.8943,518.95593
-1069.3478,433.65063,414.89194
-765.45544,160.24289,310.08316
-438.23856,236.31541,242.40828
-268.05484,313.76517,187.34276
-311.1651,399.39505,233.44225
-500.7345,402.86407,257.85672
-664.3464,337.84985,224.82306
-782.21655,268.2039,158.9678
-1093.8202,228.4999,83.794945
-1502.2836,249.74817,102.17541
-1698.569,358.44437,217.09016
-1579.8651,398.5008,264.07803
-1371.3772,396.2727,239.88852
-1097.405,393.6891,328.27155
-814.27527,382.8539,326.47797
-576.21985,374.16907,228.61629
-467.77072,390.5417,222.83046
-350.09482,326.6111,206.18074
-477.63632,265.8757,182.98083
-524.1538,291.8893,210.47166
-881.9612,327.26733,199.31645
-1421.5677,405.64536,216.66324
-1767.2527,625.7729,392.35745
-1686.6151,876.96173,858.13995
-1111.1016,547.4034,791.90594
-1059.0085,459.97745,490.8334
-819.4075,209.10715,338.7054
-470.2778,56.09451,259.9938
-276.02695,227.28197,241.09167
-329.345,296.25992,281.1497
-372.52576,363.97223,300.86044
-590.6549,384.79132,247.55664
-721.4863,353.39594,215.50961
-974.8706,235.35712,171.88417
-1095.2701,210.29341,171.33466
-1542.8094,354.3521,267.5601
-1438.0095,359.6229,284.048
-1300.8695,332.21555,231.37788
-1188.0563,366.6559,270.0777
-1109.2736,443.65845,273.35046
-861.9607,546.25085,291.9878
-581.44684,479.1791,269.50735
-279.34863,300.51834,132.52823
-242.73145,201.9933,79.60091
-268.54233,211.2361,46.01459
-1046.628,354.82162,-24.096533
-1429.0381,666.4339,197.44019
-1267.0741,839.6771,377.90778
-853.474,846.11176,707.6991
-798.8241,482.8521,755.83954
-868.5817,377.7364,447.06012
-956.35394,94.352615,459.9343
-1072.1892,246.69733,460.44092
-1541.1487,457.78586,505.83438
-1893.1503,746.52527,714.31616
-1357.6586,369.90646,631.0094
-1256.9924,328.32956,435.0946
-1204.3525,202.77168,500.4414
-1043.638,31.4772,346.99115
-668.1137,150.42009,140.72055
-540.41583,152.48076,180.31615
-439.22357,204.70628,209.22719
-438.92206,302.41516,205.36613
-468.87964,424.89166,181.21121
-599.24835,520.94324,159.43715
-706.86725,593.7565,173.41374
-833.83386,552.7832,190.39946
-1033.8749,447.46942,208.25024
-1372.9087,423.59888,193.92935
-1466.6793,581.03015,328.3273
-1297.9055,485.41525,263.61795
-1075.9481,268.6377,80.34233
-1026.2488,236.92848,63.229557
-806.3817,352.2754,69.2559
-628.6257,428.14563,-8.784691
-525.7402,533.50824,28.742367
-603.70966,570.75055,117.11791
-671.3457,609.22504,274.91223
-691.17505,554.30524,401.9834
-689.7262,570.5437,480.70758
-896.44696,626.50256,671.4769
-1010.58435,483.21942,665.9153
-1145.374,361.979,616.83295
-1146.5067,318.42838,606.2335
-1336.1985,391.39264,615.92255
-1304.7322,366.89267,595.5108
-1146.2461,334.89557,454.4422
-1195.7057,299.13962,322.80872
-1326.9252,251.01375,213.10667
-1123.3239,167.94066,117.71235
-955.58673,103.22369,26.194397
-827.70416,122.87434,16.267155
-625.20624,164.18242,35.36561
-539.3311,218.15761,54.656677
-437.52658,214.06622,58.707897
-334.4581,184.48326,78.58832
-372.9789,228.43669,133.96515
-478.3994,340.2476,166.75566
-485.7619,337.91736,141.95459
-686.4324,591.4967,253.70126
-854.92847,599.40375,329.83524
-1066.4022,557.2835,296.30804
-1673.9872,636.14526,428.88577
-1790.3896,1238.0957,552.01587
-1418.0352,1496.25,446.5331
-1024.0415,828.7914,260.05872
-665.0497,452.99078,258.86557
-484.0336,184.3228,305.81622
-364.40225,374.16174,284.25833
-225.06395,688.4409,184.96275
-136.63231,741.0251,229.48988
-351.42065,670.17163,285.89597
-557.6548,570.6186,339.47916
-961.2387,421.6293,357.06357
-1610.3643,355.39508,323.96567
-1940.519,311.5661,302.47037
-1990.0713,348.5098,311.59885
-1541.8127,202.67747,245.49066
-1129.4672,284.98352,222.13571
-684.16797,277.68088,199.02374
-447.62277,276.1928,129.67346
-325.71796,251.74295,71.87716
-328.97775,203.14818,63.727863
-250.04688,177.72394,60.61187
-378.21762,221.251,37.812336
-493.10953,294.7241,36.822834
-702.27435,413.39032,150.71619
-1162.9175,502.89636,263.34995
-1856.0776,819.48004,520.3919
-1712.8508,729.3102,742.04266
-1340.1932,632.7612,842.37946
-1366.691,582.6482,838.4313
-1011.485,414.27466,562.50305
-570.2838,433.07852,435.26868
-386.80353,405.48444,384.80197
-295.32877,406.23886,318.63962
-281.2849,443.0312,293.64185
-322.27496,266.2725,274.86133
-516.5873,293.70337,264.4706
-656.9287,394.23785,227.04259
-999.2138,364.42468,211.43385
-1450.8602,300.28488,183.64525
-1763.5616,276.30902,265.11157
-1690.8639,345.86917,281.44727
-1401.5608,348.67667,282.40848
-1103.2101,400.21594,255.44177
-838.95496,420.69836,248.24869
-649.1438,406.48508,213.15463
-539.06165,375.9508,258.1121
-450.36993,301.2459,262.211
-363.62567,307.17352,186.79916
-420.0637,315.53687,183.64854
-519.0159,331.28745,158.89206
-611.1692,383.57687,203.67532
-741.36816,406.1888,261.12088
-1199.2382,473.35257,299.86682
-1900.4083,689.2564,440.78827
-1747.0365,717.3307,765.4726
-1184.6035,483.53818,701.49835
-1180.6844,611.1457,564.88684
-1024.927,403.8711,496.0632
-621.2166,274.4615,293.9649
-508.3942,404.11185,246.79489
-508.09726,326.76807,256.521
-485.15283,216.1818,205.62643
-536.1906,294.64078,149.21115
-629.3649,259.43695,120.15751
-717.5329,269.18054,86.95274
-935.99225,213.62428,112.61407
-1167.497,170.75082,92.20726
-1245.2828,297.18988,215.16325
-1449.7307,407.01367,314.84784
-1365.0135,431.44232,311.36874
-1208.91,391.7934,297.19913
-1033.3715,392.28845,359.2516
-868.6178,377.09436,313.60553
-731.8867,309.37543,257.68982
-584.4386,277.65662,169.02094
-583.94336,369.43372,103.79034
-445.51968,350.55414,89.35983
-456.8862,356.12933,66.82497
-1093.1575,520.27765,67.48427
-1916.3033,804.16656,275.37933
-1437.7996,865.6388,567.0183
-899.32544,701.235,768.8958
-824.62634,469.43887,700.0245
-723.16846,340.71588,384.12955
-556.6105,121.564674,296.3271
-326.0896,129.49179,265.99615
-553.986,285.7455,350.34543
-1205.3035,331.90637,423.94742
-1853.3899,313.1043,379.4193
-1633.7781,344.0097,345.7214
-1135.1587,293.59903,211.44803
-864.8645,365.87964,324.2752
-820.60425,494.44806,393.6051
-632.3295,477.2325,281.013
-396.7985,187.90575,147.20763
-376.7898,168.50226,142.93329
-452.98517,251.2656,177.6642
-585.8158,299.5415,201.81325
-718.31946,388.19467,204.83502
-1368.4502,397.8072,165.10124
-2006.0424,509.82993,291.1387
-1915.4071,618.6578,620.1757
-1349.6251,542.84625,788.80255
-1055.5851,365.48993,595.2734
-815.5629,361.26318,421.32587
-499.95535,203.09317,286.00958
-349.58188,313.39285,261.92557
-383.35477,354.83603,341.32965
-533.6646,379.3408,423.17538
-643.1213,114.2678,414.42145
-888.4181,62.84969,410.5349
-1189.2874,361.6757,354.4291
-1467.5834,400.82465,362.00937
-1834.3893,383.47134,326.44333
-1525.7764,264.30124,254.47833
-917.0604,168.63986,92.035736
-803.05005,130.0022,-7.456561
-834.44525,205.18364,-17.912958
-923.41907,321.8663,-25.001503
-856.3734,403.32745,-27.112509
-806.6039,450.95126,61.825058
-737.49945,441.45987,162.00482
-660.012,387.2836,170.8563
-678.8415,341.3826,177.91626
-748.23676,399.819,186.84096
-769.8228,449.3283,209.66371
-745.5744,420.5753,170.37956
-862.46155,449.4879,166.5612
-924.1434,453.89285,179.64659
-962.5972,481.6164,215.14192
-1077.1616,438.78287,205.69794
-1343.3363,338.64896,201.33208
-1307.2174,205.52412,199.22253
-1149.3906,149.12976,291.9147
-1134.8932,245.76659,425.05286
-914.0579,280.99417,443.67313
-682.4346,250.14337,299.94202
-498.3952,262.22925,275.6557
-406.7101,258.9016,326.7985
-390.97513,335.1099,299.26996
-425.0433,368.99658,315.78873
-495.2667,431.31,362.08276
-525.45184,439.6348,336.45
-580.26935,419.39752,326.16525
-672.9439,293.84006,288.41556
-840.3228,260.67487,312.60034
-1125.4935,273.098,424.13315
-1650.8827,364.79922,493.2742
-1782.4708,377.56808,441.9109
-1475.4071,244.07605,338.59726
-1323.2072,202.34418,277.51276
-1100.7421,279.98038,278.6817
-725.8215,349.96188,219.324
-438.96848,270.86807,161.05142
-303.73438,206.25385,107.369865
-227.04149,205.03064,144.21709
-165.13548,141.97148,116.63786
-400.86743,241.10992,89.06272
-647.21594,356.85794,110.83009
-959.43335,445.46445,244.69641
-1349.917,536.02277,287.3985
-2146.4458,787.507,563.41406
-1766.6226,962.56494,952.1807
-1053.5084,610.36865,669.35547
-1053.6334,166.47668,456.20514
-671.6673,181.43694,379.78217
-485.84906,281.7898,342.72467
-335.15012,378.14838,331.49335
-389.7986,412.46823,295.0266
-439.92575,378.94183,238.95927
-573.03485,363.54727,194.0374
-575.6222,305.71445,170.85641
-849.59125,299.55988,148.02527
-1421.6924,339.4171,217.95593
-1785.5781,357.32352,278.50317
-1757.8335,311.19446,262.1422
-1401.5128,254.27396,244.94638
-1032.7723,323.08026,284.90192
-797.17847,395.03745,262.27527
-648.8462,424.65634,246.0621
-507.56836,368.25266,214.7393
-368.72052,264.6529,185.56372
-376.9742,248.99901,160.88483
-545.9939,309.1775,186.28232
-622.46844,396.6028,219.96721
-962.95825,454.13632,286.0154
-1491.4927,565.13434,308.10245
-1874.8655,758.97687,503.18887
-1443.8368,882.1915,655.6132
-1280.1982,759.1473,597.70685
-1086.9503,477.65677,441.0995
-806.48456,330.75027,259.53052
-698.44244,257.09802,251.32755
-578.38556,231.16579,246.38097
-567.3188,286.67908,200.41383
-597.68445,298.0539,163.4946
-763.0228,310.60425,194.4309
-784.78394,278.8928,163.2456
-1001.082,298.55103,159.21133
-1206.9982,321.4474,258.17743
-1573.6178,363.46533,321.36926
-1371.6483,326.7115,329.174
-1136.4264,329.1901,274.949
-1035.78,383.50815,259.2622
-871.3985,382.90033,269.15192
-700.31213,405.87695,280.2964
-560.6916,326.04456,230.53497
-534.5423,327.1044,173.37448
-772.7794,384.0167,145.47136
-785.9066,414.0495,183.45459
-996.94574,453.97305,208.37685
-1313.9867,564.62976,206.77957
-1823.5735,900.8739,330.41986
-1513.4905,1094.5631,621.7553
-1131.919,774.4699,638.1032
-1102.9717,733.1068,587.68225
-964.6458,472.22144,447.52356
-790.80664,258.4967,281.48276
-678.2013,212.42851,239.46298
-681.15924,212.7022,275.8842
-645.7712,131.42189,260.7358
-693.1813,303.21927,200.07405
-790.7163,338.43414,141.2389
-816.3683,238.84106,99.11245
-864.5915,178.87431,65.44275
-964.4485,196.3623,181.90707
-1226.3788,283.22086,274.08762
-1310.4536,339.8592,267.5943
-1225.4575,330.9839,227.71738
-1061.5507,298.7897,206.49176
-1083.9407,337.51712,258.83392
-1051.9376,529.4886,319.28287
-896.8566,541.6306,232.2187
-745.3478,374.22928,143.86925
-754.6062,255.28853,135.63618
-1006.4642,275.94,128.542
-1749.3779,401.02814,24.504578
-1830.4067,921.6036,182.75533
-922.65985,1066.8673,324.078
-615.56647,1021.78424,396.675
-559.80695,839.2008,522.75476
-554.55707,527.37085,357.21368
-554.6604,602.0376,376.16785
-831.5313,511.30273,614.37775
-956.4681,110.36235,575.6113
-1056.3417,260.88107,459.85953
-1833.1958,369.57867,469.1616
-2289.8928,234.75117,599.00275
-1847.417,76.684135,389.4878
-1560.9033,200.77403,171.0403
-1235.0972,237.69429,244.4492
-926.7361,315.903,267.11826
-714.33356,302.13345,238.88536
-575.1173,173.27563,159.47675
-472.90405,164.45616,180.55986
-477.39325,217.38492,206.8249
-505.92545,367.5454,205.87172
-537.3728,545.8907,192.37125
-616.5452,665.34863,232.69276
-677.5291,628.7167,242.48445
-812.9281,473.38107,191.60373
-1259.4049,391.502,38.751595
-1590.0747,547.0201,-3.5535936
-1408.7035,662.09515,-82.16575
-1203.7067,521.1415,-105.77713
-1149.6477,436.3213,63.59224
-951.78125,366.399,18.910604
-725.37036,411.84338,2.1693733
-603.99475,373.02588,27.50384
-578.3915,406.06378,62.927414
-660.51117,493.93167,191.32365
-665.73834,535.8142,274.54694
-742.831,595.7454,375.2276
-944.69135,660.7331,494.46832
-1038.8423,634.27655,569.0625
-1017.30975,568.627,601.46185
-1089.4271,508.4094,590.99304
-1285.682,508.79617,603.52625
-1290.7832,440.4071,614.3442
-1122.4065,320.37936,517.2837
-1199.9518,267.7409,402.26
-1284.2388,206.81876,324.27188
-1191.8624,195.0925,228.51941
-968.63385,216.41707,137.47012
-864.4166,186.71523,107.1669
-691.57684,161.75069,56.83598
-555.2004,187.80196,58.98874
-440.6919,199.61668,117.788055
-323.89835,128.27197,86.51714
-320.51862,183.96483,88.31362
-418.84326,280.4416,98.01941
-488.28165,335.31302,134.00458
-609.9188,365.45047,209.02325
-741.6882,412.27124,329.45044
-1020.94025,399.1301,404.11957
-1442.4496,383.6708,280.35175
-2230.813,674.3664,491.66577
-2080.378,1265.2874,974.11633
-1265.4453,1069.7559,474.96005
-993.99664,549.7017,207.59604
-685.04034,192.70393,223.99078
-520.8687,261.02237,140.08041
-246.59865,535.01587,83.826836
-86.06857,753.2939,88.126335
-169.1425,819.58234,211.03006
-407.21445,654.9129,291.55634
-691.2754,540.8858,333.09354
-1343.5692,434.1864,394.4834
-2021.9491,265.35184,438.83887
-2239.9934,167.63571,311.49243
-1887.312,130.66914,275.7951
-1559.1179,167.9661,317.2559
-1078.3356,218.44028,222.92831
-680.7982,237.32388,138.4566
-437.97546,192.24,77.26627
-263.15732,117.58748,53.299404
-219.69698,43.35895,55.68103
-320.06964,111.811104,92.30351
-460.37582,128.80727,56.437332
-569.68,197.17953,130.95438
-759.17645,274.48303,204.56729
-1105.0785,396.34286,299.51532
-1730.8206,568.5082,463.91742
-2077.291,724.89996,845.29224
-1763.503,763.6684,878.68115
-1384.6095,826.783,505.4846
-959.7287,449.84167,338.39987
-551.7078,202.52046,318.0687
-343.22382,403.31693,339.90714
-251.80916,546.15375,275.58517
-304.55487,715.0612,374.29105
-422.28616,561.20026,377.17255
-618.0532,555.366,329.39563
-795.121,550.5235,263.1525
-1166.5747,468.84808,345.9288
-1648.3185,289.5953,410.24442
-1826.0665,237.25047,346.98206
-1970.4579,289.06845,308.42886
-1517.1249,186.36198,206.76755
-982.5061,185.66121,155.76161
-490.95004,203.05756,154.49684
-348.5805,235.40059,149.75441
-239.37883,226.53256,110.45552
-266.49896,154.68723,86.386894
-450.2286,101.55755,46.728474
-694.10394,130.86035,13.862876
-763.58,182.0542,89.42068
-1100.0032,300.79456,230.51717
-1381.9348,488.77435,306.32288
-2103.514,1016.5577,703.7927
-1795.0405,879.1819,829.34534
-1188.307,661.77637,561.18414
-1026.9551,459.08603,539.6078
-669.73224,119.26947,403.57587
-430.22015,391.66132,372.45444
-212.07515,492.92773,362.08792
-193.34007,580.64514,370.77304
-290.07895,440.9955,362.97983
-671.6604,527.7051,403.23065
-1108.0024,83.108444,272.42563
-1616.2571,-231.60266,170.90242
-1786.2655,-38.300365,70.80383
-1860.2659,187.487,154.56982
-1567.8328,391.16312,109.33543
-1247.8307,461.09683,90.50001
-812.47815,360.24158,103.6549
-627.471,347.7655,166.74644
-490.64297,230.13681,170.99855
-428.87943,181.7425,120.90473
-446.04993,122.27319,36.394405
-529.8584,157.92932,3.4788663
-400.16006,195.79778,71.928825
-467.86285,242.62904,142.90393
-800.4914,349.77655,123.175415
-1670.113,716.321,397.29633
-1960.0839,883.9276,881.8687
-1073.2552,683.4365,837.3095
-917.6759,383.04346,630.88635
-796.3624,109.18541,488.37875
-506.05286,136.23253,297.25415
-317.8579,376.96637,260.74738
-295.26004,494.1987,314.85562
-492.87408,465.9386,368.09335
-1283.8845,544.0471,442.08002
-2036.8538,513.2096,476.75665
-1676.9801,272.8065,210.36075
-1280.4792,168.59126,157.34818
-1091.0197,225.8762,287.43228
-842.71875,327.38272,222.7288
-535.6364,426.7045,184.77303
-359.60034,467.18466,164.23735
-315.40308,414.5765,187.40836
-331.0069,293.4428,182.27968
-411.65283,314.8034,180.45099
-538.87616,372.0234,395.36545
-763.2541,408.91257,391.73407
-1419.4442,433.88623,441.2236
-1893.229,387.28867,660.60846
-1776.3582,356.40408,791.7703
-1407.0981,370.06824,733.1336
-1025.7432,418.61685,412.16992
-722.992,422.52945,224.30156
-492.6647,411.2661,177.5065
-381.06393,426.0221,238.37907
-353.01257,407.98434,178.19774
-444.21097,417.76892,200.39294
-602.8151,402.09164,265.28046
-907.26776,416.22202,318.4826
-1202.435,393.84003,371.6584
-1419.7946,424.9664,440.46542
-1579.272,499.9389,550.3445
-1180.661,362.1699,558.0534
-708.2839,169.54553,345.36148
-703.17957,192.82336,253.67612
-909.9151,223.95906,225.84026
-1242.6581,208.22285,171.65126
-1189.2289,330.47592,111.39541
-888.1273,392.33237,170.28462
-705.92224,373.52017,226.80247
-622.4137,418.36746,220.8746
-571.223,418.1911,163.12794
-533.7753,468.11716,158.76889
-496.63385,456.83542,169.32726
-503.38803,512.66125,163.45702
-644.4238,562.07904,196.03
-778.3551,550.1735,219.65096
-954.3776,507.98874,308.99417
-1188.1359,463.21005,359.6359
-1390.8616,431.03333,362.356
-1133.5679,365.03952,489.19427
-945.702,229.55386,410.87427
-1123.0962,235.54262,436.4887
-1059.5056,148.49112,377.75098
-783.451,218.53748,225.6414
-532.60614,369.63718,209.52141
-419.47745,425.69904,219.489
-383.97192,489.0786,236.90286
-422.86243,507.877,390.7248
-514.7213,464.63107,498.91965
-575.7545,391.1009,477.6986
-657.46356,235.68265,400.0798
-704.4137,126.3946,332.2123
-802.4184,270.50824,326.41333
-911.262,370.33643,385.53082
-930.8036,425.52704,490.0135
-825.34106,393.01532,467.65274
-1045.6584,261.84943,316.56833
-1350.863,326.12967,263.25143
-1124.4502,222.58713,120.327385
-1214.1576,293.09995,149.86745
-1089.2373,334.19965,203.6944
-858.921,445.9268,227.20976
-627.17755,467.83557,176.2746
-548.8712,486.51593,204.35744
-452.49313,394.69974,280.42892
-276.91772,239.00185,164.39044
-304.69052,217.78831,21.229551
-1087.5665,656.57056,332.14044
-2035.0006,794.634,784.6329
-1374.8911,753.25616,849.0639
-930.7321,462.1125,805.9115
-784.3019,31.286022,435.52618
-662.47095,243.44987,335.03717
-413.55276,245.53659,340.6355
-273.46988,140.1372,285.5938
-106.43422,166.19734,245.83325
-770.77966,272.16122,157.69794
-1544.9331,435.89093,105.40038
-1586.541,554.2332,154.34561
-1454.634,435.506,113.29811
-1149.3423,291.98694,268.36636
-976.1667,408.2133,368.39337
-693.65497,430.67386,260.1804
-431.99606,393.18597,187.81976
-233.82533,397.73596,159.90343
-240.63951,264.19128,72.44389
-668.3693,403.98096,142.03122
-1738.3636,847.4786,680.40564
-1654.3293,889.702,872.86914
-1115.0603,462.06323,810.06494
-1010.1705,44.74235,537.9336
-805.18964,151.04831,294.8234
-505.01297,317.1308,258.34717
-229.48523,294.54065,294.3888
-147.4966,215.86124,302.02005
-292.45312,216.72606,275.10165
-1287.773,289.64938,145.20412
-1813.5709,497.22192,42.052437
-1490.1357,553.0096,134.50714
-1067.2274,254.73068,216.03299
-882.2456,386.25803,374.78842
-812.20386,467.53665,332.33295
-557.4654,402.8265,180.80527
-260.05453,310.92944,163.2792
-192.36949,201.84944,34.366302
-446.49808,238.3356,160.26726
-1452.6561,938.05945,571.47266
-1806.9386,919.12006,834.47595
-1232.3624,697.7705,842.61456
-874.21155,177.53148,448.0343
-740.3385,53.43237,329.08295
-622.3136,326.61862,378.52283
-357.22766,190.42647,362.97104
-264.20828,354.46716,336.5227
-300.46875,306.6669,330.1687
-727.7411,399.96204,271.51712
-1552.6587,550.32,249.26387
-1841.9487,509.83484,271.30405
-1395.5836,320.22363,238.48778
-1048.172,264.8156,317.06012
-768.63135,348.76428,337.06622
-509.0141,374.174,246.81873
-254.0518,318.8168,122.65283
-323.00256,340.19635,117.543526
-446.26224,275.91132,192.22165
-1101.4077,343.8933,185.27771
-1682.559,553.16254,457.53214
-1389.9352,649.7975,853.8803
-1150.7877,620.4214,951.49115
-1123.7477,471.86816,685.733
-725.90906,256.42007,367.61523
-457.52533,215.12238,235.2584
-303.05472,330.43063,286.586
-279.17358,305.1646,320.08768
-351.36023,417.2631,333.4381
-666.89197,519.6396,356.1286
-888.0048,444.96692,383.22025
-1191.5823,445.25488,469.88385
-1427.4442,375.5068,522.36676
-1869.7385,394.6763,481.12875
-2059.0486,447.56018,632.81586
-1332.7369,202.74747,489.24493
-852.4289,176.72708,293.50742
-771.3012,126.57673,297.25922
-736.4312,172.65324,264.20865
-635.9503,252.9746,243.13173
-548.84564,311.99802,213.76176
-505.0377,351.35242,214.53952
-450.3777,368.76617,208.46109
-481.91034,423.44452,243.6777
-589.71405,505.51205,296.02405
-728.32874,545.6496,357.74362
-1017.74915,498.09003,324.5648
-1544.0819,498.98825,393.4805
-1543.2404,449.999,486.32364
-1282.2968,218.78008,296.06558
-1195.1,132.42871,210.37262
-1147.1746,204.98111,171.22304
-874.21924,327.94113,12.622156
-660.997,511.6112,-59.68693
-540.58154,545.44885,-32.72239
-500.21124,458.00433,13.969673
-512.6521,388.2858,59.48836
-577.2897,452.11093,73.39118
-566.0525,524.10767,110.01213
-751.6813,645.70416,278.6428
-932.32794,693.19464,394.42395
-1129.2853,683.8921,543.78754
-1305.1062,543.425,604.8213
-1444.8394,529.86755,629.47473
-1153.7704,482.11993,581.3917
-860.02136,226.87125,461.60388
-908.6084,224.00114,387.05267
-1075.0677,237.30957,346.40765
-1072.48,231.74384,268.08728
-942.45514,255.41092,149.94382
-794.14294,250.85771,120.79234
-747.118,261.45215,123.17589
-664.27374,261.68848,129.54662
-598.34436,214.89836,97.828026
-533.9066,239.95206,97.46415
-475.53687,240.20839,127.79548
-415.80634,227.03218,147.78372
-427.77753,225.23604,143.87724
-560.87085,306.1722,175.77684
-684.3744,396.66205,251.73224
-726.9571,479.56818,306.8382
-799.9754,484.0947,353.01907
-1228.114,549.59357,372.69678
-2002.211,719.5685,724.9563
-1623.4469,722.0808,810.0148
-1203.9792,661.01764,672.8244
-1094.1293,400.2676,697.6116
-774.02466,215.18732,525.62836
-522.1365,315.5141,414.1668
-325.57047,349.4773,350.62827
-292.25134,483.94318,346.69012
-358.58203,362.43384,355.0412
-478.5149,-129.17056,366.3105
-643.36566,274.51898,296.8042
-809.23926,442.41098,328.48846
-870.81366,437.86966,311.28265
-1065.4027,327.98438,267.79492
-1426.2985,308.20724,290.03598
-1770.4312,393.45303,396.55365
-1451.1709,386.39163,365.71057
-1199.9388,357.85428,239.92345
-941.9983,352.83786,292.4327
-688.7464,304.03256,301.9909
-468.3985,322.46872,228.26317
-321.18604,282.72595,184.45284
-269.93143,292.5797,116.677444
-428.43356,340.4888,96.940895
-621.9015,442.8089,181.41554
-732.2144,462.48727,244.903
-939.28015,498.4836,364.9859
-1258.9363,483.99298,445.46384
-1941.7308,644.0033,668.70685
-1586.214,435.98132,755.62335
-1226.4661,321.71805,588.4785
-1274.9021,299.14923,581.02606
-836.078,215.69057,398.89688
-473.57886,262.9804,265.19116
-402.2372,270.8885,252.05435
-416.74603,202.88988,240.37175
-368.23807,235.76991,180.4612
-472.17325,330.91083,183.5301
-607.2618,305.07568,182.32184
-677.871,257.32846,206.77457
-916.6061,263.6309,231.37248
-1230.0924,304.00742,284.5876
-1452.191,376.09015,365.38733
-1684.1592,434.99515,353.0177
-1535.9629,399.6572,348.20416
-1281.8854,371.4564,356.0984
-924.40784,366.24197,327.2516
-649.33026,327.31372,228.49734
-498.8019,310.6191,199.74026
-403.50327,308.21677,167.40733
-381.03336,333.61087,97.025154
-510.29657,367.22348,66.51879
-594.11224,468.6643,101.13703
-671.70337,500.77606,179.93954
-1064.6162,590.31665,301.39697
-1640.9409,699.09064,569.1678
-1735.726,630.4643,776.41797
-1572.7413,566.601,743.10535
-1544.4944,325.2494,662.4384
-1065.8077,52.226295,511.3568
-624.0412,138.62526,346.7073
-477.7322,240.12476,302.03137
-466.54053,258.73782,268.37802
-365.98105,242.76451,137.51411
-527.89014,337.40378,107.667534
-627.47595,247.20396,111.7717
-712.74097,221.37643,134.22003
-723.06854,218.54198,175.14949
-963.9973,285.63135,236.81076
-1053.9836,326.1136,333.06674
-1341.8738,456.29904,333.6068
-1412.7401,466.39496,354.4272
-1303.6102,403.46545,360.06656
-1277.7963,426.94147,453.21997
-1077.1654,417.00522,434.49542
-896.78955,396.391,261.47662
-837.0688,322.2181,228.43927
-809.2067,445.65814,201.84973
-865.66284,481.05798,152.4698
-673.6046,509.8472,60.643745
-422.00787,502.77063,108.90567
-297.71332,395.25717,211.75687
-443.84262,407.34628,107.98495
-790.5311,643.5856,316.98404
-1365.1115,703.2345,629.86096
-1655.7068,687.75867,793.41974
-961.3619,260.20755,612.71704
-913.8301,7.9553795,401.32568
-820.54785,5.1056337,430.19366
-794.71075,207.28754,376.45923
-853.08966,354.03607,399.475
-1305.7882,406.15894,458.1585
-1560.0747,426.69843,476.80164
-1391.393,451.56836,328.5722
-1066.6344,397.1994,227.07077
-875.2612,322.2048,256.08932
-778.2952,348.05457,340.04807
-587.4267,323.42734,283.38953
-440.08252,323.1927,236.24963
-445.08008,331.61633,172.24052
-507.509,387.77997,196.10423
-617.5005,350.19324,157.57448
-705.4009,358.51132,172.26038
-785.4923,341.01828,214.52634
-1166.9382,326.7718,254.41208
-1880.971,398.0041,228.65918
-2094.2163,666.7396,518.63727
-1349.4604,594.4709,728.9975
-850.9075,468.41342,535.12744
-730.2555,344.91208,452.45706
-475.22937,181.16327,266.10275
-362.38187,248.94208,211.89462
-327.07755,367.31497,275.8151
-512.85895,445.65994,377.52353
-704.2778,460.90195,479.65628
-987.2389,453.36603,564.0692
-1181.3041,393.63025,624.6893
-1290.3636,372.8198,587.522
-1280.9708,332.99805,471.61774
-1327.5145,298.411,474.00894
-1080.8695,306.01587,438.7964
-845.5014,223.03793,289.192
-874.0214,236.75917,240.92456
-1061.9845,209.04074,177.42345
-1046.1683,219.84862,129.36044
-899.2494,317.4374,146.69809
-861.45337,409.7137,217.41156
-701.1347,360.15207,204.2289
-651.71234,332.6046,185.48216
-657.9994,305.07285,185.66837
-597.991,278.21393,180.60867
-573.5932,330.18945,183.43082
-655.1282,409.52264,177.23763
-783.6234,433.33783,178.16872
-929.90106,439.5721,203.29927
-1148.6,431.01147,261.6587
-1292.3972,391.51752,264.13785
-1610.8801,371.24255,230.38614
-1451.3182,362.87564,289.6833
-1016.6224,307.9608,258.292
-952.78906,369.82623,246.66507
-864.42413,360.22018,214.11504
-712.0686,343.36993,169.06343
-538.3251,324.6507,99.57694
-464.34387,374.86816,143.75949
-478.10815,427.36697,264.76245
-552.63306,477.91968,366.7576
-551.86096,473.32812,468.56592
-528.4447,462.82996,486.74255
-538.53467,230.12898,478.6277
-654.1227,211.3299,441.89474
-775.8845,182.08562,414.40988
-847.75055,105.6414,362.18747
-804.0784,149.92186,282.5905
-1166.613,271.00525,315.67996
-1623.1417,398.06387,301.77225
-1719.0828,367.85236,255.54033
-1387.2295,271.0504,205.42023
-1110.1412,267.82977,245.52028
-799.28217,284.92877,222.70847
-521.9205,276.8642,169.0764
-409.66235,269.92725,131.13185
-324.36462,250.04822,122.54959
-348.90085,233.29906,71.242256
-565.87836,293.5591,121.43358
-725.01685,277.96722,190.39336
-931.7404,324.5997,226.46786
-1619.9777,523.6538,346.02615
-1952.3103,821.2003,824.01514
-1377.034,741.96716,1023.838
-1093.5918,445.34808,677.7013
-898.1403,48.194347,394.99753
-615.33545,50.356228,237.00098
-366.18234,207.51506,207.94214
-284.84818,408.83817,237.83287
-297.8706,212.32137,342.18146
-445.94037,58.844784,354.03174
-706.8183,338.98605,325.67337
-1164.2076,400.1277,263.44803
-1463.4454,333.61636,180.82242
-1567.0945,332.425,286.34216
-1457.1885,334.7188,382.75803
-1268.7303,334.9316,331.37256
-958.36487,324.9734,322.16428
-771.884,332.87967,270.86743
-537.9929,370.2969,205.25034
-419.3078,289.9043,195.18234
-348.394,339.8177,161.2209
-522.1058,383.18878,179.89806
-660.4032,434.4289,278.348
-766.1838,396.18063,238.35469
-1023.4622,481.4383,313.4841
-1488.7831,512.3283,403.53748
-1710.0371,699.8113,641.86414
-1267.6825,591.36646,699.46185
-945.5433,452.02414,560.5933
-767.59235,305.55865,516.394
-656.709,255.01765,394.71323
-427.2851,278.04575,357.8692
-379.09546,449.55292,303.2932
-401.73557,-238.90807,326.60382
-428.37833,-82.31764,282.62375
-669.36273,426.6871,262.20383
-1039.5978,651.82965,231.94553
-1325.0924,568.51355,271.6187
-1387.7881,361.9404,287.7293
-1398.4934,281.7164,287.19028
-1320.0944,219.3104,221.12311
-1137.0941,345.13196,246.14195
-899.7009,414.6213,234.18297
-782.0468,514.5099,261.49533
-666.40936,467.36005,264.57227
-575.62085,424.99966,253.2721
-511.15164,317.29556,182.10143
-511.9623,329.46707,177.69196
-346.71878,309.27728,193.02954
-324.90186,312.14938,166.96954
-373.49387,350.88892,94.37314
-1454.8573,674.42285,335.73898
-2285.1062,765.7038,641.4301
-1192.42,592.221,851.26025
-1126.7646,178.95473,800.7797
-829.9001,119.5604,546.16064
-476.705,-33.46881,404.33353
-216.33478,-163.7691,284.21924
-198.84822,330.84146,240.99513
-342.30826,378.72205,210.04662
-1049.528,630.41284,142.40883
-1585.0992,559.38574,92.23896
-1614.707,458.09427,75.21969
-1240.9492,234.82935,172.2836
-922.997,291.33594,297.79233
-796.335,528.523,247.84198
-586.33386,588.4265,165.24107
-379.67957,409.6345,287.1826
-247.64067,197.13647,78.67286
-548.0993,37.25974,289.44278
-1438.6445,539.92847,668.69604
-1682.1802,1045.8221,816.0614
-1176.2664,919.8686,897.6804
-782.3453,-177.38855,462.77243
-653.44763,171.55702,380.62378
-545.355,459.899,350.71793
-376.4231,138.6364,295.8917
-285.6566,159.15065,195.36604
-229.52696,290.6515,203.90918
-1051.8524,488.09125,208.70634
-1960.1075,708.98865,306.46243
-1698.7217,583.22736,248.89359
-1284.4811,123.486,153.38919
-1065.9868,193.70982,332.59247
-850.12024,491.1503,397.28848
-530.5312,540.698,337.94498
-280.2876,441.17383,283.29453
-194.7541,238.86365,128.37582
-309.0166,-34.688217,165.81442
-606.4754,437.9818,221.74043
-1564.911,733.3158,478.02853
-1507.8491,850.7046,718.1406
-973.5478,822.0007,744.54956
-894.30634,328.04977,639.18805
-876.9205,245.59969,333.70615
-572.8773,83.78698,364.3059
-346.00253,162.34624,409.81396
-155.71378,276.0276,366.90384
-158.611,215.96703,270.80643
-545.1317,406.57706,241.04263
-1825.4115,540.30664,206.06917
-1972.1041,651.8345,236.2341
-1335.691,284.6998,176.41092
-953.923,199.04779,378.03418
-786.27014,393.46814,449.10513
-493.0186,426.9757,202.62764
-379.83844,438.209,132.9837
-229.93591,404.54062,117.274765
-394.98996,222.90292,62.867077
-879.7856,302.27197,148.26819
-1678.2272,529.7558,569.765
-1452.2013,815.74817,881.43317
-946.7815,691.4504,993.73004
-716.38025,217.90553,541.1796
-648.6977,139.77911,308.37622
-467.02475,241.59013,412.76904
-300.45544,149.17137,366.73367
-327.11703,295.16464,305.44748
-1142.6779,403.1176,312.41946
-2007.3173,498.98544,312.3321
-1736.0365,451.1663,213.94078
-1119.0464,263.42575,155.5324
-724.08777,243.2859,256.3129
-684.8948,405.2191,204.59998
-438.68362,442.8353,165.89514
-335.85324,392.21594,118.52243
-412.57922,308.4294,96.8048
-553.106,206.26956,178.83182
-806.47064,201.88232,215.61557
-1347.5953,467.10483,368.46033
-1674.1439,745.8906,783.7089
-1261.2651,703.00433,1045.9294
-971.5358,513.8206,795.4964
-923.8539,351.7081,535.47656
-664.81885,233.4996,449.6816
-426.91397,248.24617,361.44962
-360.2285,317.79163,375.8659
-358.79587,336.15988,390.4661
-369.04303,403.77057,329.68784
-615.67114,490.20316,337.5488
-784.19885,453.4576,329.13568
-1318.4708,465.31177,332.85773
-1986.2797,396.84326,475.10535
-1908.8496,291.5239,476.48627
-1658.393,242.5142,367.76428
-1375.6403,209.05504,340.18643
-1064.7352,175.2315,298.61258
-792.9037,218.69365,284.2174
-671.2095,271.2986,317.0805
-596.2231,274.24432,285.60196
-550.65686,258.3101,249.42682
-582.9644,271.0306,258.16107
-621.64246,315.47037,256.58643
-674.99066,404.04596,204.56387
-728.54456,453.0697,161.39148
-745.8748,482.49042,184.25554
-883.7932,519.2361,190.6862
-1037.3867,568.68365,204.81459
-1388.4232,628.23755,259.66003
-1300.204,603.1645,347.64355
-1121.823,384.92764,309.46545
-1261.0889,155.60612,232.74846
-1168.5349,150.83131,184.0325
-860.4386,216.26239,81.88918
-589.3006,420.6965,77.25372
-364.36264,538.0902,125.83499
-321.9869,530.43726,144.69812
-384.57898,490.31958,196.78946
-463.76697,474.99042,258.92816
-610.7058,544.34955,347.54523
-735.8454,576.2281,424.86575
-932.3601,652.94006,512.92114
-1059.6804,638.2384,617.99506
-1208.6045,582.44147,646.55695
-1346.8032,571.37286,695.7224
-1405.5491,512.1301,662.42285
-1076.0618,305.43356,496.45975
-913.5892,249.42845,325.06116
-967.8573,213.39877,263.61395
-962.0079,196.52348,217.05473
-847.1454,321.0093,160.8402
-730.1565,362.12518,173.7565
-640.8066,331.76364,173.9542
-524.7798,283.30258,149.64963
-501.1775,276.66653,138.49608
-541.09674,270.132,166.3028
-556.7253,265.17554,163.53084
-728.90356,325.1895,213.02155
-929.6738,340.85306,306.19412
-1004.62225,323.4219,360.64975
-1406.1108,372.53638,379.5312
-1485.2625,417.07883,595.2196
-1112.2693,357.57944,595.8261
-963.1985,292.16312,434.74783
-1017.8895,176.87016,409.50223
-840.8735,232.71219,309.9174
-621.10724,322.50256,259.85693
-495.57483,421.7071,270.93378
-491.35522,450.22717,310.50192
-530.27325,438.48053,325.35345
-593.6511,391.68848,350.28452
-700.5445,385.1908,402.28098
-943.52905,422.81647,511.90204
-1073.715,336.654,506.14835
-1163.9731,248.94661,442.62973
-1278.6178,448.46747,463.61877
-1163.908,360.52856,473.7857
-863.89966,278.33057,327.05756
-903.2029,259.27185,226.57713
-1068.0569,238.10934,166.71722
-1003.3013,267.23068,89.198654
-822.6062,293.99576,79.60215
-711.68066,262.46133,87.53471
-693.4333,240.93501,96.33947
-665.76587,199.42564,37.30804
-565.0102,166.2629,33.853027
-581.6841,174.78427,55.664963
-577.01385,235.84132,83.77891
-564.0772,281.2537,129.51851
-503.35468,353.55005,247.26764
-527.93805,417.74597,239.17679
-1073.2205,526.3258,254.40277
-2021.5713,764.026,783.844
-1513.6553,849.0321,1098.5684
-1024.2126,534.76605,566.41034
-971.3813,58.50085,403.1971
-644.8205,23.516445,346.75342
-304.5788,145.15994,215.21707
-202.11113,352.55853,243.18082
-292.58804,341.6807,300.1801
-542.6072,146.31654,339.84634
-1218.3761,316.98395,308.8362
-1868.0022,563.45386,296.70273
-1765.5745,454.1375,253.66722
-1471.6449,240.91306,207.66992
-1392.5582,265.99493,296.49292
-1089.596,336.56927,313.64423
-759.7063,387.4905,296.3117
-489.03802,312.15897,219.93335
-346.46744,232.60141,160.87924
-312.23865,211.67506,156.65184
-339.05634,301.4083,160.04434
-372.47202,330.74872,139.2096
-394.60544,378.78882,209.37543
-538.83594,418.7351,229.03772
-932.6776,564.6879,305.2725
-1717.1014,751.4324,486.37933
-2045.7101,1095.7466,1042.7122
-1594.1709,650.7087,965.7645
-1139.9156,-31.448511,500.9811
-764.69946,58.14441,379.93262
-455.74738,364.90125,229.03635
-341.59583,256.992,259.19232
-253.93234,11.536329,219.98755
-278.64737,247.39464,260.49893
-503.37863,524.6954,231.8817
-669.7034,617.0703,260.32486
-606.4077,321.43356,186.29941
-861.9038,256.56345,200.02924
-1446.9814,232.92105,292.8126
-1890.4794,452.25912,505.23535
-1690.7059,415.0514,433.3151
-1340.7809,298.38306,332.7147
-1076.7552,293.30032,370.644
-839.35504,349.33194,325.61972
-622.5967,407.15994,275.67627
-460.298,431.28693,280.72174
-376.972,352.4232,248.68098
-325.27042,278.26898,198.95177
-345.99182,231.21782,156.72374
-505.27765,308.6676,153.87924
-560.28625,343.9961,176.66203
-861.91,429.6177,229.64423
-1524.287,543.8601,345.86005
-1953.2211,685.7123,514.74524
-1550.5679,702.79535,769.64606
-1214.476,575.0772,776.69415
-1147.1309,485.94623,588.9289
-837.1275,259.85135,327.34473
-557.0713,215.52188,184.36987
-500.98547,322.6099,251.40845
-390.04352,-293.9751,206.52246
-254.43105,-100.67496,176.5693
-394.58957,325.6582,177.23564
-553.30536,457.31375,216.31516
-739.3476,473.012,110.87073
-1115.0828,357.30475,169.78569
-1630.8954,279.84982,228.94768
-1875.7416,327.8418,395.25616
-1609.9172,304.34103,313.25876
-1265.7059,297.19696,289.55936
-982.7943,412.61462,376.717
-816.763,443.7445,310.59238
-536.4943,275.99997,195.1854
-330.0064,163.31535,145.2465
-403.9515,134.64441,44.30729
-455.09985,185.25111,4.0100193
-536.45404,316.7441,-22.375723
-758.8779,471.49435,48.611835
-1520.5289,690.03094,26.67228
-2107.9958,966.2421,534.7861
-1565.3546,588.39136,1195.705
-1260.901,614.0327,876.09534
-1012.9441,171.62105,483.8204
-713.8203,-155.8539,345.34177
-379.94138,163.9101,284.76404
-295.35968,272.08612,377.02222
-362.53998,207.55865,437.01123
-444.71356,-330.68338,375.718
-603.5916,63.884632,253.12634
-693.8095,428.89032,231.16603
-778.9916,473.82272,211.1083
-1122.2455,385.5254,155.67862
-1442.9912,225.38864,237.82417
-1773.908,257.13785,289.70572
-1600.3367,389.26184,346.37112
-1239.839,414.8566,352.28903
-1030.3916,476.30505,331.6003
-927.63367,467.12885,354.65176
-703.68414,300.86203,355.3258
-538.9156,207.94792,199.57605
-479.13422,259.55963,143.86497
-428.44815,280.55777,121.96566
-496.60037,371.5161,99.84045
-626.83136,472.298,152.36133
-665.2838,512.3421,266.841
-881.89154,452.73083,245.69867
-1903.6223,576.44116,485.82587
-2007.6445,427.16803,811.14294
-1711.8423,190.29198,983.6239
-1351.3087,-190.54941,762.7604
-918.04724,-375.6586,500.32663
-541.3136,163.70654,524.0525
-276.23804,11.4920845,446.99103
-271.26825,-521.58826,261.01144
-373.5227,-266.39398,266.5937
-578.0324,138.85338,229.80815
-874.1788,726.4972,275.12344
-1037.1241,826.91125,326.29117
-1037.882,511.8346,395.3163
-1083.3573,197.65446,480.0949
-1049.7208,110.95427,409.9611
-1205.2078,345.05014,361.00198
-1282.8351,664.25995,487.5651
-971.7464,509.75043,406.78738
-894.9775,324.35852,295.2551
-1115.6929,131.05722,259.86694
-1178.3591,36.63649,129.54659
-1078.8213,220.03296,101.48301
-886.80145,383.50082,169.28636
-769.15814,459.2397,225.88501
-657.33795,401.41748,144.52104
-579.4885,336.5468,118.80988
-510.7072,336.0928,135.06245
-545.73096,385.06177,189.95807
-583.73444,473.366,174.70367
-748.2469,510.02457,220.46823
-862.1887,488.44437,274.2973
-990.6827,435.22357,324.1798
-1272.6737,392.1079,346.82333
-1416.629,333.00052,361.9722
-1137.0658,258.90134,347.6514
-1066.0023,306.75705,394.4407
-1050.0249,341.95526,426.99353
-859.0132,331.7354,326.97333
-607.3231,382.71252,277.52206
-503.75977,345.4386,335.5973
-432.2267,280.00943,504.73798
-519.7663,150.25137,527.9057
-594.3633,137.34663,416.8914
-699.2044,237.7985,459.65924
-542.3567,274.40894,367.13132
-520.76697,309.00586,300.0063
-613.33856,241.63194,262.90564
-724.7936,209.2859,308.16287
-788.684,253.7647,322.66248
-1218.4407,399.05838,339.3213
-1554.3035,456.16602,397.36407
-1660.552,378.83917,386.66397
-1517.1542,294.93878,334.4211
-1311.1724,265.59756,325.3963
-993.0673,235.89459,251.10161
-710.5363,235.5351,186.92609
-496.03903,276.90826,170.07306
-398.1705,325.15567,163.79704
-344.96054,387.0181,156.95587
-449.51938,384.9052,144.67476
-614.78015,367.6029,165.25406
-731.7787,354.7916,221.07822
-838.8636,363.2951,263.00613
-1120.6031,434.51346,347.8473
-1457.0657,512.1763,486.71176
-1736.781,553.39417,724.2277
-1293.6719,419.18317,707.8913
-1174.2373,282.77512,589.1606
-1042.8468,160.42035,486.027
-701.9757,159.78642,345.55136
-465.6864,258.9201,289.4097
-435.69037,252.38954,261.96634
-441.3885,38.79466,286.1296
-500.26263,160.39201,244.28065
-564.0461,338.93875,230.38383
-574.6963,300.95105,204.66039
-667.12366,251.0635,185.27173
-946.4509,198.32535,201.70317
-1269.4825,191.36546,230.04268
-1633.5935,272.47415,303.70166
-1806.3925,419.8575,337.8454
-1563.8048,398.49432,359.43167
-1259.5859,399.4136,411.9337
-918.4785,313.33026,423.91464
-666.60944,299.7164,302.69418
-502.6805,295.21262,234.18747
-397.76935,268.2424,181.0029
-380.36212,298.86127,123.58483
-503.4201,349.0837,79.803116
-528.8914,428.15427,159.04286
-690.66486,451.10742,203.92857
-937.61096,499.97797,292.7238
-1363.0015,569.4039,426.9373
-1748.2638,630.49414,654.1757
-1501.0712,529.9717,886.22107
-1340.6084,270.06552,649.96533
-1212.4825,190.19806,529.8177
-809.85895,142.61055,374.50534
-540.6659,244.84145,344.85645
-479.05,194.11015,346.6501
-433.83014,242.67668,274.5872
-506.6328,275.58694,245.07083
-599.5652,265.5558,220.45084
-667.7206,201.34322,189.16383
-702.4273,199.10756,204.23238
-851.5769,198.54218,204.18121
-1214.9097,296.19202,234.67303
-1362.7903,341.99326,305.64642
-1715.3184,469.0143,340.15726
-1540.9404,383.48172,342.20944
-1195.0579,329.23355,338.12073
-884.607,268.38132,341.47192
-681.37396,325.89957,306.68494
-599.51526,366.34003,267.61334
-536.203,334.2267,181.81052
-487.1977,325.73154,126.58055
-595.9087,304.31906,36.45428
-706.6593,370.07745,83.01166
-705.0042,478.02405,194.79118
-923.1619,594.6032,317.59937
-1318.3121,738.3691,489.92337
-1699.0991,740.94653,760.8419
-1445.9258,404.13474,719.23553
-1290.2083,216.67908,487.25232
-1088.3893,189.22803,377.8595
-800.2933,264.27173,334.80423
-691.8018,288.89246,327.7634
-547.052,241.71227,247.18631
-540.2396,237.3236,197.00357
-565.3759,209.05925,158.45926
-667.51746,238.90282,142.76955
-726.6317,217.89447,150.84499
-783.93994,208.32005,141.92987
-1088.3245,344.87033,240.75687
-1292.9178,466.8536,304.32492
-1504.0178,562.601,358.73907
-1372.394,481.62866,341.41885
-1230.4226,434.28146,373.84036
-1125.2551,448.10965,433.81866
-970.25085,527.0616,378.7787
-738.5523,509.71164,330.10986
-578.64014,377.13882,276.43454
-484.90994,388.88992,184.66364
-540.38556,338.9831,144.81142
-583.62897,377.10947,96.98539
-634.10706,443.14178,132.35165
-729.4992,507.95374,183.4052
-1035.842,575.02673,263.64807
-1470.4497,742.25,423.84116
-1611.7725,692.2954,764.74524
-1242.2241,455.329,846.4467
-1242.0785,206.81682,546.487
-1040.7417,92.37159,433.94885
-714.8685,116.73487,367.4965
-583.4066,273.11844,407.31442
-661.85004,263.04398,371.1771
-636.3764,308.94424,338.05396
-616.97644,293.58475,297.28766
-569.79407,354.57605,305.71536
-546.5523,319.44968,308.1985
-538.2162,454.16714,325.7124
-788.51306,594.39496,414.20813
-1052.14,870.1355,550.8517
-1308.4785,872.51953,619.93787
-1263.18,840.63965,609.5136
-1104.9652,728.7303,504.53326
-729.10614,1003.6413,389.7538
-543.0088,1005.316,323.93152
-244.13359,931.8619,302.32477
