# PAMAP2 dataset (wrist-mounted sensor)

acc_x[mg],acc_y[mg],acc_z[mg]
-90.248184,835.5153,307.4162
159.21313,861.30365,282.74985
123.53778,868.12616,247.19879
221.46893,946.7566,192.07689
186.89984,822.358,256.96338
184.39372,857.90063,312.69836
169.50555,964.6863,271.3922
245.1588,989.2633,190.9139
234.94632,1016.308,209.09547
344.5027,1033.9576,111.67806
366.97964,1037.3096,113.23755
288.11465,1133.2981,45.501625
283.64987,1270.5153,-16.770277
304.67084,1245.2383,-122.957924
303.21008,1146.0797,-115.95137
283.33966,1071.5027,-46.291298
274.22433,1040.9088,-178.57587
274.50436,1020.36273,-257.83466
199.60631,863.6066,-144.7332
149.9443,602.89044,-46.996105
72.57059,516.913,11.137122
31.292162,455.38583,46.180428
-48.152843,420.34967,59.535408
-161.04926,486.23956,68.356445
-286.05963,452.69296,153.4397
-548.507,653.8263,206.47713
-765.5043,571.1788,267.31076
-1098.5448,429.39542,311.0583
-1630.5619,477.05118,398.48788
-2182.6528,624.67914,469.4198
-2097.9421,816.5373,658.4619
-1571.2897,534.28735,507.4112
-1245.4005,121.22989,379.1407
-1079.3654,27.910686,296.15103
-912.16174,251.26108,117.67925
-703.1277,557.1105,125.42885
-473.41382,583.5415,14.624475
-324.91025,702.63776,43.54338
-323.04095,602.19995,91.96646
-383.22464,571.57336,114.6384
-596.91095,649.1092,205.68192
-803.13,687.31854,258.21487
-1031.2634,686.39996,234.41177
-1283.9445,729.22485,316.46204
-1502.8197,564.5467,287.51422
-1808.7244,658.47296,452.6852
-2002.4421,611.9793,545.64874
-1862.7871,684.599,381.46268
-1623.1836,727.2067,199.90831
-1345.0216,370.4043,121.53969
-997.76776,339.5834,10.16912
-672.1827,323.32162,-58.72821
-455.66672,252.10013,-110.26749
-374.4007,206.58223,-99.4201
-315.52237,173.4441,-67.26106
-315.36163,191.01746,-49.844482
-307.94202,244.39558,-33.545063
-348.60736,364.13828,16.080442
-518.9781,574.0551,131.0387
-669.06824,572.2443,281.3665
-995.70764,434.60565,412.5723
-1593.2836,387.60318,502.32925
-1961.7844,500.65167,848.40515
-1964.918,440.4319,846.2668
-1520.9178,264.9172,502.47284
-1110.2211,59.147293,410.8913
-943.2475,342.1142,368.28452
-750.17004,581.47015,235.92145
-545.1253,650.448,99.833664
-433.9088,670.9707,23.547718
-375.1292,628.11975,65.06537
-487.86072,579.6522,169.4703
-758.5146,689.93585,247.13904
-1033.5302,760.2526,322.0177
-1161.9144,700.3497,334.6434
-1378.7308,652.02026,405.98804
-1600.4644,668.7569,447.69943
-1816.5903,811.91046,488.19196
-1759.0061,681.15607,329.72885
-1791.0543,368.5131,208.6501
-1689.504,186.05019,42.241142
-1235.3477,171.52602,7.1207914
-886.8484,218.26418,39.95419
-663.3303,242.96747,-9.772224
-545.62286,243.63007,-68.839645
-431.65585,223.64594,-85.39108
-370.47644,219.33734,-76.95999
-323.76514,219.66385,-84.840996
-352.9047,307.15323,-72.732864
-512.817,476.3161,-5.9536567
-685.2255,607.5006,211.18748
-967.8154,537.01556,491.17902
-1437.0039,483.21573,604.7693
-1662.5166,363.2837,729.2092
-1816.6174,274.8648,827.72675
-1602.7319,255.04984,648.3904
-1165.285,177.2853,456.1556
-891.4413,264.39313,383.60306
-731.6564,405.655,287.62958
-587.53455,556.99725,166.23325
-469.52808,654.75024,90.16907
-377.61237,659.7465,88.71545
-483.84454,637.6006,191.06606
-754.33765,638.46704,287.34692
-1147.0219,709.9703,368.9662
-1249.6569,581.2093,411.52252
-1425.0925,507.7119,446.69424
-1543.419,685.77075,596.8552
-1553.9451,620.5865,591.15045
-1472.2031,579.2875,457.28415
-1735.0121,481.8722,353.2309
-1719.5726,197.92155,250.9092
-1102.3293,88.06985,138.67056
-800.9607,196.30074,89.9491
-580.75574,222.96,41.251488
-523.11206,247.3981,-1.4628867
-448.89053,226.66815,-26.927834
-400.18857,200.81691,-23.49742
-365.73962,215.85783,-21.843954
-431.6955,290.4924,-13.770032
-537.79596,414.90408,106.25098
-768.5843,570.9358,279.54736
-1137.4998,534.13446,478.64066
-1482.4691,434.23703,616.0685
-1740.1398,413.51987,678.57263
-1804.3131,303.93964,709.865
-1425.8273,89.25818,568.14075
-1000.4569,152.39125,379.92053
-837.40314,360.52115,260.75342
-711.46655,531.6994,162.155
-574.31885,587.595,94.00058
-508.53268,646.16754,83.65883
-549.1795,558.12335,129.46745
-708.4416,502.59073,203.50569
-887.5927,548.02905,261.77188
-1055.6207,663.6776,371.4486
-1250.2959,714.1732,487.79953
-1403.0867,724.2667,523.5138
-1439.6549,683.83057,605.85425
-1294.3474,498.2908,511.2411
-1559.2605,442.28305,522.9108
-1571.3271,156.46776,414.22058
-1319.406,180.64453,259.57593
-1012.3507,168.75656,204.2992
-771.28973,228.84549,159.96545
-656.7566,283.6859,94.429184
-554.1148,253.43835,18.161741
-512.2769,206.41006,14.721971
-442.93063,182.92253,45.24613
-477.9006,244.5488,103.68103
-511.8207,320.3107,121.93752
-689.58093,461.93213,288.80157
-954.2413,515.46686,465.11243
-1274.1283,373.66196,435.28
-1546.0518,354.31934,514.27295
-1821.0372,381.9764,644.9689
-1676.3943,299.44727,563.3124
-1226.9167,187.11497,384.18552
-941.5586,269.81693,214.70966
-792.9723,438.57263,156.02
-655.9712,536.7121,75.032845
-541.0804,572.78357,10.390749
-506.22748,593.28687,30.861385
-579.9874,550.1962,86.85683
-759.57196,553.80884,184.15419
-997.152,612.3585,267.967
-1110.2527,717.4936,385.009
-1333.7911,735.4119,460.01352
-1394.7395,729.8211,518.8109
-1358.1989,574.4106,484.80588
-1353.1868,488.0947,445.40244
-1505.7802,416.04337,451.88065
-1493.8861,219.8328,363.2163
-1315.9231,127.4292,341.40967
-903.8047,16.498425,209.95657
-661.0398,253.17268,114.372765
-591.1002,315.2454,45.593994
-524.89026,311.24365,20.550114
-489.80737,251.38222,10.694664
-525.2059,303.22556,56.87266
-644.4964,436.6772,159.10182
-674.494,485.58466,228.21129
-702.1801,505.7884,365.8939
-898.05,405.91916,440.20624
-1060.4863,364.53757,358.9445
-1281.8716,407.65677,378.18063
-1551.2828,421.30655,396.98862
-1560.8363,438.33548,341.4704
-1212.5774,371.4119,292.9339
-858.6276,393.92786,256.9613
-725.0786,436.18985,181.15276
-635.7299,496.99423,190.05608
-596.34656,466.2988,106.84962
-658.3368,540.2549,101.64886
-766.5973,528.17786,185.73018
-1024.3982,499.67792,280.48215
-1142.4639,532.34674,396.13202
-1154.2999,558.4075,505.86298
-1352.7689,672.3296,658.6281
-1414.6049,723.49475,707.55396
-1369.805,494.56186,569.51953
-1393.972,406.48026,483.02332
-1492.865,288.17694,371.63834
-1366.0807,275.99744,189.83083
-1103.3877,177.33568,193.58177
-899.4644,165.12067,104.52905
-778.2359,316.73877,20.688091
-649.0696,239.94511,-35.159344
-609.96466,250.18147,-53.92619
-544.20135,215.19649,-52.77977
-498.23856,249.0984,-25.750065
-502.76495,318.71878,10.38116
-595.47217,407.0865,128.8963
-872.4326,461.9364,319.60233
-1325.1246,395.07773,384.8443
-1553.635,324.98267,518.1667
-1738.2847,290.42484,660.43756
-1672.1708,265.2982,637.13214
-1255.8253,163.28938,533.3583
-880.9519,225.19823,341.12204
-703.2094,427.2665,215.70023
-643.0842,530.9456,160.60811
-566.0423,511.62076,118.86288
-547.5853,544.8847,127.21708
-631.9706,548.89557,173.71332
-799.93353,577.9207,209.46104
-1039.2908,741.12537,339.0396
-1211.5592,640.9855,437.92502
-1323.5265,611.791,474.366
-1575.3798,841.62,707.2993
-1514.0244,605.1568,667.5399
-1449.2446,575.46893,493.01877
-1732.7094,388.0273,416.94717
-1663.4115,215.63118,262.42282
-1339.9009,136.03511,252.83687
-866.13666,53.28158,129.51756
-665.6299,281.26953,35.433598
-545.0505,219.44925,-18.137068
-491.82632,221.2181,-20.030851
-428.69653,166.25452,-22.072165
-411.63315,202.87816,-12.754944
-415.38083,209.10017,-20.578398
-541.6766,334.92416,111.61561
-840.22595,473.90796,320.7554
-1254.4434,432.38928,367.11887
-1609.217,320.49265,470.449
-2033.5133,360.56247,648.52045
-2073.2578,310.73825,666.4673
-1552.0094,171.39603,540.22186
-1060.5602,196.5732,416.6216
-833.96356,325.01974,256.04544
-693.9974,490.66064,192.27644
-576.5684,571.6905,108.88146
-503.46506,657.8667,118.09003
-505.86673,643.9524,179.74402
-648.6804,589.47455,249.48715
-927.9286,660.00336,332.6127
-1165.9421,627.94446,414.9751
-1205.3943,483.41556,407.6495
-1411.9352,619.1609,541.7748
-1546.8732,634.75214,620.4293
-1532.2957,485.73044,492.25372
-1724.3575,465.76733,439.2456
-1791.8331,326.86798,323.73126
-1635.579,314.53067,261.4433
-1100.7903,73.483284,170.70842
-829.84796,209.99284,70.51845
-644.8493,239.18515,-14.07726
-561.7788,216.91896,-59.94534
-484.04807,194.97151,-42.673508
-446.4928,196.69551,-39.118866
-442.5132,201.54077,-53.09505
-510.05106,320.35504,-17.113459
-570.2026,436.05878,140.14885
-881.517,560.6496,378.00452
-1195.4573,513.9525,519.67596
-1598.4269,432.46167,601.3624
-2001.3748,432.80573,767.31146
-1794.2749,212.98465,694.7304
-1222.0273,120.33039,481.672
-922.74365,133.3123,365.4275
-792.14703,297.54865,237.06895
-706.1844,575.2004,157.44168
-588.6288,677.3675,86.05566
-559.4908,746.6688,78.846466
-615.76385,718.1931,218.40938
-831.16644,651.42084,340.1872
-995.663,678.6705,372.4998
-1114.2911,655.33575,356.21652
-1292.7246,654.9587,365.57858
-1412.3944,760.9929,447.61688
-1468.3845,663.0975,471.05267
-1539.1755,599.25714,381.4505
-1783.2666,450.39874,346.32065
-1631.4106,283.25644,234.40532
-1287.7886,228.91403,207.86961
-1043.8118,190.92596,176.62491
-863.3458,198.85751,77.407814
-674.8054,210.301,-3.5230849
-580.07947,231.79996,-22.648846
-544.288,225.46947,-33.862736
-580.166,259.3635,-29.160858
-598.85144,280.26093,-17.243097
-632.6612,348.21133,109.9201
-829.631,472.52576,215.24791
-1036.7812,578.1976,410.6821
-1214.3695,490.40656,574.38696
-1555.4491,460.93375,599.248
-1734.7705,343.02335,630.7684
-1369.9075,209.72487,604.3434
-978.3372,225.17365,483.75705
-810.35345,371.20834,350.6494
-692.11127,524.8123,296.20248
-584.2106,578.3322,260.09604
-548.4726,658.5672,265.6273
-633.6714,662.6132,345.56442
-789.5823,601.68677,388.62152
-1050.9727,595.97437,442.52127
-1169.5903,511.728,409.79587
-1328.8262,541.7038,453.45114
-1379.593,560.478,509.75085
-1451.6753,522.39246,488.59393
-1439.6537,565.4756,395.06464
-1582.9458,511.86075,333.90298
-1598.1049,401.33658,348.01666
-1179.5271,297.39514,252.64711
-931.1091,248.64459,196.65382
-749.225,227.39342,125.669395
-618.84576,247.0286,78.93481
-514.80493,201.43974,34.6194
-434.197,186.68542,26.921421
-430.24103,192.64001,21.568644
-548.8134,273.6632,32.567085
-634.1081,336.58212,88.2757
-873.1679,443.44632,231.67699
-1170.43,432.1599,340.71445
-1492.052,411.3958,544.9981
-1773.6526,441.05267,713.008
-1792.8973,282.81805,607.35333
-1406.7864,111.719315,549.15594
-1092.2041,153.93558,412.09946
-946.6414,339.53418,290.11185
-798.14764,461.81354,216.3302
-658.3946,643.5204,117.48959
-552.01794,728.68384,154.2805
-522.86035,641.8405,113.38765
-662.24524,688.4217,235.05254
-927.7542,680.2857,340.43314
-1089.5,673.1698,315.94565
-1127.2798,637.83795,292.15717
-1314.752,734.4124,362.47528
-1415.4979,750.75024,451.5277
-1454.7936,718.8371,476.5872
-1642.1658,623.6783,375.63214
-1781.9666,367.6204,310.16357
-1653.0475,167.32646,324.13828
-1277.4905,49.795616,283.97058
-984.6621,82.35081,187.7732
-859.3992,195.09036,117.910545
-720.47015,211.81613,58.11735
-647.78094,182.79916,38.609882
-612.09216,176.25479,28.286331
-582.14124,174.9201,12.664718
-543.5617,225.41496,32.0488
-554.3049,349.54346,144.4529
-736.0967,412.33643,274.41248
-938.62024,504.70532,404.43134
-1245.5349,620.8544,720.2928
-1544.3723,409.97202,709.6889
-1704.7299,31.495289,560.3076
-1526.7012,-90.735176,657.2242
-1217.5919,48.40815,614.57513
-998.41797,340.0709,401.04626
-832.6734,624.01044,323.02185
-671.28265,802.3475,269.72296
-471.75882,866.1954,232.76616
-455.6254,787.3519,303.12225
-577.79346,658.9005,315.45718
-851.6107,658.60077,323.54758
-1034.3983,632.72784,271.8069
-1124.662,642.3781,180.2751
-1444.5388,850.9316,194.50974
-1704.2783,853.97205,210.42319
-1729.2534,614.6363,115.307976
-1776.8042,419.0262,19.746233
-1739.7072,285.85056,-7.8086853
-1466.4144,277.75717,62.065414
-1168.3901,234.05017,7.1143875
-937.6906,221.29187,-28.101398
-736.2675,235.55397,-44.099514
-615.3106,237.077,-97.97995
-613.38226,292.6164,-133.74141
-694.17944,328.093,-115.71876
-796.3522,340.64526,-89.08185
-867.30005,412.97275,29.942638
-976.26996,462.95947,301.02728
-1100.4854,568.4687,544.2057
-1021.702,579.9681,653.46216
-1042.0707,342.82498,699.72174
-1168.8878,-88.301895,592.1982
-1234.3805,-136.03165,529.0063
-1132.4313,152.10788,586.6421
-995.0528,420.88303,607.80676
-846.35596,627.6559,443.71732
-742.82635,702.57416,385.3771
-677.6178,602.55054,386.26562
-626.9403,545.896,349.6709
-680.4229,673.081,331.96597
-887.5985,740.57446,328.72968
-1003.3674,667.1254,275.91086
-1133.0675,579.23206,224.46635
-1336.4733,638.0424,247.23686
-1505.0555,781.3236,339.6056
-1475.0171,767.2808,306.5904
-1528.0192,690.368,223.16177
-1670.856,446.95062,159.36282
-1503.0232,219.4631,80.677635
-1180.0668,183.09157,115.861374
-929.27734,121.685715,124.56689
-748.07983,194.61751,74.06812
-623.4184,223.03896,16.1382
-522.87915,227.7703,-13.351553
-489.3527,233.72559,-13.797335
-509.71884,248.32198,-16.470514
-624.6776,332.7766,-2.2421322
-751.454,403.22635,86.12471
-1020.568,494.0579,288.46573
-1210.9838,479.27335,409.197
-1416.7938,478.27863,585.93933
-1598.9502,407.62802,762.7748
-1563.0531,129.30936,544.96716
-1291.4662,143.18181,491.35123
-966.5233,256.47058,453.90796
-764.50586,370.54996,358.4629
-598.7261,488.30325,281.74762
-502.94708,579.64935,234.53844
-418.82944,606.6971,220.81479
-475.81305,608.97174,239.08208
-726.83405,700.6592,364.20688
-1145.9647,839.264,529.04297
-1273.9071,579.2379,466.1271
-1496.7166,315.42044,468.49484
-1606.3127,326.0849,556.91925
-1629.4043,467.01202,468.58856
-1543.0331,552.5394,327.1951
-1548.9287,436.90958,273.9731
-1426.0505,281.72342,253.1017
-991.8848,183.94025,147.92305
-747.6432,195.10591,64.2172
-606.58295,219.04176,18.314827
-529.33813,214.30812,-6.285717
-457.5199,196.78148,-16.793016
-416.49637,195.81796,-13.296987
-439.2347,244.11305,-8.033661
-566.86334,323.04474,4.509698
-706.8521,400.97842,107.357735
-1020.5745,456.34958,320.96655
-1398.1816,436.40482,447.1257
-1658.21,388.72763,635.8235
-1739.4489,369.8526,711.7492
-1585.3472,172.02405,558.129
-1241.7244,68.848366,426.04172
-903.6778,154.94977,405.7898
-683.0057,234.76633,267.61804
-559.20386,449.33694,182.35641
-477.6004,583.56647,189.86722
-428.62103,630.43005,191.32085
-547.3045,628.9452,273.40048
-772.5368,572.3772,360.55292
-1074.5531,598.8302,466.97867
-1202.0701,594.27826,464.76697
-1288.7854,538.31335,411.60718
-1505.5073,654.1566,486.6345
-1556.6311,620.2813,501.3986
-1531.9843,505.08588,395.6506
-1635.6475,397.419,327.62912
-1564.6923,251.50865,237.91582
-1225.2104,231.62222,167.40654
-916.7826,139.50378,156.8599
-723.7805,280.68793,108.58179
-626.14856,307.00156,54.570854
-551.5823,282.07663,6.57366
-505.4014,214.51848,-7.929628
-459.2798,197.85478,-2.748747
-547.9416,267.6822,12.915626
-563.80457,339.3051,95.66362
-808.70703,432.63174,211.83528
-1118.3524,508.59155,296.4792
-1287.6879,395.89838,487.59756
-1611.2823,430.1872,625.7584
-1764.1058,350.1962,596.8519
-1466.4054,225.63263,473.9497
-1071.9438,195.40111,351.8298
-874.6601,313.93256,285.52557
-770.15704,507.95142,220.797
-688.5913,566.8108,205.86691
-658.3983,634.1357,171.67845
-672.3754,738.24365,252.37965
-868.34406,734.28143,375.7218
-1115.1821,787.2963,532.1473
-1167.5708,601.76117,454.87476
-1345.6276,573.77405,465.16693
-1657.9381,643.30255,637.79236
-1599.5458,350.22687,505.56924
-1781.61,287.66513,398.2226
-1668.7085,80.80792,297.30353
-1408.0181,162.67027,177.67873
-1164.086,264.29733,117.21368
-800.3599,310.078,102.83715
-686.2639,294.79138,49.33826
-646.9145,283.8413,-47.073578
-629.47656,222.45264,-83.31182
-633.1373,184.58958,-41.263416
-626.76337,179.62897,-36.597645
-656.5898,230.08482,27.484781
-707.19885,331.3202,166.73923
-933.068,432.91263,322.15012
-1275.2903,413.94315,371.98282
-1545.53,395.68997,701.4236
-1703.8821,315.4326,798.38025
-1653.7194,112.41693,569.71515
-1355.5825,66.84237,554.62384
-1112.7969,209.54652,391.78937
-931.37775,541.9999,210.31647
-789.8962,690.4988,186.18195
-690.4345,715.1724,157.48994
-605.45667,698.4455,169.04669
-651.4692,718.7201,225.23193
-872.78,832.57947,358.19785
-1055.9297,776.7438,389.396
-1190.0605,547.53094,353.54813
-1452.8392,524.9091,466.30487
-1591.497,607.9581,602.8545
-1679.2155,546.1292,611.7838
-1858.25,391.31454,465.27475
-1964.3843,208.51483,334.9295
-1740.0988,131.10349,185.37096
-1292.0032,122.16783,201.46692
-919.4799,94.6425,165.09688
-697.6688,227.60667,42.094547
-561.55,184.62201,-64.58296
-476.17523,157.30367,-64.02751
-418.27667,141.70918,-29.140263
-417.58142,185.50783,-14.116395
-429.91345,224.20029,-37.490196
-536.8438,376.0588,68.350815
-783.0081,444.63202,274.22488
-1175.7784,421.2526,384.13797
-1648.3855,417.19315,517.74054
-2036.0812,442.24582,693.25696
-1895.2555,178.9437,641.85834
-1386.4235,24.430237,557.9924
-1050.087,108.19156,420.10065
-874.2015,261.47516,273.26447
-757.6863,507.13477,186.25755
-640.027,689.8452,143.4765
-552.08276,717.74854,137.72162
-566.57526,721.60693,205.96074
-781.3037,724.7211,341.64227
-1101.7816,766.60077,439.58493
-1230.613,636.54034,395.63928
-1428.7715,592.9579,443.1802
-1649.7535,631.3147,585.8159
-1606.1658,500.1037,582.476
-1678.6143,415.10355,457.75116
-1793.1803,185.18254,345.78033
-1589.6926,187.25896,209.17688
-1146.0157,70.6232,124.46099
-813.42096,-2.9248612,136.0044
-646.7142,272.63553,38.076916
-576.10944,330.71982,-33.15989
-484.4025,212.94775,-89.59663
-450.8764,142.13208,-81.43072
-487.46213,201.94586,-63.973396
-614.4214,283.4609,-31.258026
-704.27136,359.7934,98.32673
-1003.06555,496.71725,300.6477
-1428.2068,474.17694,416.60114
-1789.0405,427.44046,648.4099
-1913.3453,309.70193,667.434
-1663.2744,156.58553,535.2971
-1282.7538,155.05109,569.68896
-891.1697,224.75758,420.98856
-706.58966,337.77948,273.22366
-609.9413,465.16742,223.41403
-556.8987,580.1643,215.79431
-544.60596,564.72705,207.0094
-591.0161,585.2382,249.84755
-790.76575,595.542,301.21213
-1065.7092,590.43585,355.6714
-1143.1749,607.9495,368.3799
-1518.5603,756.3107,569.8674
-1687.896,704.91785,656.1334
-1545.2009,378.90155,467.84552
-1624.069,293.077,394.7144
-1636.2964,144.04265,302.01074
-1491.0498,211.06459,288.3368
-1057.8381,270.04605,254.18872
-794.2467,184.58554,186.18614
-682.50836,257.58783,56.72881
-599.4502,233.019,-49.428207
-556.0245,196.78922,-62.10344
-508.6305,179.44566,-34.39313
-521.82446,219.39226,-15.11795
-599.59875,319.8197,-15.066065
-664.0826,377.90863,97.13439
-1036.1193,509.73337,266.8735
-1342.774,507.79465,492.1207
-1599.3722,521.32886,790.16296
-1773.6033,314.52887,685.2602
-1633.2783,-13.891942,546.75885
-1203.8645,25.347689,524.30096
-912.16156,238.15459,368.40988
-759.9108,492.5708,236.21353
-654.5007,572.0995,178.36958
-591.8488,661.906,158.44456
-555.01746,633.98596,183.72026
-618.11725,539.40234,236.15881
-862.4176,605.4156,335.52002
-1076.5345,657.0736,387.91748
-1149.268,624.9903,372.53647
-1339.5704,639.93024,456.51807
-1503.0293,668.6524,613.60144
-1473.6093,492.26743,554.5041
-1540.5718,422.59518,430.10962
-1636.2312,307.02548,362.3442
-1420.3091,210.27458,267.72748
-1147.4938,221.36324,238.5966
-889.29285,158.70256,214.91377
-718.4338,216.2837,110.14764
-598.9252,233.25291,10.129674
-531.7504,203.09096,-26.162817
-514.35864,209.5028,-22.637358
-544.4102,229.10204,-18.67432
-625.6956,311.18732,0.64796054
-698.84503,341.65494,74.36527
-997.3815,429.72787,210.4367
-1266.9912,451.19717,318.35287
-1594.5568,518.4798,654.5068
-1775.5824,488.23904,684.07056
-1609.5771,188.25134,522.60706
-1192.1316,40.75077,527.3037
-883.01794,29.73725,430.46008
-739.77203,271.97824,249.95683
-631.08527,549.27106,221.85829
-566.8475,592.0147,192.73361
-543.96564,675.1847,166.53242
-642.00793,698.63336,272.3837
-856.2864,641.1954,405.61093
-1039.1538,650.29517,427.12598
-1193.1742,641.9392,393.51562
-1430.3296,618.10095,397.0344
-1505.0868,673.4644,470.29337
-1517.0583,639.0804,492.4458
-1604.446,565.6264,492.26288
-1783.5548,368.67407,347.644
-1505.4685,192.46037,196.59447
-1116.4799,184.01155,153.73843
-882.7222,140.72739,150.58356
-717.22485,211.33699,82.30956
-608.8528,192.74937,-14.279355
-537.13184,125.335205,-50.030262
-465.28488,139.13144,-44.408413
-447.57983,186.05144,-44.031292
-520.75916,288.53864,-38.80675
-633.13214,436.11008,114.24563
-912.30225,517.43616,347.25992
-1191.9167,476.5,456.77054
-1538.7262,510.68835,613.21967
-1984.1418,510.6937,747.1574
-1808.9943,262.9302,554.48535
-1225.5953,7.412674,458.32803
-933.777,114.55491,399.29486
-761.8974,250.17888,280.1769
-656.40625,548.0811,158.3342
-558.96967,750.71216,154.57025
-502.9256,694.90356,144.09546
-537.9024,649.52747,254.62851
-782.32605,614.6884,414.58588
-1077.9187,578.6546,452.6281
-1175.2512,559.84674,334.12268
-1397.6868,627.6241,360.00284
-1406.5168,700.708,460.67514
-1429.2499,647.0252,445.13248
-1582.3259,572.83026,360.11783
-1715.2462,439.55334,293.3171
-1650.6991,227.85295,317.82507
-1226.9633,82.059074,214.52194
-1023.19165,85.6606,170.30176
-838.7277,93.98958,71.2802
-650.6823,154.50037,-5.8646703
-524.4111,146.39839,-14.7122345
-475.18924,162.59996,17.130083
-474.56677,249.36691,10.3256645
-518.87933,366.11826,68.3989
-557.7977,461.50775,197.54518
-774.00116,551.2124,348.09604
-1026.9904,518.4975,436.2058
-1349.302,370.66562,526.98865
-1865.9795,341.27838,633.12317
-1893.6149,271.68912,672.6744
-1298.6277,247.48944,627.6109
-891.1886,299.71713,387.97202
-733.38904,327.84827,267.6778
-631.38184,444.13504,190.58646
-567.40314,594.8021,165.80824
-538.5941,666.2231,127.272766
-618.0265,707.7556,196.01814
-861.03253,659.8988,351.80472
-1079.1154,621.1055,389.27438
-1266.425,586.92566,398.84778
-1370.1248,610.5586,408.99576
-1423.3297,659.20557,438.06302
-1480.8938,614.9111,455.42755
-1516.3511,549.286,373.44693
-1577.2441,354.21844,262.25372
-1347.0382,256.85037,247.51361
-1034.117,237.92726,246.64124
-839.8882,221.62802,173.5946
-701.42096,214.36372,95.89045
-625.8047,204.90924,49.05554
-554.4423,180.27827,17.652178
-553.5056,201.70248,29.819393
-561.3913,241.22717,47.57544
-633.1929,337.83603,98.66493
-725.07855,422.8861,200.41527
-947.2447,470.93558,333.4449
-1108.7322,411.83188,445.09183
-1372.4238,419.3977,635.3512
-1762.2261,429.7514,723.7762
-1691.5342,236.72215,551.2853
-1227.7573,164.46863,469.81125
-896.2273,224.95728,321.40323
-753.1053,288.028,230.42165
-673.8309,465.13318,126.52189
-586.27277,673.3422,104.08606
-564.04456,735.0021,121.561966
-607.9769,668.506,175.93713
-890.98975,664.70514,354.98465
-1163.722,661.4335,461.94904
-1146.2063,574.57324,366.53162
-1363.0829,641.2098,418.1597
-1439.8922,657.013,495.9361
-1422.2628,583.3032,470.8235
-1516.1536,494.40002,397.23114
-1734.9944,351.8419,296.1069
-1477.8488,199.87894,215.0139
-1183.0294,178.14319,267.07626
-897.3118,131.8759,176.37393
-698.6078,202.03308,77.66381
-583.771,204.62756,1.4474089
-511.98,184.53783,-10.919659
-496.167,176.1931,-16.978788
-542.9856,283.6349,-2.5149488
-586.1561,346.32663,24.678877
-668.84784,428.55313,172.97475
-942.3541,462.9098,309.61823
-1157.2383,401.75897,375.69855
-1543.851,377.5389,560.1339
-1846.6029,406.99576,693.4571
-1671.3093,280.80707,640.94226
-1244.1096,179.3244,494.22592
-879.92053,168.03485,339.30438
-759.40424,235.63298,264.03168
-695.1304,407.5382,162.45334
-627.75604,596.7278,107.30878
-587.2298,714.18646,138.78488
-625.98865,705.1541,240.18437
-808.9178,636.164,339.02264
-1071.6865,617.3069,434.45758
-1232.6935,549.2362,444.2977
-1352.9513,550.5414,431.92413
-1467.1788,625.71747,572.7556
-1459.463,501.18747,537.35876
-1477.4197,383.63696,379.90155
-1558.3951,278.09845,303.1346
-1424.1917,208.56122,256.36307
-1177.1387,196.83047,306.8504
-865.3875,183.74915,187.80841
-681.4241,213.08461,87.42299
-600.0607,206.56854,9.780738
-549.3927,208.10753,-16.678818
-545.0836,202.76137,-8.960529
-586.2159,270.8344,32.56311
-646.15625,330.10507,68.97732
-705.3682,389.7541,187.44205
-961.2387,472.20743,304.4163
-1219.415,415.34082,439.5541
-1444.1367,360.69095,583.02545
-1785.9116,380.1603,633.91187
-1667.7258,247.0273,579.22815
-1178.9329,202.16441,473.3498
-842.3812,142.71858,330.73395
-705.80396,233.42099,213.4265
-632.50867,453.65353,153.0407
-602.21576,616.14886,155.79073
-610.53156,662.09973,146.93675
-730.23804,689.8195,253.30313
-933.8375,645.4827,406.51477
-1165.1079,614.7305,475.63596
-1113.2781,524.60016,377.60992
-1305.2233,607.95166,413.1374
-1518.8208,642.0871,555.7829
-1417.3652,487.10403,498.5316
-1430.8951,405.7907,369.68344
-1471.5637,289.70993,298.6524
-1355.3368,289.98386,276.52847
-1155.9313,243.63782,294.3493
-879.6766,182.15457,171.73369
-720.2739,195.04567,76.79899
-632.93475,216.64879,29.081593
-565.1411,218.18343,7.1744924
-581.2022,240.00876,-1.5112859
-653.7594,275.21652,-2.4101143
-724.3487,298.07742,33.76254
-771.2371,322.35968,119.173134
-1050.3784,394.96542,228.08534
-1270.8839,409.91028,373.84036
-1448.4313,430.3448,542.8558
-1616.7874,351.43198,581.8524
-1557.992,198.60786,548.305
-1190.2107,155.00671,554.4711
-835.9412,165.66754,387.6043
-685.3771,298.48456,219.12965
-590.1023,443.4383,215.39148
-575.41425,530.41675,200.71927
-627.45074,640.2345,232.03986
-744.268,708.5441,332.21082
-925.5023,645.6194,407.6317
-1166.8817,629.2725,498.73254
-1254.8839,508.45865,422.77676
-1474.4772,537.9684,465.6188
-1513.9929,575.3323,557.2772
-1462.3015,499.90475,472.61606
-1538.2355,444.00635,391.01816
-1596.877,316.6223,311.03223
-1385.6112,240.245,247.95966
-1057.492,186.22403,206.93726
-824.0986,169.3852,143.94244
-673.93317,222.25784,63.700977
-586.17755,211.94832,-4.522339
-526.14734,181.73158,-1.8891138
-524.0354,186.24335,-12.677125
-540.6887,258.80377,11.837074
-582.4634,321.77087,52.216255
-676.6394,425.35953,178.6623
-968.516,522.4757,343.39658
-1162.7328,458.78204,450.56046
-1382.9332,395.52237,590.3786
-1711.7932,360.23083,685.9175
-1626.0443,200.02707,588.3835
-1179.7428,178.03181,499.61295
-868.0076,177.846,361.40155
-745.08344,301.6793,243.76285
-678.3987,491.72742,193.31635
-579.68317,619.2121,154.82855
-623.95636,707.7292,194.29965
-672.17194,656.68,280.9212
-902.633,625.23846,391.5055
-1127.147,655.96106,473.77475
-1208.0767,563.5253,425.89362
-1400.0121,614.8663,459.83844
-1517.7126,587.4244,563.9412
-1480.1495,513.644,524.7262
-1579.6162,397.8697,435.54684
-1614.4678,183.80127,322.34543
-1352.5432,205.27539,270.85254
-1152.8237,199.02881,284.95322
-880.4477,173.97922,200.32982
-704.829,208.32217,81.68537
-561.78705,207.13278,44.777687
-497.14038,158.01938,22.320572
-440.09146,195.09169,13.128408
-490.81558,265.86884,8.459785
-577.17346,343.86697,36.271667
-671.7517,413.2535,102.93771
-974.442,508.06863,302.97723
-1251.973,477.60223,400.21625
-1365.1285,392.75577,497.32822
-1647.3738,313.08554,689.46515
-1634.1993,229.07507,692.2779
-1288.9385,283.55667,607.75946
-920.22644,278.4309,435.4386
-719.81744,292.61087,302.79166
-604.1129,417.07324,247.2582
-566.62976,512.47864,237.16547
-542.048,617.8117,202.99556
-636.7071,690.5171,280.99213
-823.4456,696.5284,361.98526
-1079.9199,657.74396,436.06583
-1197.7339,577.44586,470.7433
-1364.9937,514.55554,493.94708
-1586.4822,733.8546,661.96185
-1640.9907,611.88654,661.85974
-1544.1112,513.8457,475.18427
-1844.4369,288.23315,376.7408
-1652.612,193.35706,182.56013
-1181.5974,-16.54198,274.30374
-857.48535,85.757935,195.44891
-681.06134,325.39905,35.17246
-578.0053,221.1179,-47.611282
-539.4455,240.92693,-31.555103
-495.84924,116.81224,-50.725616
-466.9025,128.12747,-40.80028
-482.11316,169.34367,-73.99673
-551.28326,349.26456,-4.638815
-732.619,488.93353,197.22112
-1074.0134,573.5118,395.2939
-1329.65,546.058,560.9404
-1830.2928,540.7638,888.431
-1968.2135,196.49583,701.3499
-1480.7773,-86.30126,756.9481
-1049.0378,139.66933,539.3203
-783.7819,396.59964,208.39917
-642.7574,462.57742,163.53764
-582.4482,718.1924,176.70695
-459.02768,648.1302,185.94101
-422.7473,567.7072,120.85914
-631.59717,540.34906,271.49518
-1031.8907,648.10724,340.99615
-1231.5648,779.12805,415.50003
-1301.6696,672.4459,475.13382
-1602.9246,643.71265,636.0105
-1648.1594,636.2397,553.15674
-1736.0774,640.46,486.86545
-1896.3365,115.75003,465.08096
-1647.1422,70.74464,264.40268
-1219.4617,179.5518,178.8862
-827.6269,98.084175,164.77428
-729.28925,406.25467,89.87795
-636.8898,278.7315,-9.081924
-604.21893,180.01804,-54.444775
-496.26767,86.31402,-52.787594
-413.93622,92.892685,-76.667274
-382.9689,161.49893,-97.5209
-523.4638,329.9889,-41.20315
-718.2235,467.91446,183.7786
-1094.4631,507.06174,359.09283
-1358.7238,442.62436,355.17264
-1788.7361,489.30328,682.0168
-2055.5303,421.45132,906.5409
-1626.8993,110.35467,618.82025
-1173.5281,-10.609876,539.7609
-913.717,134.73537,371.20755
-756.818,356.39264,252.4555
-627.1537,607.59894,136.90439
-513.97485,714.1274,141.69911
-423.01172,661.6158,115.809845
-478.03745,599.8479,168.25606
-709.21545,632.20776,323.71338
-1001.93866,696.1983,403.68875
-1220.4767,643.9952,388.47745
-1370.9515,558.0252,413.21872
-1536.1056,620.3651,506.96414
-1543.8743,536.34875,550.76794
-1518.0287,525.6163,454.8068
-1662.7866,426.77277,375.10477
-1571.5392,283.28894,289.43558
-1259.7631,200.28459,277.987
-966.1104,125.18166,169.99802
-747.2795,146.69722,62.422604
-624.05884,169.92267,-4.3919244
-550.8014,130.86908,-35.757046
-482.29977,70.70373,-41.918503
-427.20404,118.98236,-26.57233
-479.29498,256.14087,-41.549953
-555.814,337.71472,-42.342705
-695.51056,501.9787,115.58654
-922.8688,546.582,404.8263
-1230.103,497.6954,496.78058
-1735.0088,578.6628,746.9174
-2001.3275,524.92175,865.34863
-1702.8938,159.05376,583.9755
-1192.376,-92.0726,481.5959
-838.7889,0.7073529,317.04022
-646.27734,236.11206,219.97778
-560.7523,497.67932,101.267944
-487.1013,726.2789,86.39913
-428.8621,714.5703,111.82494
-401.7445,578.68054,159.49135
-680.7141,563.1111,260.9917
-1143.4025,670.39154,426.1575
-1188.8074,681.7748,437.48663
-1311.658,703.5363,453.28146
-1595.2758,664.79553,515.1675
-1548.944,649.58826,510.4753
-1569.9833,674.8837,447.43478
-1743.7916,427.36786,372.9562
-1586.2831,247.9897,260.02014
-1254.7267,152.14914,228.79016
-868.8237,3.2498333,205.05885
-692.19934,222.02036,91.20253
-582.032,212.2599,24.679045
-516.4905,217.12495,-3.202244
-449.52246,166.46446,-2.100787
-420.66122,152.3195,14.907054
-461.83316,166.81404,-23.350725
-572.6282,288.16418,4.7368197
-722.5321,400.50092,131.94063
-1111.5826,516.2686,371.87082
-1505.3936,546.9148,531.10144
-1870.1384,617.9706,757.5923
-1908.5066,336.67407,628.9309
-1534.3264,-184.17557,384.44888
-1210.1848,-47.77283,436.31396
-913.97675,216.60239,301.48755
-756.70703,462.8318,191.65276
-600.7817,709.0472,112.789825
-467.7158,689.1538,102.975555
-399.50952,581.6215,99.29927
-512.0676,519.2503,213.44194
-767.175,587.5013,331.77908
-1143.3759,757.7312,438.75073
-1180.9556,625.06476,425.24112
-1221.4496,469.18054,450.2003
-1500.9371,521.32886,613.5038
-1548.963,500.5541,675.82544
-1387.3536,544.78876,492.205
-1514.7344,533.6898,444.7481
-1755.1235,417.92453,196.0652
-1422.9489,179.15648,114.19177
-1005.47705,-47.063107,206.75377
-784.17053,340.46008,108.88863
-647.9201,281.08105,11.606028
-538.91846,265.51126,-67.327156
-494.29626,251.97026,-34.87653
-458.2079,164.50497,-48.759422
-483.6481,194.49043,-12.018139
-537.91785,253.60968,11.958824
-679.829,429.7858,163.06992
-937.1824,529.17017,329.65683
-1187.9736,478.07117,463.29517
-1486.6288,413.3606,566.9553
-1772.3444,378.51532,650.1503
-1817.9054,285.33905,582.3922
-1427.8232,200.06355,553.60144
-1022.2118,258.0823,437.37747
-799.8342,364.75943,266.02164
-659.73883,477.66364,225.74954
-576.96484,567.0594,147.7998
-534.6827,634.81445,126.3423
-572.0035,639.64417,201.76659
-723.98987,644.8418,327.37064
-947.5053,681.10834,380.84976
-1091.0638,674.9041,442.3402
-1252.6625,519.69684,467.82648
-1485.5975,569.55634,568.7049
-1680.3275,604.2062,702.0006
-1561.5309,531.6892,567.7552
-1737.4095,485.36658,395.0388
-1712.8087,258.46817,238.01753
-1383.4304,215.53691,234.64148
-1000.4831,82.093735,221.26231
-749.2202,249.81274,66.35392
-611.13806,234.54976,-26.506561
-530.99915,196.46887,-49.214024
-496.26306,168.01814,-25.5489
-421.59085,152.20181,-32.710667
-458.68088,214.63162,-16.259584
-517.1731,337.38968,13.45257
-619.1408,454.03342,181.8393
-900.8538,576.8699,391.83615
-1188.9448,474.85696,446.99158
-1412.836,379.5245,520.96014
-1858.9371,530.7584,759.66876
-1834.8955,517.2139,714.9666
-1287.255,285.2977,562.4317
-921.21027,134.91208,393.8279
-695.57416,200.17796,300.25186
-598.4323,369.275,259.40253
-542.7307,622.17377,200.72627
-460.148,832.714,227.21136
-508.30948,815.65717,324.27112
-702.4228,774.27313,461.24
-1011.1119,655.96014,549.3216
-1289.683,506.51596,568.7132
-1498.5656,625.68054,591.0159
-1653.2786,846.95514,621.3097
-1773.8944,744.98865,481.0197
-1630.6211,585.7948,282.34805
-1565.0219,664.75586,138.8919
-1300.3623,634.3371,51.115566
-907.26996,627.0254,-52.83436
-651.6636,443.07645,-136.3047
-494.0171,309.955,-83.79271
-334.97784,171.83255,-56.131454
-332.43524,250.7248,-59.871643
-197.63481,192.83704,-2.0173569
3.7870154,637.55505,30.663876
100.53029,956.6172,70.838165
79.271324,1118.2743,211.41125
171.62311,1196.7339,248.50594
164.13333,1415.9119,-56.606003
193.92282,1540.3597,-171.98813
193.76472,1319.5236,-200.2131
55.855083,1054.9803,-233.21643
45.16353,937.5501,-191.15231
108.77035,692.6923,-151.02847
239.30077,548.3243,-140.55676
272.51175,325.58704,-46.368164
262.24753,400.76807,48.270996
345.1732,640.28284,75.72304
310.12167,874.4235,-16.053186
337.99573,1065.5907,-39.009247
383.72708,1161.6283,-146.05533
393.5284,1327.766,-195.84918
521.6947,1340.085,-301.7827
395.51062,1694.9601,-506.60416
340.26678,1451.947,-523.7727
268.61328,1168.3042,-437.99106
205.93192,956.83545,-382.84778
187.15297,815.5399,-363.561
145.79282,663.0494,-268.82513
117.80962,600.6112,-119.9206
121.27982,477.73288,-56.667496
171.20473,423.29584,25.780918
198.15529,695.1167,94.97931
254.51582,818.13715,17.436674
317.52176,816.53705,-69.71517
282.26376,1055.4159,-88.85161
302.85367,1293.8763,-89.87453
358.81863,1319.1782,-153.35953
383.20013,1325.6514,-236.44858
266.5289,1540.0094,-246.192
196.78143,1294.2467,-165.89943
49.44193,1096.0663,-172.68416
6.8907175,848.1094,-167.72318
20.650616,760.96,-173.05325
148.6881,550.5069,-62.75991
203.0942,483.78442,4.1620874
269.12216,503.44928,6.5579886
275.2661,566.1153,0.13349429
275.00793,755.5421,65.108955
316.70883,968.4922,50.364468
393.37146,1114.2347,-38.695778
391.67627,1430.1621,-145.09908
448.1697,1295.1656,-77.49073
463.51923,1433.3212,-267.95953
303.64285,1742.0669,-470.7158
196.7381,1205.2887,-419.2625
151.76086,980.81067,-443.28992
188.44713,942.7842,-432.0121
225.41943,763.27966,-343.5196
153.50569,644.0116,-230.75874
161.44772,577.25854,-21.686844
179.19803,513.1724,-16.037691
201.7804,566.1619,2.5032327
259.3123,662.2624,-13.401057
318.7023,822.8072,-22.020102
346.88507,986.61884,-66.95989
357.68387,1108.4349,-136.86612
338.02872,1248.054,-142.4409
335.01102,1324.6884,-151.39728
301.9979,1333.8037,-232.54268
227.3688,1414.0458,-197.3354
133.62117,1217.2952,-189.38042
55.748497,992.334,-201.72522
23.561853,879.20795,-220.84795
47.611847,723.3443,-129.76842
147.72235,534.6721,-41.92662
209.98451,520.9132,-3.405916
264.27982,549.2016,-16.848242
261.25897,671.5763,-30.095446
275.945,844.121,-30.361658
305.3853,963.0773,-64.046165
301.09875,1164.412,-133.94415
315.13306,1324.2043,-157.37184
398.28564,1325.2998,-214.32555
431.9611,1466.3416,-331.62814
342.38095,1558.8248,-451.08392
254.72633,1311.8652,-471.7997
224.33818,1101.5217,-478.0235
215.6851,932.4115,-463.5878
170.17024,734.083,-422.1692
126.733475,562.72687,-243.76816
104.60347,457.861,-67.04012
125.75682,443.65005,-31.58926
188.09883,577.3666,13.51568
238.82755,643.10223,-21.285585
337.7665,786.1147,-116.18784
331.28833,1061.5687,-132.76794
342.96738,1151.99,-241.27367
268.20102,1257.6919,-223.91852
261.57944,1279.2408,-175.43694
188.0142,1317.2784,-310.89154
163.80743,1445.6326,-325.13263
12.910687,1372.6918,-391.13004
-92.39772,912.95026,-315.41495
-92.49587,814.114,-233.36548
11.713539,659.5706,-170.21361
145.6341,512.0127,-105.26813
238.86185,602.6338,-65.45351
258.2225,594.409,62.432495
170.64508,562.64813,46.605785
121.49951,809.104,58.97918
87.299515,917.7687,-100.070335
59.473022,1205.426,-191.3829
54.17637,1247.6843,-126.35059
-2.9797955,1312.7179,-33.623142
123.18545,1669.9445,-409.38245
-77.61844,1319.3394,-363.73666
-251.16823,1097.1566,130.45459
-291.47427,1121.3243,52.929596
-279.01968,949.045,-29.243336
-325.24527,788.92676,-39.94903
-417.53824,676.141,52.701763
-384.24567,447.37836,104.42465
-401.75995,336.6677,124.67396
-467.3801,378.05255,127.0268
-580.8482,451.88144,134.8662
-739.88763,438.8081,147.75844
-998.02704,396.90448,171.88162
-1269.714,318.7077,216.49725
-1488.2675,407.14493,304.58832
-1613.0171,477.30402,339.75583
-1608.304,581.943,418.86087
-1242.496,610.70795,525.4249
-1127.0197,382.06244,455.11307
-1004.83307,195.4426,313.3419
-831.4173,239.47574,293.96002
-555.1869,302.28732,267.64676
-388.09253,438.0673,276.82266
-323.0665,431.16998,199.64104
-322.70816,441.1226,209.81018
-405.61154,371.19672,268.53918
-533.32935,397.85324,251.01852
-795.32086,535.0448,366.80856
-1243.5264,585.52356,516.4877
-1332.983,486.8368,519.4614
-1435.7925,434.1905,470.71802
-1702.6901,626.1608,576.96576
-1621.6409,572.7022,552.27106
-1354.5315,386.41824,348.4204
-1320.0154,412.36624,299.87326
-1182.644,378.7355,243.88147
-942.86017,389.5299,180.0144
-670.22687,292.3104,122.27965
-506.30627,255.07094,64.22746
-420.86917,207.83978,42.15859
-399.11877,236.71306,54.987164
-356.7927,210.04803,64.17615
-322.29758,277.28674,67.07558
-372.89716,417.68964,81.636055
-456.4441,550.7439,111.55375
-630.439,625.29706,239.3678
-976.9613,435.31985,351.01904
-1371.8741,353.40878,516.64685
-1737.4287,531.06396,681.5651
-1892.8646,520.33405,782.4122
-1556.5208,349.26215,675.47015
-1090.9713,124.88984,364.27405
-793.988,322.2725,235.85013
-632.31714,378.0288,231.59947
-531.0298,502.4011,110.91063
-451.3228,635.87054,105.439
-459.15567,593.6867,104.27177
-530.806,532.4891,155.9521
-845.3327,559.6831,285.1712
-1141.034,625.54114,394.09387
-1207.0165,625.0614,442.00732
-1322.6777,585.4906,483.4084
-1501.0046,611.8293,578.92487
-1432.3319,501.99564,545.242
-1428.0499,492.5141,414.287
-1610.0802,355.8474,347.41882
-1461.0225,239.46124,245.2555
-1082.0145,67.003235,235.3092
-769.5802,89.077614,203.41785
-594.9819,328.8058,73.99744
-518.6247,297.89944,20.744232
-452.04443,242.2506,7.140676
-414.86514,202.71457,10.064501
-411.45084,225.93744,43.504684
-461.6532,281.84683,40.82088
-589.79114,406.20715,116.10782
-852.21265,523.87335,284.90085
-1187.5742,464.84375,393.91367
-1495.7117,436.206,572.0919
-1719.9733,450.02472,767.57367
-1695.3357,281.22958,677.0785
-1305.8152,91.77194,489.10217
-996.8597,120.1073,416.52435
-770.607,251.97842,292.64487
-647.84955,406.7286,210.53801
-507.75027,553.1961,143.61357
-451.45764,625.4102,135.65063
-465.17053,619.9908,199.91083
-594.98254,520.5342,270.91275
-820.35254,551.59937,338.5042
-1118.2374,584.4538,473.292
-1096.3722,509.6676,469.0227
-1196.1208,501.8455,449.5243
-1371.6346,582.17773,547.44037
-1410.1877,622.4885,512.93427
-1393.91,586.39014,418.3665
-1489.8372,532.92206,418.95493
-1426.5812,298.62015,274.4008
-1214.6743,143.09601,213.20341
-911.48846,53.231052,158.19876
-715.6316,162.44328,101.86135
-621.35504,238.97734,69.282936
-562.28735,248.29965,40.126587
-542.1201,262.16223,27.757456
-509.3461,260.69287,63.33595
-500.77393,293.8125,81.73211
-565.1142,378.2933,135.20488
-715.141,480.44653,350.04263
-990.72125,508.42593,475.13174
-1179.04,351.5419,481.24786
-1489.7201,361.81104,628.75287
-1780.7628,370.64212,662.429
-1505.501,205.744,489.3741
-1076.4958,149.72003,369.00742
-838.20764,273.65002,279.49802
-695.3249,430.61124,219.28697
-599.5354,533.9151,153.51012
-508.6178,591.6646,139.3741
-493.97537,594.5374,160.58043
-528.397,532.6276,222.03104
-806.99915,618.12103,344.80493
-1130.0231,687.8556,438.98105
-1172.6909,603.0403,437.93198
-1402.0245,516.0367,515.7113
-1581.8289,541.8573,658.05914
-1475.5006,479.91492,587.76013
-1424.105,497.84512,406.95132
-1584.0399,444.38525,373.08118
-1639.8422,294.81583,315.96152
-1161.5759,37.124573,212.48338
-737.15234,40.118374,130.21188
-592.26935,278.27493,82.146484
-505.12427,257.0068,23.14321
-454.01096,273.13727,-14.573821
-417.23776,250.83147,-17.136421
-384.40845,212.7457,-34.444447
-454.22565,290.91733,-6.476104
-591.1437,469.70844,48.36772
-762.9879,582.4825,268.1133
-1044.7952,516.7564,371.42545
-1341.0078,420.09476,556.89984
-1581.5729,441.0458,776.2109
-1716.3531,309.01572,746.3556
-1490.549,97.890884,543.94415
-1089.5034,63.24978,441.96136
-837.13934,250.45795,311.9006
-671.2893,512.3319,209.51233
-563.0614,588.3202,145.79295
-514.92377,576.75183,147.43059
-506.69464,527.7213,119.57977
-586.9847,516.80133,204.8173
-842.0507,596.107,308.46368
-1059.8986,707.82965,398.15002
-1123.2999,634.3265,434.1586
-1327.2043,555.0374,493.22357
-1495.1213,514.2147,550.45483
-1352.5089,493.065,484.13336
-1350.8997,553.82837,438.19904
-1472.9092,499.85107,369.88773
-1500.6702,383.31815,328.06192
-1240.9303,241.2135,241.67645
-848.93713,118.68437,143.57907
-688.7286,233.33601,81.95976
-602.6959,261.8059,34.504276
-528.128,281.05023,17.763235
-487.50052,343.74768,-20.876242
-506.4024,369.81204,-87.77602
-581.2002,410.3921,-42.791985
-628.7917,445.0203,10.073082
-764.8026,540.00995,196.97789
-1007.5179,574.0787,378.29086
-1123.5687,434.60016,569.0359
-1213.9974,327.81757,670.8112
-1466.0963,303.92023,665.73663
-1409.4081,295.30164,582.30493
-1060.6099,207.09421,512.34503
-794.9927,228.98698,372.15768
-660.76135,430.48746,288.71143
-600.716,460.86682,227.83804
-581.581,603.34546,247.4518
-610.61993,626.7893,290.40137
-671.7635,558.13745,306.02014
-880.77185,579.7456,420.85553
-1093.5933,579.5025,491.94193
-1131.8466,502.10965,428.73694
-1346.1195,493.5837,453.41895
-1347.6697,526.14856,527.17194
-1280.6091,500.12408,465.8839
-1262.464,522.46185,407.04477
-1377.6821,503.78186,374.634
-1403.7198,323.90503,318.13123
-1120.6699,227.18106,240.12106
-896.9437,174.96071,205.17928
-690.4501,153.34811,125.0625
-568.5078,214.0669,73.31419
-472.19974,219.10573,57.481075
-410.92322,213.75783,28.016304
-398.20624,233.72615,10.280224
-481.62518,304.95865,30.926176
-597.5918,385.0335,125.76554
-833.0237,443.19827,286.64505
-1256.0668,384.07022,377.27078
-1635.1025,398.0752,577.46704
-1844.5406,446.7233,814.6337
-1615.2474,307.235,713.8629
-1143.95,43.613827,517.3512
-871.5478,67.868164,330.04224
-637.01917,189.21065,210.94643
-569.5757,365.58194,182.81145
-476.43304,533.769,136.11742
-423.23724,624.5769,135.87135
-448.30322,613.49133,191.95004
-586.08093,525.1925,271.5278
-963.75977,586.48804,408.24094
-1212.5933,555.8943,469.7452
-1277.0563,506.52823,457.93988
-1515.414,532.2015,585.5727
-1500.8184,512.9329,609.57446
-1351.7184,485.2221,535.049
-1316.7449,496.30643,464.08798
-1440.4728,367.81,421.68863
-1323.2396,381.67044,230.67685
-978.336,-54.898537,217.0098
-704.3601,-13.958557,196.99374
-590.66504,336.8254,73.674446
-511.8611,243.01822,3.1587315
-464.77402,245.24016,-26.861172
-419.80396,209.05997,-20.669497
-484.32553,264.57773,10.8473425
-588.5569,328.93152,48.673527
-731.9627,383.85257,143.43767
-1023.9262,440.37512,293.70486
-1342.8552,429.45148,335.40485
-1602.3589,492.4027,501.09286
-1745.8273,547.1325,682.22565
-1473.5449,219.4908,583.7394
-1064.3141,72.22908,537.572
-779.1548,77.18858,433.57748
-608.65466,150.0306,313.32224
-453.25342,354.6584,241.7602
-413.04803,585.32874,246.44017
-387.5234,616.4247,307.45435
-520.5336,616.4756,369.71802
-740.3191,541.3079,467.5887
-1109.9525,491.88846,529.8736
-1317.6177,358.38098,563.11597
-1377.1995,264.50696,454.32333
-1589.2281,450.81894,570.9201
-1563.266,476.8967,562.48175
-1368.0444,432.67163,401.7832
-1375.6564,398.68518,325.89505
-1351.6302,336.13174,270.24792
-1144.9393,244.1964,265.35526
-817.09705,170.57115,165.84569
-587.833,201.75807,90.04397
-480.02872,228.49142,26.361418
-476.10147,286.2748,12.2892
-398.13013,237.53088,-19.90747
-401.0504,248.17833,-36.509224
-458.59433,288.4125,-11.50787
-581.104,420.9155,74.87421
-784.55365,513.6852,237.2312
-1219.0862,504.32916,349.07803
-1505.6295,410.51627,527.7573
-1673.4867,362.24356,725.6849
-1709.7899,291.5899,734.41705
-1314.3357,182.48637,615.97595
-946.1057,153.16154,418.89505
-690.9354,321.64636,294.8092
-572.3877,369.81073,244.48882
-520.32794,473.95544,232.56688
-501.19095,528.9556,238.17741
-550.79535,550.261,210.35236
-622.7037,535.59375,244.80801
-978.7101,636.6869,416.18433
-1213.1799,654.6732,514.34485
-1237.9556,470.60257,466.57596
-1539.8723,445.58917,604.4998
-1636.2074,417.90387,660.63666
-1478.4374,360.1052,456.45877
-1470.6805,379.08313,409.08142
-1534.918,314.42755,341.69907
-1403.4254,190.03578,270.21338
-952.8515,-56.85555,229.60677
-671.11194,243.78638,120.85132
-549.701,282.51666,48.428913
-480.62427,279.3596,2.3990264
-418.02155,235.07224,-19.651392
-368.61923,181.38464,-19.743874
-385.0891,208.26208,-21.312717
-477.23712,310.31857,-25.022213
-628.45483,402.635,76.31187
-962.94006,493.7131,307.3714
-1307.0161,511.67853,390.2858
-1550.5037,632.75586,477.24493
-1787.0936,665.92224,710.47736
-1682.4979,391.46167,792.2505
-1219.6217,92.78522,650.26013
-887.4526,179.60016,351.2155
-631.7866,236.57742,225.4569
-543.80145,402.54205,203.27783
-455.50125,498.9741,197.16556
-406.18314,605.8002,154.285
-404.5085,606.44806,179.72707
-550.6046,615.3363,277.86383
-869.88855,662.94604,361.95868
-1234.2404,745.02094,458.38315
-1407.4471,627.5046,565.0063
-1625.8094,518.2122,636.36414
-1791.3068,581.8274,700.67163
-1607.4362,477.51724,468.93582
-1504.1201,395.51486,365.43292
-1464.0991,341.5884,290.71805
-1163.16,282.98364,274.94788
-815.84875,239.86008,205.1314
-641.5234,277.26373,101.31766
-555.1938,232.90514,22.460493
-516.8008,204.79953,-9.004756
-470.1137,141.69786,-6.6644497
-416.02228,122.96285,-1.9661815
-411.99814,142.5795,-29.410482
-486.16714,292.55865,1.4614362
-633.8238,496.48618,123.60872
-942.6158,577.0729,364.22272
-1382.4629,566.1117,470.3897
-1733.1053,482.75723,749.8447
-1950.246,432.0471,910.9011
-1624.1743,103.79788,731.52844
-1259.2618,51.48955,495.76822
-901.3132,231.54358,296.59424
-695.50464,332.32532,248.01172
-585.3421,546.0903,202.88626
-471.31192,624.12427,126.395096
-396.48557,649.1457,136.07697
-416.98404,544.5164,174.68787
-618.5348,608.2384,271.30396
-1031.0527,745.3839,421.7814
-1179.9142,739.8075,452.48206
-1315.242,555.5574,539.99457
-1481.5077,454.1772,631.1057
-1563.8706,491.76562,678.4278
-1498.5243,603.2597,578.6057
-1558.3705,601.1736,456.73227
-1687.2772,424.4363,337.58093
-1388.1206,71.3334,291.83527
-971.86597,100.8277,188.98686
-753.1913,243.14514,58.38753
-626.6493,199.847,-15.727675
-560.3726,255.91132,-30.038792
-511.77386,185.0555,-34.006107
-426.59814,188.51938,-18.19361
-398.93762,187.38571,-12.875979
-461.53876,312.6203,28.140184
-531.3699,410.80463,165.54353
-811.6947,574.07263,369.54022
-1132.9797,478.4292,451.04184
-1441.0833,366.59613,553.7563
-1900.3512,455.5589,822.4492
-1875.0431,396.85205,744.28345
-1363.1525,230.17482,581.3445
-984.38525,164.58517,405.20035
