# PAMAP2 dataset (wrist-mounted sensor)

acc_x[mg],acc_y[mg],acc_z[mg]
-503.9513,506.5773,420.01535
-1523.0791,328.21497,337.9217
-1159.4631,482.74738,431.24258
-1192.8787,524.0213,450.8353
-1029.5326,253.20724,197.09221
-1188.345,216.33284,73.056206
-1023.7519,311.93417,-253.06618
-918.4971,781.3342,-100.40645
-665.5304,667.711,67.57146
-690.85815,474.80798,-5.9058557
-634.3969,471.19104,47.16137
-625.77747,261.63684,-5.6314926
-544.96387,263.11136,120.10634
-612.17694,211.16725,206.71193
-509.20203,422.7426,316.5209
-569.41046,427.56427,158.82896
-562.9391,403.3541,-132.08324
-663.53973,647.27686,-46.26948
-682.62335,590.8857,-36.445423
-1046.8435,687.7004,10.137833
-1784.6327,961.1159,-157.137
-2529.2554,1300.9568,-566.2241
-1780.6003,542.1405,-413.00986
-1162.5668,471.1549,-262.26794
-799.39154,727.06,-214.3052
-418.2757,696.9687,-182.68669
-282.3602,398.30753,-180.55591
-236.84781,216.77696,-153.12653
-293.98697,439.2216,-185.43588
-430.46182,740.3453,-332.20544
-604.4948,760.9798,-372.84747
-610.361,865.3517,-450.26224
-399.43738,659.4793,-365.913
-43.823303,433.3791,-425.30008
150.94202,691.68097,-361.4316
302.7103,861.3105,-294.9801
442.3059,676.8162,-271.31735
595.1501,915.8377,-426.1376
457.50656,1655.1333,-530.21136
281.12546,1903.5177,-525.12524
155.62595,1312.1058,-201.61296
89.01203,930.72144,100.54502
118.16751,643.666,111.57902
172.79807,575.7166,38.756916
194.07187,643.1648,54.2118
206.5504,984.44025,-133.7656
148.55121,910.91187,-118.430664
48.187435,717.64685,6.6856627
-25.99418,504.68344,91.31426
-57.533752,374.53436,163.38908
-92.69065,612.19586,142.52908
-60.995354,957.9751,43.570827
-142.60802,1089.942,-288.16678
-342.83664,1503.6132,-337.2253
-330.7972,1785.2853,-366.67792
-357.44998,1942.3417,-367.08136
-33.41928,1590.9396,-126.302155
192.1352,1352.3179,140.57988
119.12772,1143.8359,266.04858
78.695984,811.647,196.23508
34.583057,547.06415,172.56097
-74.24929,550.6239,254.489
-173.30681,516.6172,333.6561
-291.54242,707.5811,371.7662
-357.80252,729.774,355.28534
-279.0386,668.87573,277.9807
-166.11105,536.19635,214.87915
-84.36147,781.53375,162.81917
11.777239,821.11365,137.02031
39.692974,1123.0502,265.99988
208.6223,834.7033,460.30115
158.86563,1412.7709,855.23157
174.39304,1754.416,1414.3354
110.811424,-604.66034,1295.6775
-58.481384,784.4974,1194.5177
-314.98734,422.88403,956.3908
-379.7764,259.8368,553.7401
-324.1719,491.9995,409.4802
-208.50002,593.577,338.5066
-87.35321,482.76218,317.42728
-76.93605,678.98865,365.72403
-67.483116,549.9954,391.18613
-126.13116,557.7646,424.8862
-207.94357,569.5139,669.36304
-391.81482,627.9441,906.6415
-471.3614,617.9716,1091.6215
-1001.24115,1197.4954,1341.7502
-1358.384,1178.304,1259.7942
-753.6666,513.6621,768.5414
-451.58478,505.9071,538.55585
-224.98538,516.1836,340.21857
-166.1868,698.74335,227.94444
-102.34717,572.52637,166.91556
-73.63624,437.00464,100.704544
-77.56831,438.1496,224.80327
-160.11732,318.0402,386.20676
-173.03203,512.1076,485.68542
-216.12794,890.82477,646.85504
-137.03412,1778.7703,855.3346
-213.31378,1031.9413,1455.9377
-258.5096,459.03552,1488.3135
-67.52662,493.899,891.67633
-177.48866,383.42987,629.69336
-112.66006,421.68872,441.24017
-152.2947,471.1704,426.36722
-162.8118,700.10187,415.84518
-119.02926,533.83997,392.9916
-217.0172,425.00266,519.02966
-455.01505,412.06476,879.3696
-508.3996,417.23865,1121.4672
-645.4844,533.6472,1274.5995
-686.12463,372.71564,1292.1156
-764.4647,243.4161,1135.7411
-592.81177,404.0501,833.1816
-513.0241,343.05847,865.7815
-494.06546,259.19382,766.99225
-571.83264,329.98825,582.4688
-679.92957,273.80292,595.40137
-752.7991,222.88539,729.8805
-546.32623,302.95477,728.4266
-323.7649,421.3731,698.89685
-131.54758,469.64575,551.289
45.202663,412.2513,750.70135
41.80078,250.25362,1359.8607
174.9028,247.50726,1320.1895
-114.06816,244.38747,1112.7236
42.550938,392.23065,897.6735
60.049553,407.114,803.81726
-15.580657,375.74445,806.44635
-20.44261,395.6129,823.67975
101.768776,274.83252,849.8056
164.39142,240.65826,938.54944
167.5125,215.96068,901.0286
264.8218,124.58914,666.97437
430.89215,-3.5936642,1106.72
405.33197,3.6670363,1231.006
511.92282,-238.93912,1199.3733
529.0744,-292.70538,1172.45
384.69824,-281.65652,884.64667
230.40388,-186.81711,878.58026
109.49676,-217.66199,829.61725
-4.898652,-145.9261,890.0055
7.3070464,-117.37989,860.43555
-13.432102,-125.95484,912.5334
2.4408894,-120.93405,952.7914
26.95066,-106.850716,966.1115
82.75534,-112.738045,995.4297
122.169754,-128.08504,1064.7328
83.03309,-215.72694,1097.2604
91.267624,-41.825314,1148.5078
87.079285,-247.14236,1245.5741
328.34903,-697.43646,1046.6635
481.5926,-683.9448,869.0402
462.5896,-569.39545,908.7537
359.3786,-605.478,707.20215
560.6127,-798.3633,534.66907
547.48157,-169.60242,606.06055
400.27838,-314.71613,505.25787
359.38528,-397.1978,444.29297
279.57367,-461.30133,326.7032
258.8229,-492.6151,183.19875
49.95672,-460.44696,141.55475
-309.29266,-52.970085,192.79709
-574.2324,179.8835,-11.640397
-1131.1255,521.7554,417.26672
-1089.2731,1143.8098,419.3121
-1009.2609,1432.7421,257.56653
-777.1676,1151.3452,631.5585
-1032.4093,826.3199,520.83044
-1273.6924,883.7576,481.58344
-1277.9208,757.64166,468.95645
-1185.2993,630.6696,443.13348
-957.3139,440.53513,286.4394
-885.319,478.66006,337.28998
-799.83057,477.7205,443.99664
-784.46063,343.75992,554.6988
-621.83105,78.52785,430.43036
-633.9987,58.996418,315.7826
-686.636,223.58058,84.127075
-820.191,405.79996,-185.42732
-912.63257,575.07684,-289.4547
-604.974,631.2983,-169.01855
-624.0865,513.49054,-85.64597
-929.91046,601.16986,36.33994
-1440.5065,448.7963,-62.743717
-2153.5554,338.26093,51.514713
-1400.3656,268.0534,353.63852
-781.3036,182.9964,427.6682
-807.17505,419.0889,207.33379
-708.7331,547.52057,182.60797
-606.3456,314.85892,42.94242
-538.30475,292.92572,118.7438
-487.2286,335.11743,-22.805403
-445.8113,483.11896,-3.6366217
-321.62164,560.6014,-285.18488
-491.48453,839.4956,-151.24582
-1474.1774,860.80585,-862.93964
-2767.2654,1296.1964,-283.83276
-2316.8757,-202.8424,493.17953
-1297.746,-863.69824,-118.45017
-2234.2703,432.7564,-1263.6174
-1555.123,1431.677,-242.0701
-495.472,622.95325,-174.05309
-270.13828,302.6543,-341.2194
-435.4196,165.18211,-9.71942
-501.78125,280.7785,-271.14636
-575.6246,255.58636,-284.24545
-684.2015,150.72696,-285.4376
-661.8109,43.30021,-173.90617
-728.2683,246.93617,-119.03122
-969.15454,594.024,-36.128323
-1417.0659,749.5159,-83.092094
-1972.2819,868.7172,122.69636
-1682.9417,134.04852,353.0117
-1059.7286,-52.263107,298.99133
-895.8388,357.9823,130.9264
-778.583,193.84212,198.38016
-550.7449,34.220997,84.6752
-449.73013,22.57127,106.81881
-381.91776,257.45068,59.874737
-359.5097,375.4263,42.325115
-559.38586,490.69452,54.951553
-1175.8278,379.8324,-71.43143
-2567.555,466.64468,-160.88116
-2134.7388,450.78665,36.83223
-1362.4281,80.29815,278.66092
-1034.5276,214.53906,313.47272
-627.78015,531.1204,172.59387
-375.1562,22.868334,147.25395
-258.54416,-64.66734,97.089966
-301.19333,66.15775,42.870262
-331.53577,81.76855,-89.33382
-516.8005,259.46915,-57.304398
-688.0289,288.48514,-21.044468
-1028.1184,382.54337,103.885864
-1636.8195,464.34015,164.51538
-1977.1927,536.0349,401.09235
-1531.6718,603.10516,855.8758
-1125.1926,379.7758,404.31155
-860.9252,236.0055,116.506165
-695.1695,33.0852,231.50252
-564.69025,10.886121,211.46855
-428.32285,130.07507,178.56604
-419.04294,319.7427,46.19719
-430.32742,459.02292,-99.7524
-518.90405,586.4118,-166.37727
-968.2486,737.0981,-214.85149
-1960.4088,800.7426,-403.23135
-2441.742,582.0872,-215.61844
-1816.1556,318.69855,59.91387
-1589.4249,-88.63148,32.455627
-942.8219,-66.93018,-5.0796895
-651.79346,134.48729,15.300432
-314.7887,140.51859,19.215372
-206.04927,168.90482,-8.795035
-136.71538,152.51027,-67.65332
-234.30103,200.98288,-12.144571
-360.56967,287.7699,-16.164865
-857.9555,811.9352,-56.54938
-1466.547,1428.8146,-227.36
-1729.4902,1611.9757,384.14297
-1341.4333,1209.782,544.89343
-853.6573,1046.5531,418.3929
-545.2781,412.96707,353.01874
-316.14804,-77.04403,270.28995
-180.17812,40.076702,136.95494
-171.37315,320.38364,21.070862
-121.21124,718.7437,-70.8781
-192.76024,569.159,46.26507
-242.21053,298.10898,116.99944
-1162.7698,671.94855,457.84723
-2625.072,1120.7828,89.16966
-2082.3582,655.57446,5.309344
-1207.59,153.81459,232.18745
-771.5811,334.29156,146.70808
-587.7616,398.91147,213.9597
-415.85056,481.87433,154.9036
-458.02762,266.86957,168.62155
-450.48413,160.73843,82.06126
-547.86804,102.31523,155.0108
-515.46857,-29.332075,94.62416
-771.18744,81.123665,129.90889
-1567.1375,301.08252,-88.21818
-2078.711,775.08435,-31.774746
-2172.3657,1061.567,388.24658
-1425.7787,625.98346,311.54
-1025.153,519.65405,290.82886
-789.91473,369.468,325.8963
-613.8293,192.37587,342.75833
-590.7763,120.65533,239.05283
-563.12006,35.657444,76.411606
-598.33405,187.95314,-49.348186
-670.2529,315.68762,-94.72673
-886.28705,563.7268,35.265766
-1025.8268,537.33325,98.79117
-1324.9419,537.77985,205.1953
-1394.8052,590.1827,107.47491
-827.6242,498.5483,31.987398
-904.5961,303.35336,-50.698997
-1082.5797,422.51703,-109.16509
-1159.3721,425.54068,-118.89627
-1043.6187,434.80756,-34.033394
-891.17816,361.77762,-9.093793
-813.6988,337.59784,43.334286
-737.1921,284.07425,33.479733
-713.13947,252.76459,-9.624581
-778.41235,162.19728,-60.36041
-983.8569,268.7128,-103.11572
-1071.7772,584.9413,-168.59648
-883.95233,649.00354,-188.51904
-781.8938,675.3954,-75.87496
-746.3417,593.68463,-47.69323
-788.2533,481.37683,-47.43556
-743.9116,509.19864,-107.3292
-846.3313,544.01447,-126.80535
-1260.2412,740.141,25.425482
-1204.6353,650.3347,-22.631592
-883.3867,444.8723,27.440807
-999.31903,329.90012,151.49825
-1000.00116,193.57243,30.965338
-1182.8419,278.09818,-35.72736
-1070.5892,332.11612,14.734243
-878.3491,257.08847,27.322165
-729.98724,271.7207,25.082159
-623.7181,328.8828,-1.839013
-534.3215,393.5079,23.27126
-582.0757,372.63904,85.89029
-579.1328,339.38754,144.42603
-683.57245,382.9676,208.20891
-742.0962,536.7017,316.15372
-730.6881,592.1039,378.68185
-616.155,399.19986,397.08102
-568.32477,384.73312,311.36462
-481.16986,677.92365,239.84128
-502.47128,715.5822,135.3119
-604.98517,744.1623,73.496254
-1630.389,895.1301,-29.812565
-2844.0393,643.8254,-332.27518
-1962.162,344.90012,-250.61862
-1596.075,288.79193,83.38213
-1203.9235,335.4244,33.851063
-851.71625,437.55627,-37.892017
-657.6186,355.7488,-77.44479
-558.9664,194.80518,-51.303123
-463.79407,14.616329,-51.282467
-484.34598,-54.0892,-12.389618
-620.2406,-20.613247,3.693168
-607.6399,108.73765,12.80829
-622.6342,195.2817,-9.8562
-610.88947,289.1936,-2.4488187
-671.8578,351.70172,9.867856
-766.85187,436.06683,90.29462
-932.6317,388.46713,104.7861
-1217.3269,490.71146,219.22241
-1895.7324,363.6032,37.521015
-2333.057,322.96594,212.82721
-1615.5103,253.17667,677.5653
-1170.1914,299.5099,501.8632
-944.9286,379.99335,206.01054
-759.5253,342.09818,123.78818
-620.5276,235.5971,154.31224
-530.5945,228.27693,183.84587
-550.1258,260.54993,160.49077
-577.53107,394.56903,50.331127
-653.92017,514.55554,9.393953
-734.9383,649.4678,50.441845
-687.76556,545.92303,9.79802
-616.245,269.74957,17.114729
-719.5006,231.06927,11.595676
-1209.1832,291.61493,108.65547
-2089.1306,273.95074,-152.11649
-2264.8445,273.858,-336.03317
-1420.6384,301.22623,109.034805
-1108.4264,266.71872,205.59604
-787.7571,482.7209,101.58228
-504.97717,511.58505,-14.134482
-403.8761,249.24385,-94.82785
-305.4702,44.756107,-153.7585
-501.52658,590.8093,-55.52508
-512.52734,792.6642,-424.20477
-400.6548,645.63654,-330.963
-659.5016,575.7898,-200.01334
-802.8102,422.569,-236.90794
-1229.8687,610.22144,-254.91025
-1556.8894,1195.0057,-480.72028
-1888.1775,1420.5071,111.44167
-1248.7645,1578.3788,39.391624
-1277.4834,2529.2837,-67.92661
-1127.0261,1890.1768,103.187195
-981.56696,1205.2288,52.07377
-802.92566,552.8956,-91.95201
-619.5889,371.84683,-154.3628
-391.58972,175.07698,-190.90817
-260.09537,173.76044,-243.35748
-45.12049,-0.5932953,-207.34044
204.13593,186.14677,-106.52124
567.4225,481.69772,26.251896
593.67004,542.3564,188.4019
588.38306,471.1096,141.62788
609.8489,271.31635,-134.01984
472.6856,378.43896,-82.86148
298.97488,555.80023,-94.66186
210.19589,735.50696,-134.75679
29.014402,1109.0588,92.29732
149.08762,1009.386,247.21713
105.6398,1035.7295,388.52103
163.41727,495.0055,426.4237
-83.98316,869.9873,477.88394
-324.96506,1623.4486,632.64056
-793.6228,2063.6792,942.2789
-1050.0514,1943.7981,995.62396
-450.18274,1209.9447,615.4598
-301.66864,797.7367,453.80978
-189.89735,558.34,354.02933
-249.56462,450.04053,264.77924
-185.69235,218.63522,216.71555
-292.12656,95.56365,191.49352
-290.76465,136.99956,225.17947
-592.4157,491.7288,193.92345
-772.6351,771.9249,149.80305
-2043.1935,1258.7262,91.623764
-2181.353,1242.1764,111.98611
-1246.0768,756.73846,148.23431
-850.02905,537.2074,3.6663074
-353.37686,604.6873,99.05987
-239.62782,662.0673,171.79387
-201.60204,488.0104,144.25212
-142.72765,383.40564,76.45023
-187.17886,379.31802,40.70677
-338.9673,557.05444,-1.8843992
-612.0833,820.79553,-19.733095
-1075.2247,1215.4962,-127.34929
-1547.9142,1219.1608,295.10266
-1768.9215,1090.9517,735.9678
-1046.56,574.82184,565.4558
-792.77563,209.11098,426.04013
-790.19214,333.00604,406.55533
-652.24646,354.7435,322.2122
-597.1153,298.94308,190.5702
-452.4496,-25.522163,136.55763
-681.8953,284.48932,383.42123
-865.3316,205.76463,373.47693
-876.9807,74.113686,334.93875
-759.25037,-121.83226,273.2151
-633.1215,-193.4897,237.01721
-457.42325,-183.45905,127.09449
-1688.1466,380.1652,209.96675
-2561.6025,437.0699,-298.499
-2071.323,458.27914,-344.1149
-1207.2356,565.614,13.688743
-800.58887,581.3601,-88.91088
-821.4207,800.0024,-11.183841
-533.54456,729.9652,-29.294565
-508.91055,432.05127,78.52174
-620.74915,78.16654,179.56842
-897.1033,-88.38059,137.56377
-1055.9016,-3.5263987,15.378726
-1286.9966,187.74219,25.082985
-1175.2065,404.1285,80.36166
-1106.0472,404.64127,58.429585
-1055.2162,333.93045,-61.360737
-1107.2075,444.27625,-21.94245
-1020.79956,600.993,189.56322
-803.3868,565.5907,321.73145
-713.99426,473.5573,303.2513
-926.5853,451.9417,204.9475
-1057.0623,255.78445,135.231
-1034.1316,58.473236,170.26373
-920.846,27.698896,257.425
-855.85846,100.11572,334.54935
-709.8577,221.40056,364.01114
-579.79724,400.76648,555.86536
-507.5058,380.74548,569.4978
-521.98883,136.73642,312.78094
-662.33374,422.6574,-10.193468
-779.6965,867.8082,-233.17786
-948.7635,1073.3778,-339.74606
-830.7694,975.7135,-327.11752
-720.8939,698.04456,-243.21088
-919.4814,771.00555,-156.98738
-968.25354,744.3908,-202.88853
-858.9979,645.38245,-184.56058
-804.846,566.0508,-65.424904
-770.9064,547.1826,29.027922
-733.23303,449.17706,8.418121
-738.3944,465.8853,46.018417
-813.92554,433.169,88.251785
-988.7511,395.37668,147.68526
-1094.8926,279.51846,162.23819
-1221.6093,263.37347,174.67767
-1172.2994,226.07756,170.40614
-1056.8335,330.8266,259.41406
-858.39453,325.2028,289.6047
-698.84015,259.18542,252.93799
-808.0808,180.7552,211.71991
-839.49243,167.50012,186.90807
-959.63855,230.91872,220.17201
-896.5979,290.02557,236.0023
-819.7893,288.12683,166.48656
-765.4848,294.3479,159.5979
-804.7763,244.50917,145.57811
-796.6117,245.20685,170.02426
-830.90515,287.75443,158.94951
-806.683,371.38586,209.26215
-845.84344,401.34045,301.23874
-793.07117,453.54413,420.6285
-720.15326,347.3841,353.02597
-662.8156,415.39297,330.49167
-624.7722,397.35486,227.8967
-502.53717,432.3837,112.9538
-495.51025,459.20877,-2.7528636
-498.9806,417.48712,-83.397835
-1363.6597,594.1055,-35.948647
-2216.1326,812.75586,-150.02925
-2314.418,673.67596,-18.866764
-1439.7484,497.68198,34.00932
-1114.7494,35.12099,-31.745913
-905.6861,83.30804,-15.983904
-799.20215,282.9492,-50.259743
-533.4996,405.7378,78.44774
-438.21957,255.9656,58.87927
-210.2477,157.02206,104.49309
-319.48865,51.002922,81.17492
-247.27951,176.63222,175.00238
-472.19467,204.77098,95.000145
-490.58246,249.67625,22.68477
-2302.4397,193.99066,-497.27448
-3028.9973,1711.6743,360.48947
-1110.6619,1346.8956,800.96484
-1115.4639,772.62463,159.40408
-657.65784,659.75964,153.78247
-521.867,332.66782,27.224846
-316.15607,9.13006,64.53803
-434.64865,-48.414906,8.423369
-357.40405,241.06055,29.363562
-455.4828,417.97284,-3.1018639
-501.2626,584.2052,111.35744
-598.6767,489.5945,101.59513
-596.08954,406.70914,43.554714
-758.7152,267.50363,-30.331968
-1705.2617,304.77725,144.04851
-2527.092,353.75854,-3.870453
-2035.9692,252.53398,-4.2040772
-1475.8722,89.32827,138.7709
-1011.4796,323.9046,144.6054
-673.7194,579.12024,196.14406
-389.87344,537.85095,163.83827
-345.885,309.28122,94.75014
-373.33942,147.82758,102.03198
-550.10986,68.77696,146.95973
-622.9285,137.22287,118.747086
-814.60614,211.31477,59.040905
-762.47833,329.73987,16.098383
-713.2549,443.89337,6.813087
-567.33014,580.2251,97.973854
-900.7215,555.2309,40.94316
-1260.6687,576.3744,20.870249
-1707.6434,921.77594,209.7613
-1541.1698,934.00684,362.166
-1040.6906,459.10294,284.24765
-966.8163,291.96597,183.34766
-765.5426,352.06638,68.240974
-532.34705,284.74655,26.707657
-449.88745,265.28064,95.07763
-442.28333,325.63107,174.57346
-432.40082,318.0556,235.42072
-417.51678,339.33594,221.74652
-716.2738,361.66412,204.80695
-1740.3038,598.2483,105.529335
-2181.4785,667.13104,-173.16483
-1357.0283,303.22556,77.14603
-939.4485,106.37414,107.854034
-896.46204,329.97955,48.39307
-668.0802,573.1582,-7.7715974
-475.84775,542.9202,22.483301
-415.5057,460.13303,83.53377
-493.07205,346.43326,17.58601
-366.1935,290.1483,-47.59588
-646.8079,355.6686,-28.230032
-1180.1045,520.7121,1.8416852
-1794.836,505.25256,-63.916683
-1871.0554,701.9275,313.43872
-1177.5015,801.0682,681.5832
-1001.6309,509.0012,473.0554
-732.855,337.79068,290.0491
-542.6434,243.073,185.01518
-446.385,153.88966,98.674644
-437.1199,186.56114,34.946316
-424.48734,411.21808,73.43808
-428.85825,585.73315,41.38019
-454.8791,483.3096,-3.1657326
-671.2805,468.69104,23.317316
-1554.8425,621.1526,111.44601
-2408.7568,551.5989,-86.597496
-2156.6528,432.73486,-32.37603
-1486.7355,290.45984,72.711754
-963.6314,316.38733,58.21681
-652.8962,537.2923,242.18602
-426.54385,455.51434,180.80092
-367.39944,226.09251,86.174736
-399.80334,188.70268,98.61106
-574.97205,306.25922,53.351955
-651.5816,391.91962,-27.44752
-717.46954,465.08997,-77.295006
-603.19434,458.46432,-80.52946
-565.0712,455.25732,-13.612566
-458.70782,437.21838,23.62161
-773.8513,561.59106,-43.114044
-1126.6453,729.27673,-98.950935
-1559.4213,878.71686,35.63763
-1684.4343,1221.6664,377.83707
-1251.6359,953.6793,423.33466
-776.96985,443.11252,358.41147
-560.08875,160.55688,327.39777
-498.0548,17.492403,187.38245
-526.00104,185.85112,35.808617
-535.8937,364.48367,166.4763
-696.8852,467.1102,296.98538
-816.14575,333.91943,314.903
-690.9035,165.64616,253.81606
-775.2073,10.139483,276.9199
-1363.0435,168.0293,215.6758
-2304.5583,316.48526,127.969574
-2235.7695,398.5543,17.266434
-1355.2698,370.94125,201.28291
-986.61255,317.12134,238.7076
-735.497,377.0229,181.7576
-501.21442,341.93353,108.78838
-512.0962,167.81982,48.78787
-610.56244,107.81772,-2.01787
-918.3359,129.51959,-9.668898
-1147.9962,263.88007,-342.05664
-1037.0939,408.18918,-683.115
-1048.2144,792.7616,-673.74664
-1011.3486,884.64435,-501.5465
-737.5793,846.8326,-883.3005
-658.03143,772.7693,-865.76746
-361.7892,514.3089,-650.4159
-125.37486,361.4288,-559.4051
-379.19366,501.3613,-278.27002
-584.21405,311.387,-673.98444
-658.2586,641.9533,-750.6167
-538.7404,761.7963,-624.077
-327.4216,819.30853,-329.83487
-272.2076,668.7982,-254.91359
-397.11707,503.23743,-390.96024
-558.08673,468.33344,-595.74664
-616.35986,656.4036,-653.1439
-495.0885,554.237,-671.9934
-406.13113,672.67303,-598.7426
-319.153,644.10535,-550.182
-370.84317,665.6013,-524.82544
-509.04077,714.4822,-533.42126
-741.98834,842.36224,-405.2243
-885.2962,613.8025,-122.02698
-1140.1299,591.0264,276.23584
-1368.0723,-266.84528,447.01453
-1222.5831,36.869938,176.74315
-1126.3483,229.19312,233.89046
-953.1141,119.27709,177.1081
-897.2876,281.61078,116.170044
-833.5645,354.73364,98.79331
-763.90454,465.3537,77.05593
-682.47943,359.12415,103.62089
-659.3628,334.08078,101.71867
-770.27124,291.59442,118.394066
-1022.45764,329.72748,91.64524
-1379.4431,295.02023,65.09696
-1371.1743,276.70187,64.41118
-937.1413,237.31662,146.26135
-694.9171,309.106,163.81061
-805.0567,471.82724,164.8372
-1055.1177,534.35895,96.19693
-1034.1058,384.4851,103.58242
-899.71643,228.4561,150.84976
-755.81757,139.59067,167.85754
-684.4625,230.83656,191.54765
-615.9747,373.55966,248.85915
-645.447,358.6921,286.091
-587.8483,372.6802,329.62933
-594.9987,435.85236,322.08444
-546.2185,435.7774,266.65018
-599.64685,482.56992,155.29117
-523.80853,436.76016,127.04632
-631.8212,333.99237,-48.553314
-939.7709,315.67365,-101.095375
-2287.1855,788.6687,-445.08295
-2357.7336,1031.0841,-630.8027
-1194.0916,386.18674,-180.1654
-1116.3887,290.03775,127.279396
-806.7226,375.79788,151.20656
-638.5052,486.22778,-33.613083
-325.59406,458.35364,-17.37617
-271.5706,347.23743,0.74750286
-230.8195,133.28448,0.72369516
-425.27026,66.80818,101.04226
-557.23486,38.841347,129.24911
-730.5518,124.08663,105.17548
-1117.6777,167.70787,35.969902
-1712.5951,228.48984,-50.337772
-1816.8762,281.0366,-1.2408612
-1538.8129,697.47156,387.2647
-1212.2882,853.0589,357.719
-1019.9568,879.4578,46.30214
-674.1988,581.60156,-70.19633
-673.31665,211.27655,-25.186453
-682.75934,152.82938,139.87518
-676.1455,-7.0098076,139.24985
-482.59558,158.17345,48.976105
-528.75574,527.71497,70.41143
-494.76743,663.8611,48.169292
-844.59326,687.8655,133.98558
-1687.0076,418.48074,-99.30105
-2464.731,502.62485,-231.89688
-1416.3187,352.24765,30.58163
-1046.6072,309.75363,103.26314
-922.8224,348.9392,87.48098
-675.27423,350.2892,61.51233
-447.02884,266.2371,97.15236
-325.20074,189.46118,47.36478
-409.50952,132.18196,70.94833
-557.10455,132.42102,85.4349
-642.07837,93.83715,61.870163
-990.7594,166.50813,-73.597305
-1625.145,323.00284,-104.12304
-1950.1367,935.11554,322.69095
-1465.3549,983.8951,557.8294
-1270.5938,891.9684,252.83781
-907.2356,11.075915,252.83287
-641.2723,-304.54153,385.96738
-598.527,46.391384,323.9349
-595.1523,160.48888,277.00958
-526.327,406.5298,223.22133
-533.08594,547.84436,234.72789
-502.05283,543.2623,223.90532
-538.0853,414.4708,169.78795
-834.5548,388.27823,202.32185
-1826.6693,256.39072,64.954926
-2197.328,143.04176,-97.728935
-1497.9048,164.1104,75.05204
-1151.2964,219.67795,128.51595
-944.2973,492.9146,122.87113
-739.09827,506.1824,87.57945
-549.33124,359.53137,94.71852
-484.1123,203.1913,162.03015
-516.65027,48.195988,164.09712
-504.71082,-89.087814,91.124245
-673.6159,-17.315502,42.453255
-1102.3245,177.83536,105.50584
-1668.2218,603.57306,337.30035
-1576.2665,776.80457,618.0675
-1349.1089,615.277,521.8556
-1115.5778,233.15694,159.56613
-926.05145,-11.826408,174.19412
-742.08954,53.86511,246.63684
-627.9125,96.99014,279.27588
-530.21466,239.63927,217.49553
-564.2881,388.2038,205.69658
-492.0019,404.8384,137.08824
-529.01825,360.48428,120.641205
-660.415,326.77884,143.65549
-1550.6945,394.43445,203.13881
-2405.4832,302.6847,11.628599
-1853.948,293.49786,82.40277
-1083.8527,187.27754,221.91132
-876.8758,274.74686,141.1329
-745.47314,430.7896,107.67095
-628.8431,372.83786,84.86204
-516.88983,195.80768,101.12688
-420.24408,147.387,116.18946
-488.0763,173.05972,92.46815
-557.05505,194.04471,91.14569
-583.47534,192.4792,80.16275
-629.58636,204.94632,29.092354
-1168.91,246.45833,-31.998089
-1547.1361,590.64087,147.70042
-1752.3094,907.88586,266.3417
-1584.095,933.3902,310.25342
-966.9584,686.1946,385.3665
-901.6392,484.42325,451.5376
-628.89386,136.2905,376.66342
-538.28125,221.43863,272.973
-428.35825,170.58957,104.1521
-514.0541,266.2251,79.6976
-620.991,418.27808,75.16008
-695.10016,447.40393,120.01994
-545.25024,369.81262,122.23913
-1472.8663,503.79114,205.27483
-2246.5151,714.35394,-1.1047583
-2012.0076,725.61206,50.4643
-1615.7461,465.82614,321.78366
-1266.9484,239.80511,205.50392
-874.8065,229.07127,145.44438
-420.6633,303.01895,157.21506
-344.3085,198.58748,163.18396
-260.89655,118.20507,112.36299
-335.06995,200.19652,87.09113
-799.3487,392.22076,36.014996
-1084.9814,600.1799,20.14698
-1020.3687,532.6138,73.501465
-1029.1707,427.81244,225.04651
-1241.9979,490.72278,271.7378
-1375.6357,470.90042,168.54643
-991.8213,359.87378,54.199642
-929.6792,150.42044,43.811848
-1035.8568,140.61482,-34.718365
-1233.5491,320.05814,-164.0024
-1177.2817,514.98425,-192.50647
-872.1366,458.84024,-156.35019
-704.25287,346.21848,-182.89272
-618.30304,411.3843,-255.35706
-568.8452,534.4952,-293.69095
-503.51584,615.638,-414.1751
-459.84363,829.63007,-279.89612
-741.2801,1263.7413,-144.87494
-746.94116,1695.7421,-490.45193
-459.55173,1807.3804,-531.7322
-780.96985,1569.4152,-674.6176
-1053.3254,1301.2833,-782.2543
-1046.1382,1218.7892,-821.47003
-871.2137,1050.5046,-759.3016
-601.5637,590.2033,-395.85425
-313.37152,298.7511,-146.26262
-150.53401,228.76437,-362.9096
-59.48506,672.68353,-507.4825
70.22893,823.6721,-312.47488
161.47131,317.77982,-233.04314
299.71805,150.39435,-180.67178
376.09128,328.73065,-381.54828
403.36472,389.99384,-501.66632
304.98804,398.7505,-244.86086
-130.17961,796.83594,281.35455
-203.89,1044.9705,527.4632
-343.36084,1294.5568,426.10715
-401.14102,1670.5653,430.69498
-366.96637,1247.432,535.004
-297.64612,1007.2625,441.9459
-181.39558,773.4942,408.35406
-168.76282,791.32227,416.1988
-95.47647,671.58386,307.73596
-15.384141,703.74207,243.11981
75.644066,793.84875,331.90356
214.17767,970.96375,373.64685
123.41978,1120.2634,441.21527
-17.494547,1049.2361,337.7788
-77.99337,896.95245,256.8421
-166.74,605.79004,381.04538
-102.006516,419.4996,352.44266
-264.4627,757.8412,628.6745
-910.0586,1545.8451,840.6361
-1283.8447,1653.5854,777.8504
-614.58,1020.7685,441.90958
-98.7271,554.551,322.9463
76.97901,287.13638,298.1309
208.97498,148.91216,235.52753
251.70403,51.79711,154.82889
-14.262203,266.26385,188.68716
-286.24884,722.45416,332.37845
-425.2189,950.0471,417.8805
-765.5255,1052.567,597.84375
-1264.4685,510.15335,428.1234
-1177.648,630.60846,412.787
-1092.7675,414.70416,493.2795
-1118.3702,859.40283,585.0377
-956.3855,1345.6666,408.1307
-349.9857,875.4367,49.14937
-200.58736,608.6413,38.954185
-150.5325,284.67242,-158.00504
-381.33182,689.1464,9.873769
-813.53546,610.20526,349.9022
-1897.3049,1143.5243,-224.74104
-2304.3828,1027.2748,-98.49807
-1332.748,632.8676,294.39557
-1292.6158,412.01807,113.89893
-647.35596,472.27872,132.93289
-527.1644,452.67883,106.90454
-126.93216,267.15298,143.56123
-222.2994,208.73108,99.56331
-143.28793,189.99246,92.36561
-450.53793,203.04355,37.448147
-562.92523,228.16495,78.88777
-1052.0521,193.50423,19.604458
-1383.8268,177.81787,-107.05572
-1691.876,377.15262,-84.28318
-1735.8865,809.42975,192.36021
-1456.8317,993.1935,262.64685
-1182.8612,900.2913,118.19329
-950.0471,531.24084,84.214005
-779.908,-9.390391,247.4761
-681.0924,71.54189,308.54904
-524.8408,215.94469,237.1306
-417.88156,396.52786,204.44353
-375.821,493.3806,179.95349
-447.27283,493.78842,174.57576
-537.74115,423.38727,192.51494
-1107.0474,367.16602,89.60576
-2301.5042,164.65747,-203.28345
-2048.2537,126.32423,-193.1931
-1314.2107,26.193815,73.02775
-1069.0814,284.9514,199.33725
-794.69617,514.4613,182.66283
-573.36505,529.3839,160.65997
-349.32028,252.41179,158.81514
-461.80014,53.588608,222.09473
-484.2582,-29.524,148.42218
-526.3578,18.681606,81.2268
-688.4704,93.371056,16.106266
-1338.7079,267.68805,30.81868
-1885.8295,665.0766,157.31924
-1520.2769,884.6853,596.7872
-1546.0312,709.6498,615.1917
-1316.4167,591.49384,71.3441
-836.3781,140.09756,95.31204
-676.14935,-95.62998,237.63203
-576.65454,83.86647,236.85881
-593.01587,283.56674,256.47818
-518.2571,506.13492,284.75977
-433.76596,536.7421,266.21063
-396.66156,449.9556,211.23346
-471.96503,411.47556,150.31561
-558.4021,282.08356,84.34228
-1107.91,336.93246,221.07216
-2451.6177,155.24368,36.259068
-2356.6396,82.34114,-103.97875
-1839.7881,165.81598,120.26413
-1287.1453,329.32678,170.31604
-639.0015,601.4611,133.57283
-449.20193,606.18524,193.00598
-289.36203,343.195,170.36365
-284.02438,29.84117,110.1941
-197.33817,-233.14392,63.345573
-318.66275,-169.48898,16.885534
-401.7839,-2.905605,-36.678047
-958.47424,290.48752,-53.278286
-1853.6467,938.328,24.127308
-1999.6774,1440.0063,369.28583
-1275.0503,1434.266,609.5906
-947.7249,1148.092,-48.950554
-839.73486,1021.9569,194.10217
-452.1331,473.76932,567.1853
-259.73,637.0241,330.6692
-317.74973,746.2286,87.95911
-417.53055,479.397,72.64648
-543.08435,456.2147,84.019905
-667.7165,415.63934,242.83578
-731.6607,290.25534,142.69508
-568.69586,-79.04383,174.90634
-1113.568,90.52805,466.27838
-2156.6008,241.4091,436.1553
-2241.6328,-37.224335,309.8668
-1853.5603,232.11238,201.21265
-1353.2811,540.9819,119.95203
-899.7444,569.01276,180.48363
-585.5108,403.39322,102.72957
-426.2454,354.8881,89.315956
-530.71436,311.40894,16.38813
-732.7279,354.4265,-14.291438
-988.89465,348.7215,-72.30757
-1060.7216,334.75403,-113.12936
-1039.1011,365.22827,-87.503
-904.0278,413.28958,-93.55112
-929.4459,557.7454,-24.730122
-992.4269,637.59894,128.88095
-1134.5039,659.9595,322.7064
-899.0181,518.7647,415.16302
-844.9104,375.14786,451.5985
-926.75806,406.44742,392.47684
-1041.0302,342.26547,324.55603
-980.65924,231.17747,257.33392
-883.0471,220.6913,225.05576
-766.46136,239.50221,191.23643
-634.5513,276.43353,215.22882
-506.79434,300.57138,221.35384
-539.9768,342.0623,245.80254
-628.9372,460.14273,258.44998
-848.8229,713.15,220.9177
-1215.745,932.3999,91.915184
-1045.2667,961.05066,63.030876
-658.0015,646.1518,85.38439
-834.23755,507.3534,81.9379
-1007.5204,636.3168,61.407635
-953.06506,776.36804,77.35185
-837.3685,654.59894,196.53113
-875.22375,572.89014,247.18996
-766.96625,449.36118,168.32504
-753.16425,456.63757,164.59007
-654.3002,416.97888,155.7388
-942.11536,459.51993,372.29324
-973.21454,286.19458,253.39464
-740.2825,272.42276,-4.1444216
-946.5871,616.9573,41.327656
-1317.9927,860.7004,148.30959
-1060.2673,568.42474,130.25948
-822.4038,271.02652,43.25816
-873.5863,321.86804,6.6977906
-918.99036,553.6903,-41.70021
-817.21924,428.8167,-166.23694
-866.4275,472.60028,-127.27017
-735.2853,339.0386,-167.16406
-715.87225,457.95047,-113.963425
-536.30676,310.6416,-175.69449
-651.5009,576.8912,-56.817707
-308.10696,488.98886,-77.269905
-465.52875,1381.5309,983.2568
-656.24994,1528.1323,434.80472
-149.52617,619.90643,16.741661
-451.75473,884.10724,58.551537
-346.05557,360.00198,-196.29509
-659.82306,636.9932,-127.63093
-1511.5533,810.01465,-130.58636
-2569.089,1073.3914,-126.84973
-1929.422,613.75055,113.64691
-1169.3624,127.19938,233.83662
-856.6929,157.99805,168.32744
-512.72656,389.80725,163.7872
-217.30669,381.2409,82.0534
-31.45046,261.6494,99.11458
188.81609,37.447018,-2.4545228
-6.915046,120.57286,-47.931595
-605.3467,353.68787,14.762226
-1114.0441,886.3843,40.266346
-1564.3088,552.6608,-122.63058
-2039.1637,736.9841,161.31056
-1894.5007,1178.8491,445.2676
-1266.6393,886.66864,658.8303
-996.9631,709.6677,259.91504
-749.67065,459.8498,187.40474
-617.5842,416.2944,71.23461
-467.54446,197.15111,104.910126
-402.0358,255.09677,25.643267
-305.6265,250.03291,42.797245
-337.4103,383.8761,-1.9833837
-368.59445,306.16962,47.398895
-583.9117,516.2529,-62.77582
-493.64163,347.59674,68.437294
-986.2878,856.8779,-311.16275
-1407.6261,660.52515,-185.06598
-2608.9136,871.6298,-187.5955
-1752.2397,724.4743,-246.61444
-1174.975,383.1126,222.48337
-1007.90027,482.30695,126.89832
-565.05817,430.436,92.70669
-390.27325,597.46484,20.34357
-300.86728,332.53394,80.50344
-407.61667,362.00485,68.5727
-455.4369,144.01808,68.9764
-624.50195,173.98743,44.229904
-601.3679,26.558243,51.486847
-713.7191,302.47165,50.928925
-1004.2513,300.89307,-59.19815
-1559.313,697.3728,-284.24417
-2061.3557,1085.3693,217.88927
-1409.7777,823.9933,361.47653
-1072.4836,264.00156,406.58716
-804.1843,146.19466,320.45453
-564.8557,817.22424,141.71857
-304.32727,318.45493,30.718655
-209.3786,305.28586,19.675722
-249.01018,269.6303,45.240673
-373.38034,434.66647,24.567022
-611.82697,524.08636,39.72028
-1101.4326,738.19666,117.05192
-2166.7197,621.04987,-36.688198
-2121.3533,169.91472,-44.332928
-1803.8551,-147.64584,90.27795
-1383.9034,3.1263363,70.20694
-760.41876,386.9785,46.448505
-409.53757,478.0768,62.381977
-154.2334,186.07977,85.234055
-182.3516,289.0858,143.32275
-251.95598,358.66147,120.97227
-568.4952,337.7992,102.82983
-835.056,325.83914,80.30119
-1057.5161,34.0817,-111.42768
-1519.6129,80.8818,-165.19058
-1754.8208,631.32965,125.66588
-1903.2922,1072.8608,464.72244
-1288.665,1077.2261,348.50055
-787.1692,716.29785,-49.739666
-640.2751,101.525055,-110.61981
-536.6019,-134.51454,138.16473
-489.39124,64.84439,211.16301
-419.97552,122.17364,207.61908
-564.266,346.98007,176.02069
-661.26904,369.17917,149.31453
-668.67535,378.0863,113.69879
-626.6588,314.66565,150.32056
-850.68304,284.00864,185.38075
-1722.7396,258.43784,68.20591
-2576.66,474.42236,-30.502104
-1561.6406,373.23083,135.6858
-1120.8097,89.862,173.52701
-901.7736,183.06581,163.96352
-658.67865,345.32736,79.76107
-448.16998,369.27023,74.23373
-324.90497,266.3786,109.78852
-281.7484,190.82568,159.09483
-415.31897,149.40338,69.74402
-388.65195,173.5921,76.58543
-722.9882,277.36728,125.17068
-1276.107,361.69473,116.460396
-2429.6113,499.44537,204.74419
-2289.499,608.43414,614.33307
-1068.3134,347.14896,568.3669
-914.6812,272.337,501.01996
-662.1862,465.74844,366.22742
-544.3636,201.5621,248.07913
-445.06555,105.83686,151.72838
-552.5638,184.53693,85.692474
-586.10504,402.12323,95.71823
-467.73242,429.9183,101.269264
-494.55746,470.9463,163.77864
-657.1456,424.7119,103.7138
-544.7313,376.01413,37.29279
-534.69653,417.98587,147.77196
-1405.4976,542.0669,222.43073
-2098.184,546.0417,-55.17062
-2309.2588,630.92975,22.377348
-1799.9733,360.3002,243.1631
-1269.2649,345.67462,204.33199
-900.14667,399.87766,101.03526
-469.20035,476.58832,185.27539
-447.88254,347.44193,233.37505
-525.694,177.85535,179.25119
-666.30066,5.9601197,121.704475
-819.9598,-48.376728,37.033306
-902.3737,117.44166,35.925095
-859.6152,323.61783,19.621136
-1267.6238,498.42947,27.397766
-1646.6669,965.4075,254.61247
-1192.0037,685.629,153.69626
-920.6316,221.40454,39.22952
-1060.5745,-24.289522,-25.734865
-1064.263,164.21985,-146.61201
-935.2223,403.64197,-279.09946
-717.55457,474.89636,-314.2575
-645.65326,525.1103,-185.78606
-596.1879,606.9582,-68.61207
-617.0033,535.1205,1.3564788
-594.44,540.3355,37.30809
-606.4286,413.4835,39.578068
-797.0031,468.41046,161.59602
-1310.6456,686.1884,197.23047
-1180.5472,1010.4675,393.62665
-929.6109,703.9631,371.33176
-1278.4998,359.6487,118.07558
-1223.1929,493.7337,51.56958
-954.1126,416.02713,92.95047
-846.9835,290.07806,101.20753
-746.6064,226.16454,95.79778
-619.06415,217.42998,109.94708
-646.4632,231.34654,50.96934
-765.9451,235.63249,-49.362476
-883.9466,236.7544,-83.14901
-1078.9443,242.59953,-188.42216
-1425.3735,323.6718,-286.24164
-1353.1338,475.34268,-260.11334
-981.8998,712.6101,35.60074
-797.9695,718.7185,121.490715
-749.84326,674.77484,-16.497889
-877.9868,479.3563,-22.655542
-868.4403,-60.425606,198.1601
-796.64435,13.543271,202.94313
-731.91284,174.72327,130.39972
-686.31006,166.10498,81.30405
-599.2212,401.12366,100.209496
-631.3622,485.32828,137.5178
-653.9901,659.2717,216.79073
-657.9994,567.93915,278.60635
-784.9939,397.57693,352.46417
-875.0544,108.21597,342.8358
-1476.42,-68.48679,168.9306
-2638.8044,-325.36545,-162.76869
-1910.8485,59.300266,-135.35887
-1136.928,202.92024,-109.583084
-771.8519,374.0309,40.901722
-475.1743,499.00494,106.099365
-221.28955,446.647,80.83395
-114.04098,134.09644,11.074903
-201.45451,-37.521076,-52.733047
-405.4622,38.313805,28.149717
-990.2684,419.32822,197.08958
-1509.6838,449.84656,-67.61459
-1957.629,870.2758,199.72458
-1986.848,897.94965,553.29266
-1606.6052,756.79645,180.19887
-1354.4961,440.56622,326.83286
-865.8598,545.6293,125.70977
-282.93884,184.22504,-32.015274
93.96347,240.67635,30.084612
108.43807,667.9273,196.50197
-184.65097,748.09906,488.08185
-605.0835,708.8648,229.19292
-888.4361,997.9864,-356.23685
-1415.3997,1065.2468,-887.8927
-1446.9209,557.8837,-510.57388
-1530.9066,452.32874,-51.15786
-866.9192,910.67096,-217.15143
-335.51123,911.3411,-151.12544
64.79893,430.11975,-159.52568
160.50218,57.607277,-159.27084
159.45105,-112.913315,-306.14752
-350.27487,400.04688,-170.7072
-607.5735,245.26248,-111.637634
-1078.8833,474.59476,-234.08018
-1334.0073,749.0516,-613.8126
-1641.3514,1041.56,-591.84564
-1514.5021,1169.4089,-579.08716
-981.44995,854.376,-497.86966
-661.9361,504.45163,-359.40237
-470.00827,581.0921,-185.70778
-409.79214,472.54718,-48.57179
-212.98384,488.27133,-259.06177
-376.7635,376.25488,-197.55428
-580.9572,601.6935,-364.89615
-706.8279,202.77898,-273.40842
-970.85156,611.8504,-443.2166
-1212.182,891.45844,-693.73676
-1093.9303,832.49854,-788.86487
-1585.1309,609.7512,-166.23315
-1065.7726,936.36786,-15.895805
-509.03815,841.4952,-91.333984
-285.90717,482.0092,-32.353455
-272.0237,373.57407,-245.13765
-329.31558,609.5032,-422.5681
-438.16125,-93.527725,-190.8187
-613.97784,-58.489674,-59.898174
-707.2375,149.10846,-442.48483
-1073.6769,653.2588,-789.367
-1491.7046,1312.9978,-656.21405
-1716.321,1302.8129,-514.1695
-1336.9912,640.8509,-617.9406
-736.6178,633.8465,-594.76044
-289.87015,300.907,-696.61676
-311.9826,104.98703,-72.08689
-646.31976,477.95996,169.03542
-570.64014,649.0142,53.697758
-612.5662,679.37415,-268.39978
-614.0278,698.3483,-384.0065
-468.135,115.66039,-200.3658
-561.6197,99.3996,-84.07468
-478.35107,409.06824,-216.19983
-1052.4496,947.92786,-670.4887
-1557.922,895.3943,-1036.3624
-1377.2794,770.9324,-877.2025
-1038.0,491.76602,-367.00415
-579.33887,359.32852,-166.90547
-302.98978,574.7285,-135.10838
-141.1325,667.26654,-431.67178
-276.48163,403.57187,-236.1765
-381.08218,186.77687,43.813965
-542.57166,722.426,226.133
-827.4396,673.2887,25.300089
-916.89233,459.2124,-220.94188
-1229.2018,-157.6808,-3.3887062
-2028.647,-627.4393,1056.5428
-1372.4161,249.41794,704.83484
-871.7498,339.38232,61.392117
-729.6178,702.92267,119.121216
-878.6655,1284.1733,62.79234
-649.947,624.3374,-98.57814
-517.2219,119.63509,98.217
-563.0605,-193.99252,356.1382
-619.85364,25.092878,387.2994
-600.0061,255.07962,315.69562
-1029.8147,630.4579,210.48518
-1823.4396,936.4672,155.49963
-2247.8494,774.1903,-7.298075
-1805.1139,343.53137,64.59211
-1345.7164,228.7396,134.57983
-835.19507,239.67043,108.416534
-462.92072,327.14334,111.29638
-306.52756,265.6276,111.53504
-282.80124,248.16768,102.32621
-321.17154,159.69467,78.90668
-476.47958,161.92055,64.0939
-649.6913,123.10713,82.52497
-1047.5603,121.48774,67.82204
-1216.6112,170.2596,111.274185
-1558.6261,380.28195,256.03983
-1863.191,595.0718,468.5794
-1669.1719,714.18787,484.37473
-1328.6273,440.1689,244.51793
-1011.24084,135.0669,207.9804
-868.01385,145.10834,248.70665
-681.3,242.33856,248.0618
-596.4133,346.85742,252.35406
-621.0032,507.46085,244.69278
-637.10944,510.46747,210.50003
-647.7969,498.50247,204.23656
-1080.2106,465.06998,120.07255
-1795.4646,303.0128,-79.78911
-1743.525,109.25322,-91.71673
-1811.524,51.93467,45.68982
-1715.2485,172.88107,163.5234
-1160.5917,400.70404,148.07172
-787.87634,360.04395,110.80849
-498.17975,-74.86755,135.35237
-341.23245,-178.42235,95.09025
-402.42075,-72.68474,102.97787
-529.63165,65.83214,45.229446
-612.5984,187.26268,64.552376
-841.5479,231.0893,102.20531
-1079.106,229.36052,98.138275
-1336.221,245.66022,216.6194
-1917.1425,365.64316,426.60773
-2236.918,562.4759,578.45905
-1776.9644,412.68878,316.25912
-1221.9413,84.64809,229.80026
-988.2765,81.90438,247.85365
-777.55255,242.57129,283.10913
-583.475,399.89417,216.06361
-505.71548,462.2972,177.73706
-541.7432,474.3714,125.57715
-603.8979,355.07245,56.837173
-615.68085,222.39052,7.4743633
-714.29004,120.53481,28.968508
-1016.7862,96.141335,-9.13554
-1627.3231,205.06029,23.022686
-1968.5428,276.67343,51.718414
-1924.7156,241.6367,35.65551
-1558.371,303.61697,156.78494
-1021.7913,243.86871,595.04736
-642.4551,-74.29877,238.784
-408.77246,-19.208315,118.21774
-557.37506,45.724583,203.80508
-513.53546,213.44093,55.82658
-497.51505,223.6898,-35.8262
-593.901,226.30344,-108.17837
-747.69574,198.65419,-65.618904
-1246.0321,226.96526,-58.627842
-1440.1305,342.84375,75.56839
-1726.4183,616.52454,346.00504
-1701.5864,890.2746,748.5787
-1310.9945,664.2488,473.23758
-1059.4648,33.436596,90.28437
-778.03107,-301.91263,202.04115
-666.8555,-145.55498,281.27097
-558.1188,70.84496,265.10675
-588.1468,342.9277,202.81776
-638.65955,493.20572,170.23483
-770.2671,510.79562,128.60626
-765.08044,463.89368,164.2102
-719.2672,281.64456,180.52058
-633.23895,188.46965,116.12273
-728.57294,175.01385,82.83256
-1387.799,327.54077,130.0109
-2383.134,590.1133,-162.80635
-1840.7169,843.9147,-84.51131
-1962.9397,893.399,928.8997
-1473.8392,113.82988,66.516136
-684.52435,352.54416,207.62398
-480.31863,-73.69858,209.94737
-165.95045,85.44995,142.7143
-300.19833,251.99039,74.70011
-400.56122,537.13257,8.075735
-544.18945,659.47327,-23.854061
-659.2843,767.14777,85.228485
-772.2088,757.3893,152.19159
-662.57227,777.509,32.14996
-518.4382,794.41486,-5.5985737
-534.4715,867.06445,180.51881
-569.92645,765.1081,284.0462
-810.6297,801.4941,371.47543
-1066.2977,785.4642,179.00365
-1139.0052,724.1173,173.60252
-1260.219,524.196,306.73126
-1058.251,143.02817,336.54736
-906.3734,-28.913162,237.14659
-866.27576,85.20993,155.60619
-918.85986,249.6017,149.52036
-882.5847,290.22586,76.39494
-815.9913,185.1162,29.647026
-758.71423,227.1662,-1.3287206
-724.6191,337.5689,127.10989
-659.8531,499.338,231.966
-615.6346,489.63974,239.11983
-625.20337,550.78015,288.07953
-679.1847,390.58386,338.45795
-801.93756,297.36896,363.73773
-1108.5071,1302.3492,493.09277
-1333.558,1187.9783,346.00992
-1233.9357,677.53265,149.14464
-892.4896,438.76764,96.454
-883.7196,328.13333,82.464485
-1140.8667,262.06134,62.057144
-1225.8278,277.25897,-97.1381
-1050.9003,305.04382,-89.56124
-933.16644,272.29373,11.253293
-739.66956,250.51094,-6.328922
-538.31525,324.12766,-130.72144
-455.0661,444.2827,-133.32657
-575.0592,502.93378,-52.90985
-708.4413,420.2733,-29.733665
-851.2722,339.73392,-51.81861
-1121.4432,368.47958,-74.61533
-1302.1458,473.4273,-20.226883
-1476.5986,491.65,-49.427948
-1501.2383,545.19415,-13.7717705
-1225.3461,554.10046,30.804205
-880.50995,445.9262,54.406704
-756.9064,323.21896,64.255684
-855.01965,255.86006,138.1477
-930.9605,201.38657,91.946465
-921.47577,174.66988,122.34176
-782.55493,211.34851,30.228458
-810.60065,301.617,44.88966
-712.63495,427.13943,-39.163353
-770.0612,502.06808,114.62299
-656.0494,550.3387,51.457066
-804.2107,391.5511,795.58405
-1029.4556,298.66946,750.34296
-769.0316,740.0557,208.28947
-1226.1583,526.3934,175.07996
-1245.1775,424.1799,-6.6574655
-1126.0046,462.29703,67.62724
-875.6077,542.78033,-78.810814
-1014.5356,710.5175,-86.95287
-1105.3763,631.03265,-209.24413
-1118.9885,479.76492,-111.02121
-996.8768,359.85483,-52.682278
-964.4226,360.7032,35.108524
-874.4475,305.80215,-12.776122
-869.1708,289.47168,21.770418
-836.68335,258.8379,-26.173492
-883.524,228.67035,-24.532417
-899.73065,224.93193,-18.152803
-910.016,243.93475,54.12889
-909.4305,252.44289,38.99645
-976.7937,285.31693,120.052025
-950.33875,334.2234,301.184
-978.1264,196.8507,472.23334
-939.79877,-212.09431,237.63057
-1324.517,36.076923,395.30127
-1523.2872,491.55093,271.1196
-1119.602,643.0316,149.61224
-837.9356,590.9008,-49.3862
-839.0718,466.31842,-214.9797
-717.1466,158.38719,-251.56166
-594.98083,67.779205,-145.2781
-668.396,188.76143,146.79828
-584.84265,387.13315,227.42313
-590.6606,491.16068,235.71896
-728.04144,658.51794,340.50696
-656.66565,664.34467,334.1362
-707.7405,470.1944,269.70724
-771.27435,204.4917,142.44957
-858.1597,108.243645,167.82605
-1184.9156,118.89866,259.6952
-2455.8022,277.00476,288.36493
-2864.4639,471.30344,-8.947573
-1651.798,386.7017,-15.098958
-1112.9342,268.9399,83.76577
-831.24365,421.65802,64.79161
-641.5962,459.69662,25.73049
-525.29517,343.0442,21.139622
-416.46854,73.39015,26.896158
-270.50372,-60.1568,69.119774
-259.09644,-97.60004,86.5909
-403.4592,85.38535,94.744415
-562.9613,188.54959,92.38434
-572.0682,222.97896,103.01206
-780.1449,180.46698,34.274624
-1274.175,304.1156,-5.041743
-2036.3225,494.79614,91.939095
-2001.9884,776.31036,559.9474
-1550.2542,644.16846,528.2198
-1250.222,609.84784,301.42438
-1010.6663,200.88188,223.8905
-754.59973,-24.192387,210.21118
-671.7595,93.26068,287.80652
-451.62198,312.591,259.8563
-416.333,808.1704,359.90613
-489.45148,919.869,260.8717
-703.86096,953.9786,294.4183
-1422.291,760.9456,224.0528
-2261.5745,192.41826,-168.92575
-2474.1846,-237.82652,-297.44083
-2032.5309,-241.2076,153.561
-1735.2002,378.00836,368.26328
-1017.5068,572.01416,-69.81929
-551.15027,546.04724,13.607905
-400.21567,258.70517,-28.815273
-321.75504,174.86014,68.14311
-347.68625,-31.979094,92.311806
-264.3811,-56.60546,67.89002
-251.6064,-117.223694,44.364536
-430.872,112.743996,109.39132
-844.5618,452.32303,231.80533
-1128.8754,898.10815,423.74026
-1320.5391,805.8059,616.3811
-1573.3953,416.4803,697.4212
-1647.7119,151.01277,497.91116
-1389.1454,227.1793,397.67386
-984.23596,394.0282,289.30127
-760.54834,500.85764,247.1437
-587.93506,534.1222,177.2379
-575.4296,596.5426,183.9881
-517.1992,519.6866,145.81554
-512.5962,425.77066,131.08495
-688.33044,385.74557,184.74799
-1620.6691,662.8892,386.1968
-2424.2175,594.7912,204.17516
-1524.6038,319.65167,222.74327
-1269.3424,331.36517,140.9491
-1107.2382,666.49115,-63.355865
-773.5633,897.0954,-383.49664
-591.5877,1071.3519,-323.62784
-482.06885,772.1942,-223.8219
-380.3886,474.4813,-145.46875
-384.33377,25.622108,-127.73566
-513.8629,-269.24478,-150.47723
-540.3774,-347.3543,-164.52805
-297.17944,-146.86053,-347.70874
-242.85983,-31.437855,-1355.7004
-353.59067,1803.5605,-2267.6099
-340.84424,1843.0242,-1439.6178
-452.9783,590.0015,-1673.1842
-117.855194,972.6772,-1493.6425
4.4441967,819.28577,-1013.1413
73.93266,537.26807,-754.3183
71.37168,470.9996,-517.0656
104.50952,507.24466,-411.16284
147.12877,236.3567,-366.205
127.2302,318.92758,-328.96878
188.06416,301.86774,-435.7723
234.08066,762.4619,-1234.8273
-72.46859,1525.2052,-2271.7668
-133.07195,1009.82306,-1706.7966
-3.6222317,620.0616,-889.7107
215.43674,633.4078,-509.6002
242.51775,533.49054,-120.69207
247.94127,285.41803,-5.1415033
200.04001,40.682526,-182.94048
198.76242,82.912636,-265.5391
192.78925,179.78859,-422.4519
209.62071,199.43748,-906.0863
104.28038,841.1515,-1243.2332
-71.04988,704.5309,-1165.2233
-5.734842,412.06866,-832.6251
244.27365,951.69135,-1051.3394
12.317501,1509.6504,-946.6054
-3.6535099,1329.0126,-983.5005
56.07333,943.4924,-1249.7123
-46.73709,788.9325,-812.7127
92.61203,667.984,-597.55524
250.46463,614.7679,-447.39185
291.7273,479.75937,-250.47366
353.8839,532.3032,-243.65004
311.73846,511.96393,-166.17305
221.14528,580.13574,-212.29524
140.54944,746.2878,-386.3141
182.74638,1185.3181,-904.74316
-212.55502,1897.5333,-1797.3759
-443.40643,1750.7354,-1670.1932
-133.79495,1386.7397,-954.8091
79.910194,963.5733,-618.71185
155.9381,605.6351,-346.85898
156.74785,438.5153,-225.8448
168.50288,412.17078,-133.61418
108.99336,567.23,-291.0394
52.042347,698.9232,-422.0965
-0.19825527,756.82385,-556.8423
-24.067085,761.71967,-541.6785
9.226669,649.5859,-450.9846
72.20787,649.1935,-431.96432
70.03083,684.7823,-452.77158
91.99855,745.66547,-667.33624
76.75553,930.45337,-756.4639
106.19388,992.9472,-1103.8284
190.23932,922.883,-1213.0742
178.74751,970.08044,-1109.8264
206.137,1043.6196,-818.0464
182.98738,946.8786,-546.9138
82.30317,889.8334,-397.09308
-32.56387,812.6727,-417.03278
-83.17889,686.57025,-426.5246
-93.61245,740.517,-359.73923
-62.2909,629.675,-406.7063
7.7214284,555.6283,-395.81302
102.80382,486.19275,-475.90433
180.76996,410.15784,-721.235
249.411,531.2138,-1110.5485
196.74696,857.5404,-1327.1478
119.59013,531.20074,-1396.0586
210.89104,254.46214,-1319.675
324.16092,344.56015,-1153.7521
290.94922,444.42545,-911.91766
224.98605,249.89027,-942.6685
120.7311,220.5253,-1314.997
63.41527,692.7278,-1148.0853
83.45986,425.16885,-888.5123
88.12361,245.54034,-356.53195
125.751335,241.45645,11.700049
44.24198,112.384735,-102.772896
-62.678864,318.0598,-991.89484
-102.76271,692.63513,-1628.4882
53.851074,676.39215,-1651.9729
157.16208,361.67035,-1384.0828
328.76553,401.03058,-1176.8903
358.0954,542.9573,-1083.351
412.8125,531.9467,-773.90015
481.76956,418.41995,-590.76227
426.56915,362.09952,-330.5149
365.70145,334.76428,-377.81467
136.35475,509.9143,-1065.5387
54.208305,953.64703,-1301.7847
202.71977,707.1532,-1004.1866
287.2285,382.8165,-454.32288
340.57355,405.7658,-368.69373
271.40518,421.518,-236.25697
261.13544,415.55185,-482.24582
295.90198,484.20068,-562.0707
324.60477,617.0383,-594.3902
331.18262,556.9186,-492.33963
365.39606,526.7487,-441.57303
289.41003,561.74835,-494.86447
264.08484,522.00665,-452.78546
277.44214,724.43646,-683.96375
303.40436,990.1679,-1366.4044
-44.417557,1114.5797,-1996.5687
-272.89648,1166.3009,-1654.2539
-70.28688,847.6672,-906.045
125.373,512.80255,-542.06384
118.83282,482.36536,-330.74066
74.42208,465.36786,-366.28888
82.46279,460.04007,-304.58942
161.44147,455.76035,-252.11311
119.36342,475.40546,-306.74582
109.381065,479.37305,-588.9789
63.55276,497.69662,-663.3558
80.52618,986.26776,-1204.8591
-59.039024,249.55215,-736.0291
39.231606,909.1381,-1070.7449
286.66217,1291.7263,-1611.1149
-9.530015,1655.7289,-841.39166
166.49544,713.0721,-655.40546
306.60513,564.159,-476.89032
479.83978,314.62234,-321.5722
359.8911,305.41287,-225.69408
279.82642,614.54376,-180.83228
199.96466,663.804,-324.26953
143.9088,898.76044,-544.7369
43.540344,1128.1349,-810.78815
-24.24545,1260.7317,-1116.0581
-174.078,1230.1439,-1548.8778
-380.04547,1189.5792,-1649.1289
-324.73892,975.1299,-1225.3108
-150.97566,586.6157,-861.4441
188.00078,396.63333,-475.64752
363.5401,210.57939,-416.58447
324.11856,206.02686,-395.93423
251.85869,177.83826,-438.615
248.29031,193.31445,-433.8337
197.94864,328.4093,-593.4168
116.35045,467.3304,-553.4597
80.71409,462.49527,-510.27377
143.70892,458.9373,-476.6561
173.27718,524.3917,-819.3269
184.48526,816.6486,-1098.8507
115.957504,1029.3237,-1550.0885
-29.310394,1067.277,-1494.6016
-65.79738,1140.174,-1097.965
79.948,1002.57245,-1036.5629
180.38808,804.51794,-796.83765
209.98473,781.5433,-615.6163
278.4049,695.02997,-509.50742
340.83707,717.58307,-422.9189
362.2586,749.0028,-479.63516
346.74374,893.24585,-514.36975
265.8663,822.7549,-466.52625
142.52895,736.89026,-386.62833
161.20718,704.13873,-374.88986
376.31995,889.8607,-502.65485
774.94946,1284.1859,-813.31366
863.3745,1714.3645,-834.59546
566.59357,1120.7396,-209.01358
710.8027,705.7201,279.41183
556.4575,441.97156,390.77368
379.05792,-220.8335,378.22394
421.55338,-128.2068,274.91016
351.69864,42.68732,-8.890729
461.65958,279.53818,-85.971375
775.8353,507.65082,-428.3155
1059.9702,773.38153,-207.4012
1195.1108,875.0549,-28.525597
1308.4637,937.614,-235.85573
1037.6555,903.27124,58.08881
855.28455,1045.99,-96.90385
704.9554,732.33167,-84.85079
458.44745,460.32965,65.74085
536.1307,257.62305,-107.93166
481.6767,226.42126,-70.42242
450.46436,142.66829,-8.778177
506.4914,324.57837,-57.162086
819.91595,475.8944,-207.83542
1238.8057,747.0442,-235.75279
1256.5582,658.368,-210.04169
1326.0712,565.64935,-352.59192
1230.0555,862.8961,-426.83777
981.9846,758.2251,-191.20332
805.8947,699.8463,-34.710346
754.33606,569.9689,-69.81135
633.58,407.3958,-109.55325
512.3282,332.529,-80.398445
457.6161,268.062,-152.26178
438.6928,259.8995,-102.44514
504.5703,279.16376,-45.54379
637.8537,465.7821,-123.71369
877.8988,681.79297,-235.82974
829.12915,955.22076,-209.4571
925.4793,1114.1989,17.525005
1032.7443,952.1678,-42.895184
1006.9019,992.2209,-345.4311
934.94934,871.51843,-456.05692
597.6305,696.5131,-236.00676
430.8428,490.41534,-187.71028
376.88474,492.03268,-215.09038
328.88773,458.33987,-193.54146
347.44464,522.796,-202.41556
357.07852,485.92224,-215.5528
373.16522,638.02594,-197.05003
374.42163,709.1467,-102.788246
508.5685,737.2843,-145.14943
791.31104,1227.6693,-495.10684
674.9889,1725.1486,-1058.2576
474.6144,1864.5728,-1160.823
426.1148,1395.1586,-829.19806
455.28482,916.1917,-624.6676
442.60416,700.59033,-480.72076
409.64246,607.7027,-425.73495
359.46582,556.25574,-357.9321
351.4632,591.90314,-414.4168
358.5301,622.35254,-506.62668
316.568,801.9183,-578.62274
278.84106,826.4114,-599.40436
251.1877,894.5473,-582.6168
245.98354,840.2911,-441.03015
306.77533,830.6621,-276.58896
344.09702,807.92786,-133.88707
329.11642,918.88824,-163.50089
301.87967,990.4312,-345.07913
365.63,1014.6229,-502.9032
347.05682,927.64935,-406.72202
363.23755,876.5282,-381.62323
375.0943,797.4488,-344.60742
404.9334,771.2368,-364.68988
395.3293,745.8888,-262.1206
455.2043,1040.7115,-478.24118
484.35898,1077.851,-571.0768
452.6544,1087.5515,-538.87286
404.15854,925.3491,-387.0766
381.00635,720.7382,-347.27997
340.73788,626.4757,-265.97476
306.78384,521.12494,-128.59294
240.74144,526.6775,-33.863293
287.72095,829.17456,-455.63757
249.86436,889.6503,-544.4879
297.3603,864.24243,-766.5557
314.61044,745.19806,-921.25366
405.7296,743.301,-1030.5214
516.9201,484.72308,-1404.6294
449.07166,908.3127,-1772.3458
608.1904,682.41,-1704.894
453.853,398.35965,-826.56964
273.10928,403.0521,-264.06436
219.94168,58.987858,175.31787
280.50668,-4.0064816,325.55466
407.4937,201.06245,73.640915
562.94946,515.6694,-606.01666
679.3036,1096.895,-903.4328
788.2676,1045.8585,-496.68777
729.57477,548.5171,-76.96216
696.7776,198.13628,225.32228
617.88104,170.64418,16.531511
643.1612,555.9939,-723.1324
848.6484,574.8843,-1197.2744
959.6177,435.59775,-878.02924
770.9828,239.31668,-415.74335
653.6413,244.30977,-158.8762
523.86957,272.68594,-227.85155
513.44037,477.00708,-542.27325
511.97095,450.30212,-959.82983
414.60486,812.2618,-1081.5605
415.69733,802.09235,-887.5827
449.49146,535.5033,-648.81616
408.9937,364.04562,-624.7463
398.1412,561.59143,-937.45135
360.20523,751.6243,-1183.9484
388.36322,761.4016,-1005.02167
385.65503,582.7228,-720.0014
392.57797,450.28854,-502.1556
342.97992,437.12415,-582.611
352.74466,591.0472,-931.71747
352.1223,560.1466,-974.9096
362.2455,539.52985,-928.56696
361.69363,458.35666,-778.9639
342.39603,485.3137,-736.35535
340.88437,475.00006,-795.7546
361.52155,510.97394,-824.20184
365.28363,508.87875,-794.26013
377.40167,577.4584,-796.3483
370.82556,548.1958,-773.9455
365.6836,577.6135,-787.83307
363.10245,599.1319,-896.6713
444.1189,598.1809,-1029.0392
493.24338,590.1645,-910.1542
494.08075,540.7051,-694.13934
465.81226,374.3909,-494.58563
371.3947,363.9268,-225.18495
279.92712,200.88156,-172.08833
200.95073,263.47568,-673.14185
119.4239,278.69208,-1471.5729
32.703957,618.3669,-1404.457
159.43465,589.6017,-1125.7253
292.28082,336.67926,-875.6259
352.0653,413.6512,-782.79254
340.32404,571.1137,-775.47546
328.05377,538.45874,-909.113
334.11786,533.05,-951.93207
332.13568,606.5694,-892.0265
303.38727,681.12976,-879.47534
263.92587,783.86224,-904.43024
224.31766,836.9467,-892.1789
158.89508,861.285,-866.0635
39.251015,1043.79,-660.6601
27.068201,1280.4454,-271.46875
164.89647,821.0276,-71.35994
261.14084,-9.804364,313.885
232.2033,160.67761,608.48865
213.91754,594.56036,642.066
298.94888,779.8694,600.08734
298.45978,796.5713,587.26044
300.1601,760.04083,628.0228
255.22968,711.23535,625.32367
263.12494,731.2953,634.1834
236.34492,694.8603,675.0676
255.03111,671.44214,639.1818
245.31093,705.77905,603.9312
290.7722,763.6795,579.3747
291.19937,719.2118,555.1071
325.70975,762.1642,552.92334
277.25717,750.7853,568.11426
306.1495,743.8502,578.81354
271.36862,728.3612,584.5887
296.613,772.60614,606.06445
251.45909,765.22144,582.53955
273.8476,777.3637,602.87537
224.51608,743.586,602.37146
248.95685,797.49976,622.3928
221.67642,738.76044,608.2181
314.208,800.97833,614.2244
261.71198,790.4555,589.5279
433.00473,843.7976,644.1276
351.997,761.4703,653.7419
732.9878,852.70844,790.3494
