# PAMAP2 dataset (wrist-mounted sensor)

acc_x[mg],acc_y[mg],acc_z[mg]
211.3279,979.9112,-17.207232
32.60093,1002.9213,-24.44874
73.378876,1024.7565,4.803843
-9.907905,1020.31525,44.881012
-4.924083,1028.1353,143.91827
-57.534428,1011.3216,222.53256
-16.177917,1034.8939,245.42046
31.597046,995.8833,204.19162
64.98033,989.8862,190.76158
58.451298,964.7862,99.54896
45.9526,1036.5282,55.105858
84.294975,873.21545,-27.342766
145.12967,989.2348,-64.833176
214.18289,973.8705,-115.66244
388.44232,1031.4441,-59.21728
400.86902,899.98944,-59.107742
366.02148,1208.5361,-40.97969
394.41562,1165.6702,-28.339573
382.98065,1109.6316,25.57208
358.73416,920.9329,37.326828
362.54367,998.7657,61.022957
348.37927,581.9802,-55.881054
339.52942,789.61316,-65.03372
216.80827,572.0554,53.42625
279.22272,675.9845,71.409035
68.15314,252.10582,-26.643589
269.80594,1339.8024,223.2311
313.85806,2103.9832,164.39189
309.17175,227.4414,-166.60776
453.75104,1184.2462,46.080723
436.91592,818.13055,49.491688
394.48004,910.9169,59.054745
258.15887,771.4491,50.865803
188.71262,916.7772,-1.1621748
110.20899,968.69336,-62.51643
-28.190685,971.2429,-95.65565
-258.63672,858.1696,156.97289
-467.46408,975.9903,236.76877
-673.5586,942.33704,253.2009
-874.1552,897.82446,263.9624
-820.3137,940.4226,208.64517
-710.9435,961.4553,170.64655
-716.6416,946.10376,111.51423
-662.668,767.37665,46.42429
-512.40625,827.2404,10.05817
-507.90704,776.76276,30.988543
-546.69446,806.2783,20.02491
-461.1624,779.4109,116.62041
-416.67722,739.4111,127.95265
-404.20023,863.8433,155.57382
-416.57004,1040.9696,141.20943
-340.21707,1347.2567,104.73601
-224.04427,1490.0276,138.74162
-265.1476,1506.9901,155.45975
-581.916,1349.0892,-12.104359
-911.1481,1201.6788,-157.08821
-1192.8037,1292.9663,-67.14919
-1057.546,883.0546,-98.85933
-995.743,828.48895,78.74188
-797.8896,688.52075,98.580475
-642.7505,549.60187,113.01034
-550.244,438.1866,-29.814075
-467.81845,310.64447,24.626999
-343.51178,218.25562,-77.52701
-417.4743,454.29654,32.67117
-728.3194,-46.956627,123.5017
-872.22437,791.7243,-91.19435
-1242.8514,1120.6848,203.46114
-481.93173,1265.889,145.28593
-496.41028,1173.6368,252.59596
-794.3918,782.8718,268.61523
-834.0947,785.1546,139.6934
-796.3016,674.58093,97.595535
-640.0913,760.0228,94.56446
-554.63403,593.9796,148.7452
-573.4906,537.9668,172.52579
-699.9988,448.30682,152.80972
-643.9376,288.6939,184.43019
-826.23517,21.821678,165.0316
-1216.6553,417.8033,321.76752
-1418.9122,574.2365,78.42949
-1469.4556,1516.723,193.57141
-1026.3021,1295.583,186.0989
-869.8287,1207.2305,117.79989
-923.63873,986.8671,35.49864
-1052.8761,1102.9155,-126.242485
-1265.4652,1034.4424,-250.1816
-1206.8785,919.75165,-239.62306
-1059.7098,1027.548,-230.60562
-964.44354,608.0963,-209.09851
-901.21216,511.41183,-274.0642
-626.8862,327.63284,-119.79983
-440.95242,191.70146,-46.68312
-352.99426,434.5001,-8.543952
-256.8367,97.75233,170.13545
-45.56197,963.7513,273.80127
-188.91385,44.006947,224.52364
-490.95978,32.804447,-39.57934
-1200.2047,-33.381516,-5.5599294
-2034.4839,18.065863,81.65335
-2409.9128,724.66016,228.56317
-2119.667,788.56396,-32.72468
-1620.0408,1257.5278,161.79387
-1044.0333,1447.6558,341.52316
-666.4522,1243.0686,144.17905
-538.4822,849.6851,106.987236
-503.3216,933.87726,68.11513
-633.5178,858.84064,203.35838
-977.3974,855.11957,233.3615
-1217.7924,541.95386,151.71031
-1346.7563,705.303,247.25594
-1249.8463,922.21796,372.4244
-1233.8357,1146.077,342.6726
-1230.6844,1051.3722,281.5804
-1279.2019,1195.945,193.98146
-1192.2899,844.0063,81.57466
-857.53955,667.7085,217.89821
-318.80927,324.22177,196.80862
4.5706067,205.54462,157.98216
147.2962,167.00275,34.166378
161.72499,302.61362,51.895878
193.84108,554.15845,79.07225
204.94508,925.0239,126.532036
197.32578,760.07886,396.24695
235.81566,840.614,415.62747
151.90802,590.9933,504.8621
5.3250637,538.1713,530.6912
-149.78273,385.40372,435.78207
-440.4668,686.46783,323.03613
-569.4982,455.50452,198.5929
-252.31277,2770.9297,378.09946
-436.4488,848.45276,-82.62871
-241.8143,786.88617,73.05928
82.625755,1061.5735,-79.54435
94.56385,776.4561,98.98414
-85.61095,761.03784,237.03459
-238.76006,658.4124,268.63913
-486.59683,921.2876,412.72134
-681.7938,669.4079,371.59897
-811.3406,866.9434,347.17255
-997.0944,868.8111,205.61409
-1053.9667,907.10376,220.97562
-877.01556,974.714,159.0717
-835.0117,1074.9421,89.56995
-1115.7754,569.7338,-219.50815
-1132.1666,695.142,-199.61375
-866.40027,627.91364,-156.56708
-660.29736,468.93893,196.47371
-617.1757,741.1757,198.6632
-829.7344,995.0411,205.26042
-1122.2499,1073.5742,87.621124
-1375.1512,1310.0345,121.655365
-1112.4425,1030.6077,259.62
-956.48535,767.83167,242.79488
-618.6911,415.84213,303.9338
-643.9418,442.9013,188.45323
-678.14777,455.45645,340.26572
-566.4873,649.43,168.21996
-507.76907,598.3147,181.86938
-341.78668,534.6146,311.5187
-280.26282,345.1606,209.65958
-150.79376,348.45987,193.25848
-167.20485,158.52866,147.69356
-154.83923,879.32556,397.17334
72.24239,1048.6716,565.26556
158.77719,808.0876,297.78452
16.045294,809.676,335.02457
-148.27731,915.0291,248.28908
-508.52173,1267.2444,195.54126
-926.02014,887.37634,65.6208
-1161.5631,985.14856,128.40971
-1095.9968,652.4302,113.65597
-980.0506,603.95746,180.9804
-804.4267,410.83978,100.44669
-688.4311,366.26883,132.68347
-550.16486,175.23222,147.15161
-632.6978,372.81287,186.52414
-937.567,367.10413,141.51799
-1308.6685,-43.3818,250.54625
-1666.1006,66.05538,135.44038
-1717.5756,257.03653,88.660446
-1548.587,246.71681,77.40924
-776.306,511.2933,221.51642
-716.1353,640.01434,380.11783
-1270.1218,324.8011,246.5291
-1292.0833,416.40067,139.05045
-1158.6486,263.79742,161.78918
-954.2684,420.50833,161.03708
-936.4429,681.3644,257.8508
-737.03876,708.6443,297.3357
-618.1838,577.031,250.77777
-562.8644,512.2483,350.078
-481.12946,634.6922,264.04678
-149.5041,730.74805,306.0496
-75.61562,809.3999,279.07715
145.77711,764.79364,58.462822
-91.218834,752.7232,-7.746692
-164.4171,692.0887,-11.401248
-397.9782,343.35593,-168.16005
-419.9363,1301.8815,31.973284
-349.39764,927.4446,123.8107
-282.8215,751.949,92.38356
-139.48438,856.1907,187.22177
-83.33572,724.5647,194.87415
-157.9147,813.90704,223.65846
-350.48566,587.2288,194.7278
-821.1486,805.06586,143.04413
-1184.22,778.95593,115.19038
-1307.7358,953.34326,95.39379
-1342.7506,559.0427,59.226498
-1152.6621,713.88684,259.99026
-1238.4238,473.65344,264.87198
-1376.7377,-16.910072,204.37268
-1292.9634,-732.0055,-53.521233
-888.0674,138.54839,127.209206
-690.12933,391.42377,163.06479
-629.06537,731.8016,178.5498
-717.6064,693.76575,127.83255
-736.1269,704.4363,163.23616
-774.1201,838.66595,178.10582
-623.7825,1011.03253,288.3118
-702.00024,1167.0477,183.51485
-720.044,1388.9534,343.09143
-821.6628,1163.0856,228.12503
-1141.191,1234.9651,223.17546
-1063.8574,981.8839,83.40401
-973.00574,840.0715,103.539116
-648.3267,593.9225,142.39458
-390.262,445.59793,106.48271
-313.25253,341.50354,166.00972
-178.75195,308.15057,187.39957
-231.72968,201.17215,85.187096
-268.30573,584.7765,171.55472
-320.8763,542.3063,170.88365
-297.3088,1156.911,350.94983
-288.10922,618.9709,336.61276
-304.36917,355.76392,2.5836263
-856.88727,-403.7882,27.15068
-1529.1627,2022.4213,923.4652
-1110.3138,1087.8495,321.35745
-1241.9082,1019.6642,66.438324
-827.64197,1040.2373,178.90053
-732.1044,67.21691,-16.583593
-709.74084,550.13257,9.249206
-626.22534,476.72983,-2.4630113
-594.4592,532.8602,183.31918
-761.31805,390.00067,196.94873
-950.2002,383.21414,184.02802
-1263.1558,287.9281,150.59071
-1404.6616,746.085,175.42497
-1510.4087,778.09955,375.80026
-1408.1146,955.2897,354.22437
-1296.871,752.05164,321.01236
-1387.5297,755.61,205.64133
-1405.2096,649.29333,117.430725
-1281.7705,744.5641,-26.875805
-1027.9312,636.6928,43.97461
-807.8442,685.7056,129.4298
-638.49426,185.22319,105.75511
-537.2195,116.82518,-3.5421367
-594.0034,416.47772,105.29677
-480.99283,462.0335,180.72144
-448.50095,577.80615,316.65897
-426.8362,437.08337,206.28767
-281.24557,329.07993,251.22424
-398.25122,-249.05525,49.905758
-1198.9382,1356.6711,606.74744
-710.3783,1440.5613,989.355
-769.28284,324.10748,113.946365
-676.59924,1046.2112,483.10065
-440.4581,603.1163,300.2498
-588.03174,631.0447,288.9561
-538.2488,483.96542,284.07126
-684.24097,446.76157,340.77536
-765.93933,344.21667,334.47845
-843.8635,456.74603,371.12088
-1015.8965,588.62134,278.22702
-1130.623,563.51373,173.32674
-1300.731,772.8024,147.95706
-1361.4991,958.3929,171.05504
-1242.3215,1027.9154,55.740288
-1085.1412,1004.1409,117.01028
-1014.4803,925.80273,220.39343
-920.2482,921.23096,318.89694
-902.2598,993.7953,139.03247
-934.47534,928.1692,168.39891
-710.1127,781.60443,308.99023
-641.555,522.4675,153.09348
-327.37735,312.46704,167.4906
-308.98636,443.07962,174.54315
-337.53223,289.5171,103.63541
-454.58386,668.54785,303.41226
-473.144,696.17194,312.62915
-501.31873,824.10815,487.67496
-541.92865,763.51544,522.01807
-517.915,765.4921,477.47064
-355.62366,451.78,396.14297
-452.7666,125.64787,315.20084
-655.04034,220.77794,189.59767
-739.7027,226.36105,262.9096
-956.34845,408.78894,205.69585
-1092.9977,528.7632,72.218414
-1234.6649,421.77686,286.76123
-1480.4005,693.19086,306.1156
-1524.975,704.70935,365.2792
-1631.6041,717.61865,433.4772
-1554.8339,804.35736,473.28452
-1189.0885,700.75037,395.47583
-1007.6953,584.7208,369.16974
-1014.4513,738.70825,269.51294
-1191.6809,800.03394,280.99185
-1223.034,713.92584,203.58852
-1360.2605,633.1795,112.88274
-1211.5891,269.015,174.51598
-893.0026,345.6206,159.53098
-877.52405,345.26193,122.308754
-844.7316,455.76932,133.49956
-886.5766,382.91187,147.93204
-707.27075,391.08273,170.59819
-813.7564,291.35098,214.59113
-629.67365,277.8218,193.50655
-730.5511,312.47903,186.13275
-1011.7107,534.23663,224.753
-918.20715,492.2313,329.61804
-865.73016,500.03732,335.03085
-946.5331,584.5085,330.9985
-759.364,468.5154,413.55228
-747.7597,558.0173,258.222
-794.1294,449.14908,347.89447
-929.6863,689.5416,214.6988
-1115.9233,824.16956,156.84595
-1123.9675,820.14435,242.35954
-1186.4825,925.6645,162.08873
-1262.1505,922.6113,304.71503
-1158.2866,881.09924,269.32138
-1069.8131,759.63245,220.35696
-1184.1617,784.40546,239.06528
-1363.6918,761.6628,161.90923
-1667.6387,748.80524,152.69914
-1726.6459,584.06635,206.98898
-1626.4209,535.10956,162.6854
-1305.3358,464.3478,223.94412
-968.95154,336.084,111.905266
-751.7799,498.10474,77.06913
-581.8628,420.73715,87.423744
-271.24634,269.8023,136.44473
-50.448315,82.12575,139.23375
-203.32114,343.7313,75.338646
-135.87804,650.897,14.586144
-155.50513,801.1275,56.69817
-328.60724,846.06366,404.0671
-488.3904,625.0406,480.35037
-586.3434,789.05975,563.87506
-627.31683,697.0026,376.7451
-676.4722,1075.8556,337.57175
-273.80862,756.6807,251.91383
-326.6274,869.74915,141.44815
-307.46005,952.83997,151.6973
-231.03789,1567.0337,118.657646
-227.94365,926.10187,179.35312
-654.82965,684.9014,-21.104658
-1013.4801,1196.1744,163.86908
-1025.3037,1367.6207,319.92303
-1161.3262,1159.6096,-20.907661
-1062.1774,1506.8943,38.671543
-785.3823,1214.1001,15.295268
-727.8811,959.27246,32.96346
-732.03625,1116.1394,-25.289703
-681.6161,897.80994,-73.98574
-581.061,961.1291,70.25925
-589.92206,770.7738,15.537921
-638.65857,967.00696,226.35043
-613.9772,1018.3737,168.57631
-684.9309,1089.3456,174.89478
-427.76636,965.92,351.60596
-355.36267,923.96985,237.82469
-154.96808,687.1753,370.46024
40.085022,664.7083,299.53693
13.387031,498.55676,440.62128
34.16444,579.1021,331.25357
79.38636,807.47266,206.14055
80.94989,692.6635,329.9204
206.3138,858.8083,242.9819
314.61533,612.92444,277.06537
375.28195,532.43317,239.61726
388.92834,300.81888,110.46387
287.11746,350.84152,236.5676
61.375824,393.33328,125.15736
211.80833,1082.6421,347.5364
288.96872,2650.4036,647.573
296.36664,571.79456,50.936234
-56.08391,1101.9633,-7.993522
-304.57504,1243.2426,156.68526
-391.73148,1053.7993,35.074158
-395.05942,811.81244,181.3144
-136.95703,735.87,264.17258
-172.59521,717.9067,202.54688
-312.31824,626.5114,193.89006
-456.75595,603.4796,135.9833
-549.0864,598.5202,140.99152
-793.7926,653.0765,136.6308
-1110.7283,7.4383497,16.564436
-1799.3805,-132.91704,59.382042
-2271.3716,-184.27109,-199.09618
-2138.5125,342.02768,206.00917
-1309.283,1445.0948,613.6975
-947.62683,917.376,243.07281
-983.0535,788.0638,82.75569
-1080.8728,518.789,64.003914
-1050.1809,693.5509,57.04925
-1086.8687,559.8182,57.18249
-1155.5405,1053.5752,177.38806
-1060.1044,727.14716,95.4179
-760.2123,755.1274,365.92456
-698.1884,582.0378,390.9598
-461.98233,400.7987,412.19748
-248.1576,588.4632,326.0258
76.44353,709.53973,362.43777
-33.962963,876.8173,74.39356
-35.633095,788.1185,192.29967
-70.03889,614.90717,5.2286696
-94.65209,780.78485,63.82907
-150.42204,577.25037,84.0829
-43.286533,725.52936,-4.165576
37.30465,749.5056,307.57404
-20.290518,861.4622,349.38644
94.28117,507.49814,242.05727
-37.37181,610.0755,382.63013
-17.645584,918.38025,434.47128
-264.02176,963.4607,238.49527
-545.8952,980.9324,202.95187
-928.64044,996.88245,158.81674
-1024.6985,753.84546,102.47197
-1185.2582,819.61725,221.46436
-1506.3141,424.39114,149.80339
-1468.6146,449.46207,148.95042
-1174.2863,472.2553,214.82127
-931.5395,362.3567,163.4275
-710.5583,270.287,63.446716
-693.4232,361.3248,79.874664
-771.7454,303.24557,113.89667
-830.61865,304.01093,155.13441
-935.891,328.42285,99.76459
-996.9101,574.6086,173.70135
-1154.7463,650.9884,225.13406
-1268.5255,766.5194,275.4323
-1462.2926,730.80566,306.4918
-1404.6703,794.695,304.48315
-1289.6702,567.74945,230.79442
-1304.6444,910.5011,249.3693
-1366.6888,765.50104,14.217708
-1366.2465,1006.9572,13.683298
-1126.8549,642.06384,-108.340454
-876.817,585.1508,-7.814923
-671.173,414.94647,85.33028
-546.3264,640.63715,131.65047
-457.79388,374.99063,100.87343
-518.62256,970.78156,90.25553
-387.44995,-52.828007,-21.685585
-150.2954,319.80698,67.46259
-572.2961,-777.6968,-240.00467
-415.57855,2638.5886,530.5365
225.96939,1706.9742,540.52094
152.51768,313.6139,329.5668
-351.93143,1387.1426,473.10577
-325.15765,735.3092,157.77493
-207.83765,998.89215,165.47316
-10.606281,718.52185,61.052868
-15.651632,1038.7213,87.046974
-105.99208,698.6906,85.49904
-199.01843,920.2104,175.76648
-96.81209,787.7088,214.84857
-68.238785,959.80676,335.8264
-68.59616,753.55096,413.4122
-171.81639,972.98035,367.7817
-265.5196,969.73376,371.05206
-504.67386,1588.0543,344.78683
-820.5103,2085.8252,224.40276
-760.43713,1792.2706,252.56737
-534.77246,1204.437,220.53867
-344.67484,1334.1516,256.41388
-188.0059,813.7162,247.48549
12.709658,724.3035,223.28238
4.5158553,281.85202,55.067795
58.36609,431.93976,44.003624
102.818115,208.42538,11.95015
103.51428,746.9831,175.23915
20.404318,904.00806,243.497
63.53668,1355.8733,275.71045
135.73972,1145.5471,449.86282
142.86531,880.4076,575.465
18.520218,610.01184,403.16776
-128.99052,657.3431,293.42514
-392.16693,46.429108,297.0153
-455.94507,1041.898,387.94693
-356.13123,2002.0271,480.25113
-50.934895,248.53392,149.21153
-108.90978,922.2788,189.77112
-61.043488,506.86752,76.43557
-86.28057,1027.7244,53.64232
-84.048546,797.101,150.07768
-235.29143,809.757,-46.959698
-493.92587,944.8231,205.7848
-540.0358,923.8743,291.2112
-899.10126,885.0031,298.22327
-1354.0586,799.1205,345.9828
-1347.751,880.41956,255.9402
-1213.3824,436.087,378.2777
-1163.672,558.2271,78.96611
-908.4751,217.39445,139.88916
-787.1776,355.1241,116.388245
-687.5199,183.64476,76.53457
-585.1361,139.99199,32.167835
-642.9304,251.08105,105.11483
-955.353,593.1764,117.059975
-1332.5204,415.59445,125.99503
-1511.8351,295.64392,83.63635
-1628.2617,337.5454,204.6952
-1300.439,279.31485,165.44312
-992.451,796.02625,444.0714
-1488.078,717.8646,280.77576
-1468.4452,626.3569,171.40166
-1314.4414,837.97766,360.0811
-973.5638,650.2582,364.7018
-773.5671,616.11273,427.77155
-563.66046,178.58405,211.7802
-364.87735,343.48907,341.9205
-234.99988,178.68256,409.10538
-54.700966,264.61807,271.68472
119.2227,353.83313,301.63138
304.65994,328.0667,258.60297
261.20193,265.53726,149.37856
239.4502,664.3532,305.00964
125.70952,1055.4487,240.15326
176.1444,2069.5977,564.5213
30.809816,831.6594,336.53073
24.953747,87.206726,-161.09457
-539.9882,607.8895,459.0277
-534.00885,1865.0846,523.30115
-222.09747,291.99866,68.18991
-309.44653,716.1231,236.74846
-91.32339,865.8928,295.3542
-145.62738,630.1694,246.27301
-430.4791,809.093,259.8058
-821.82495,952.87067,226.69954
-1089.2358,847.65063,201.94939
-1355.8375,781.8873,178.75389
-1132.7747,660.47546,319.4122
-1309.2397,439.3139,212.26047
-1301.117,44.645977,123.58358
-1183.7227,172.29077,28.53481
-1058.743,134.14592,50.337803
-947.2596,70.047676,169.68448
-937.49036,349.3248,146.24258
-806.00226,600.4635,192.69069
-633.47534,532.153,289.2783
-737.9217,664.59143,296.1526
-797.6713,481.80682,272.28867
-966.88025,529.9015,207.55632
-1065.1652,869.5252,192.81206
-1108.2773,1066.9884,107.355576
-1100.0349,1373.3619,243.60825
-1120.2529,1207.0623,153.40776
-1322.151,1357.8192,259.65265
-1360.1547,1277.7449,318.0536
-1168.4341,965.49634,354.5554
-893.0967,523.06665,221.00679
-605.224,458.17502,225.45961
-394.37,357.91238,72.378876
-290.18854,306.06284,35.82288
-224.443,193.81993,84.089325
-102.32612,109.365814,61.594578
-98.07915,111.00574,111.82121
-277.84702,489.73154,263.76334
-347.9885,785.02783,380.46347
-401.85864,1111.1344,471.62085
-231.15002,797.3783,374.11658
-445.49026,1205.0812,603.3713
-382.2915,1852.0728,871.85474
-399.5314,330.93243,165.74564
-710.8765,1234.8591,359.18985
-392.23657,844.0858,392.60144
-347.1149,952.1843,285.02612
-274.74066,638.9001,278.0663
-341.89764,834.97186,281.8076
-439.71564,585.8359,378.4968
-627.04297,681.63293,300.77182
-494.33908,557.26355,331.66156
-558.5603,846.6132,299.3158
-655.2315,664.0451,214.0286
-774.56854,999.9774,240.43091
-842.65247,1052.1025,318.30847
-1119.9252,1034.7657,134.07602
-1414.3975,1476.5251,106.3896
-1068.2588,1405.7688,122.3805
-781.092,1183.7047,133.8257
-740.6554,1291.7764,141.88577
-636.26904,914.87213,56.12554
-616.99646,1030.2635,123.79709
-528.10376,540.09515,151.10832
-447.20868,515.44055,121.43877
-409.81165,419.08008,97.82694
-447.07907,816.9682,111.03305
-324.0444,625.0922,55.988655
-350.97406,800.9654,183.26236
-373.93604,185.27103,190.91624
-558.99475,641.2237,294.38373
-592.15125,287.48297,87.006485
-730.5698,1409.8099,494.4986
-759.8741,-437.4932,8.667952
-1355.615,1553.0885,370.09616
-465.51038,2035.2292,722.0094
-280.96167,231.79564,257.68872
-394.74033,1282.9653,272.8011
-222.24347,406.154,170.17833
-342.11426,472.7663,303.13773
-362.58368,421.64517,236.26288
-685.02515,710.27527,182.19058
-868.0854,528.1246,132.98627
-1120.4014,813.38696,156.33997
-1422.8444,844.0027,105.68683
-1643.0851,1100.7477,41.96565
-1365.3663,1418.8883,-121.02911
-924.2197,1343.8533,128.75383
-1047.2502,1191.8953,87.60957
-1142.4404,1220.1803,59.34361
-966.83997,1140.5292,72.417305
-773.15155,1118.6823,110.679756
-648.6387,664.2672,219.60014
-414.57834,174.42006,55.45174
-354.5342,78.04344,-55.551716
-393.95636,266.98056,139.80238
-664.9144,355.967,99.778564
-737.8067,631.1737,232.29002
-707.69543,669.0283,277.6285
-663.0507,428.37845,259.82288
-473.046,1029.3086,441.2546
-504.32553,1289.5062,392.6448
-131.70393,1086.6326,431.80368
-274.12216,889.58856,251.43066
-350.43378,1076.4569,197.96004
-102.07864,803.095,262.32196
-108.86315,762.9575,179.80173
-207.61887,719.7938,239.52321
-241.50972,618.4537,278.4392
-383.6676,685.3878,370.1389
-451.65335,735.1676,307.47577
-599.62103,875.03394,338.86777
-656.5438,838.52814,248.21431
-1043.7749,1419.6993,459.29776
-1449.2316,883.68085,98.56502
-1497.0005,1476.8524,106.9258
-935.9891,1501.6107,351.05038
-787.55817,1229.3636,275.77676
-743.0452,1271.0765,410.56287
-689.4185,1109.651,333.09695
-610.9926,951.8037,159.70995
-432.49377,650.09576,315.49408
-254.02094,124.01326,106.641205
-319.86597,392.41824,45.068245
-273.22574,573.7243,98.136
-270.79782,864.5842,81.7418
-99.63477,809.2894,160.02776
42.37102,836.0907,219.18916
181.65552,413.71848,284.52045
82.34539,698.6966,351.81076
-135.25066,160.00655,327.9704
-413.13907,1766.5648,693.7042
-189.75105,1667.0411,419.36816
-77.90895,246.94162,158.91504
-79.82198,1222.4409,268.72363
-13.021917,722.7852,175.40709
-73.68983,885.04846,105.00735
-127.42243,706.6946,80.15101
-156.06776,867.5648,145.11703
-205.86983,760.36615,125.4056
-252.0854,1087.5012,152.09665
-170.63675,869.7835,168.93582
-470.20953,1279.5575,86.90919
-668.0477,993.9047,218.71588
-959.7834,1021.1554,-27.837603
-1187.5304,1552.7598,-79.724434
-850.0527,1799.7393,154.92154
-461.97467,1519.3601,242.15263
-331.87296,1168.6119,302.4163
-330.6615,951.9348,275.485
-391.40714,958.13654,231.55994
-356.78458,572.59863,104.80374
-384.74655,836.2866,197.53877
-437.36298,568.0126,27.644043
-397.6294,888.6298,70.24033
-311.545,678.08856,214.95389
-258.55255,765.8326,219.09471
-97.99031,271.14734,232.68407
-189.82033,779.9716,335.3886
-457.74747,516.30115,456.4736
-399.36713,-18.519266,-42.152752
-1068.3235,-435.64532,143.7804
-1272.9833,3626.6743,414.72742
94.94748,653.9761,88.98898
-290.64313,349.22256,179.49689
-287.85074,1186.9207,218.0171
-524.3501,350.14078,263.43146
-678.189,766.3569,305.5618
-757.55634,503.90067,299.6655
-937.04095,803.9663,268.31094
-1000.73126,536.79236,273.02063
-1302.0537,1062.6326,343.26242
-1458.2059,436.5839,107.48679
-1421.585,1151.0575,65.96028
-1209.183,1195.218,114.72074
-957.05035,1064.0834,174.40501
-847.02795,1042.0763,147.31839
-708.689,1012.5068,214.559
-755.26074,948.0986,176.97038
-659.0163,864.3903,222.69534
-586.71387,816.8294,319.09137
-546.86646,682.9903,355.39996
-617.36194,339.58588,158.2364
-548.1155,470.3303,178.5774
-497.09518,407.26907,242.77248
-566.6873,597.2163,291.6406
-545.95215,379.31262,331.26804
-582.67163,982.35175,502.7547
-629.811,761.24646,582.5398
-445.3072,36.39375,209.78955
-905.9294,56.81186,-20.824085
-1029.4386,2166.4167,800.83044
-94.99125,694.36163,514.6127
-247.22943,721.3541,216.72751
-172.59705,863.90326,530.0524
-327.9906,638.9585,356.54553
-439.05624,687.9978,442.58975
-600.0526,652.1408,322.99866
-711.3542,948.57733,363.35342
-876.9121,756.2544,282.06552
-1221.1312,1177.637,167.96588
-1416.1547,1569.5457,45.28222
-1091.286,1580.1389,115.18363
-843.08386,1159.1892,221.54651
-865.9569,1153.8901,302.01477
-726.6838,878.76276,275.81012
-539.4026,784.3564,440.13086
-566.63367,772.8241,331.2837
-548.7618,690.28564,333.85812
-397.74295,595.5194,189.60426
-335.37817,800.17615,378.67508
-248.21541,600.0072,226.36057
-136.56233,836.88983,255.41458
-53.163723,797.5256,383.2869
9.84278,715.28174,327.42578
45.46459,413.2788,380.47327
-234.25592,556.90027,447.53165
-420.3566,500.35257,504.85922
-522.13074,709.2623,417.02777
-317.23416,923.9111,290.22092
-253.59245,815.66565,405.092
-75.02082,534.6541,32.606243
-15.832864,1235.8438,129.03163
26.752129,1223.1765,653.40247
388.59964,791.619,377.96173
342.54813,894.96173,408.21564
127.382256,835.60925,460.20956
-266.08557,734.74493,242.68944
-550.1566,915.6064,377.86792
-1089.152,978.2315,290.54102
-1356.3534,704.17114,294.55435
-1195.5948,645.7341,334.76785
-869.13654,420.87585,286.44272
-856.51245,650.73486,-22.647272
-1122.0234,252.14603,133.45795
-841.2717,717.3313,197.77547
-504.59073,623.2015,87.9435
-555.0307,690.57886,152.74146
-697.13934,515.2012,168.74698
-1418.473,682.7833,90.20952
-1729.2875,629.6766,186.9796
-1874.9021,974.20764,439.1874
-1431.4806,1003.82104,563.8252
-1264.9661,1179.3516,677.68896
-1543.9851,722.46674,523.29407
-1106.1654,426.63785,375.80002
-714.79346,150.2214,287.9416
-413.5079,134.3862,200.55249
-332.54318,-111.176994,54.809666
-122.7686,-89.07317,75.35974
-101.44465,-69.2088,56.104076
-162.2385,227.45135,158.14774
-154.10768,544.6146,265.91568
0.6173048,1657.8245,615.26624
-34.04615,130.2952,292.64703
88.47768,298.97687,-14.253116
-831.49414,427.45483,435.5914
-965.69836,3297.7505,1114.6449
-434.6167,411.98047,-101.6649
-743.2366,986.2589,408.7107
-548.74713,742.5106,268.49805
-481.69672,526.8958,236.96947
-426.11496,731.5128,286.18356
-346.9674,455.08508,162.8819
-494.1142,571.5634,176.04292
-858.7694,600.73126,273.82455
-1280.8833,384.2897,179.90704
-1592.9984,93.50239,121.2409
-1653.5482,-188.40598,155.66936
-1792.8976,25.369106,310.09406
-1040.4402,560.0406,435.5252
-1041.0573,510.37735,426.84927
-1069.262,745.2623,193.77946
-1105.0963,449.38593,191.47739
-957.7425,472.78806,99.79425
-901.23444,758.5017,249.49265
-863.0873,832.02606,206.64131
-848.2723,565.9423,229.03331
-682.3828,718.9535,488.38724
-632.82227,397.2381,421.50992
-351.7873,521.96265,417.40482
-252.80652,660.95526,527.24176
71.45041,641.9367,406.2175
204.05537,675.4886,473.3739
113.89224,639.0644,290.34253
81.0554,417.105,43.4935
-300.37817,401.8979,204.6381
-524.5316,658.7381,416.58197
-501.00967,686.1076,307.27805
-284.835,936.8531,420.0954
-395.95236,539.01636,397.6454
-261.07663,712.70215,563.04236
-308.58273,392.02863,438.69107
-486.25137,506.70532,394.96075
-841.32715,559.3586,370.3804
-1113.0138,752.3798,451.83344
-1418.0696,598.6363,377.18643
-1439.5454,275.12537,79.33009
-1529.1759,171.64075,354.9684
-1419.9811,-221.63367,-181.55002
-1409.1323,-302.86334,-229.67848
-1300.6233,-26.068554,54.571625
-1122.1215,-328.77795,494.2253
-798.97595,492.69708,448.40323
-579.20496,258.0389,371.12497
-659.2606,-131.23813,167.23979
-817.83466,385.44882,453.55872
-912.6469,434.7547,653.7883
-954.78064,426.5397,673.58624
-1110.8962,413.84064,279.518
-1405.7518,1148.9731,203.39095
-1528.5786,1000.34454,410.4335
-1548.8164,975.3984,-58.455524
-1643.4448,1115.0638,76.25157
-1423.7635,694.6502,-106.97143
-1041.1641,517.4908,-27.031425
-515.5071,304.26437,39.540318
-289.57178,204.31908,92.77967
-329.19183,131.57536,-9.7209015
-399.33328,277.39462,-5.5679235
-443.70316,295.25287,60.310287
-545.3333,474.1775,166.75977
-702.248,60.292732,76.66532
-690.64386,877.7734,241.46254
-622.05023,1393.2758,669.13257
-615.15405,919.9963,260.66086
-690.34735,1016.6254,394.2463
-975.31226,1055.6721,360.16153
-986.87463,816.51025,216.73323
-965.4316,668.18115,162.54512
-699.3556,537.46936,262.63467
-607.9217,667.8967,360.50235
-455.51724,547.866,405.38983
-589.9082,329.38107,439.09366
-555.68146,568.79456,369.76413
-796.22455,450.1563,268.00543
-904.67456,217.79997,165.49387
-1349.6779,448.67612,261.86343
-1356.5651,-4.8033915,178.22311
-1724.3676,375.12698,215.12086
-1445.3009,863.6173,315.6712
-1226.1394,588.4943,480.54892
-1233.282,619.25916,397.91745
-1276.4432,641.08386,338.8643
-1288.5848,805.4024,312.52304
-1125.0817,869.9186,57.346268
-937.7781,763.8676,-156.34117
-654.158,796.9783,1.0334413
-461.51474,248.0678,-50.478024
-278.22156,35.636753,347.55853
-174.10635,-124.52602,-43.814728
-444.13556,302.97073,29.705189
-597.4519,-32.83676,11.486866
-992.5707,924.37054,167.56325
-451.75797,1321.1232,467.27264
-516.2766,1089.0691,474.09097
-784.3239,1035.4482,245.34714
-882.26855,878.01953,390.01495
-724.7524,634.33307,353.82068
-619.8423,521.9352,252.89062
-529.159,648.8604,216.27438
-576.08923,568.14307,219.1334
-579.1007,523.43634,234.99046
-682.4163,484.5737,314.22803
-682.2225,532.85626,273.91803
-861.1675,428.36356,283.64185
-970.86053,609.03015,255.66945
-1250.2891,495.3849,2.2286034
-1445.2982,1042.4976,237.4459
-1761.8872,1090.1774,141.01385
-1392.4342,916.17206,92.65046
-1310.2328,1102.956,460.68063
-1366.1753,789.2882,232.27405
-1190.5941,793.9957,417.67813
-995.4979,565.3989,147.99263
-876.4774,498.55743,244.55475
-537.4052,223.97333,133.71599
-591.4525,208.19302,124.593864
-424.96378,119.13695,-96.09294
-684.9329,169.58975,21.093277
-490.23032,304.44815,-161.0433
-747.85986,297.36328,299.3502
-722.84247,-550.0217,-467.83658
-1514.3182,-116.19624,210.34927
-1721.5424,3018.532,1304.7603
-483.39188,1020.6476,338.20197
-1328.9364,327.71085,460.51697
-717.9334,446.87943,344.72797
-765.25586,276.10022,412.47812
-469.45667,513.36865,263.62592
-721.4857,309.7826,390.42865
-605.67773,204.75497,247.46472
-844.7977,118.803215,202.76953
-808.7371,-31.21102,109.79265
-1395.3988,-79.30821,289.24945
-1471.7445,514.847,162.52934
-1516.3633,437.80734,277.57245
-1372.3231,687.982,567.435
-1320.8134,736.624,335.57068
-1358.5339,700.9227,446.16602
-1220.395,911.3271,283.03705
-1325.8491,1021.1894,253.03905
-1213.664,718.65546,14.140995
-1108.7196,689.2758,31.769293
-904.17865,393.55753,116.94068
-785.7658,434.76703,204.68964
-757.8573,176.51309,56.34184
-537.53564,379.80734,204.85887
-544.01526,325.63245,139.21257
-370.63223,415.21094,179.35425
-385.58133,221.46342,188.17781
-279.30902,261.972,179.34584
-605.17084,95.56655,142.99495
-924.4075,1854.8606,942.16003
-782.1037,960.37177,446.75778
-888.91077,685.31055,420.6445
-422.88147,1017.42334,631.7444
-316.54544,614.0773,362.2814
-404.8143,616.52167,240.37943
-510.45578,590.80035,128.84044
-518.6582,658.4398,201.01857
-559.9848,625.755,223.2025
-636.52136,537.4656,225.5019
-952.52563,753.20325,340.13483
-1116.5604,383.23184,247.57127
-1263.6296,986.59235,15.169899
-1640.665,1683.7361,272.76138
-1327.4243,1203.3383,158.24666
-1105.8474,1501.2721,278.76315
-1283.5747,1225.9553,383.9109
-1176.9034,1143.5928,119.4101
-844.3081,582.7927,135.51881
-751.28436,600.42413,120.884476
-768.70593,-67.52387,-109.54803
-544.0264,49.04442,-74.756676
-422.76685,195.42696,102.10961
-346.52527,148.05263,-95.727165
-431.4316,400.59488,132.7162
-440.1862,662.9201,438.47372
-665.9676,-82.57664,-182.94298
-933.5507,-425.52353,-17.700233
-2346.4082,-120.8813,311.6053
-2274.516,3175.6619,766.8614
-1210.8242,-380.64413,231.96806
-1853.2932,1158.5026,314.51212
-1076.7391,839.04736,456.34677
-875.8167,392.2796,200.01285
-688.8343,816.4541,177.8046
-704.51276,423.34,196.93387
-640.85614,561.31775,242.75737
-728.84265,448.06598,180.50389
-842.85736,589.28534,150.52216
-1106.5334,546.594,199.16228
-1279.7826,785.70764,303.7518
-1597.4484,695.87085,409.08307
-1883.1681,609.30835,264.83127
-1942.7203,444.90775,416.06677
-1806.0073,832.10077,369.14343
-1610.2446,688.9163,310.5277
-977.91974,368.15112,284.50864
-676.3219,417.4182,297.17535
-631.2944,140.58125,88.20605
-436.25403,35.03714,43.292145
-322.39465,232.9919,-26.5542
-362.8114,58.88618,-7.088505
-466.52985,422.90277,128.84013
-464.31323,575.9238,266.0834
-368.20316,624.11145,529.92645
-486.8639,1337.5463,880.1822
-254.82114,860.9198,436.73932
-312.82422,1082.0481,677.1981
-272.0903,1295.9209,493.48962
-383.06427,886.1927,274.712
-328.21887,766.259,211.8181
-343.481,711.3642,105.61476
-209.3751,778.6952,192.98564
-255.35568,669.4878,286.5419
-356.82205,657.9604,298.49963
-460.99765,594.4303,406.6964
-520.8979,744.8657,507.9695
-696.30597,701.30914,506.3517
-751.794,873.76,533.4028
-988.00256,709.953,339.58585
-1474.1876,1518.0372,222.46144
-1292.7905,1869.1473,238.34903
-760.1757,1505.0803,286.3644
-728.91125,1278.8589,114.17679
-710.4465,1282.7207,129.61186
-577.91144,800.2799,-77.881294
-494.12503,789.32275,-2.2866316
-561.66327,229.81963,-102.57961
-488.8429,557.54346,-113.84384
-411.40012,207.6522,40.67341
-338.23456,601.32385,-41.73186
-391.17838,402.3528,25.774218
-366.24228,780.85504,216.4031
-394.3889,547.4433,80.7994
-518.62103,886.7729,91.07905
-837.3751,-879.8692,148.45554
-1275.1598,2735.055,265.07843
-551.81757,2174.8398,333.1661
-601.3757,-271.9116,23.505608
-528.0937,1741.9711,339.83072
-280.9491,215.27362,127.375206
-496.22214,902.93353,182.63608
-326.7149,451.7048,136.60445
-546.21954,891.4689,189.05692
-606.2494,318.9087,184.07921
-1005.2181,853.35126,276.88757
-1069.121,289.17035,104.00224
-1487.7241,297.47318,242.10349
-1842.2112,1067.0739,241.89525
-1540.3392,867.0679,172.49554
-1202.3224,915.46497,414.25238
-1071.0199,959.1885,423.9923
-1036.4569,756.6463,389.95825
-918.65643,816.2337,224.81523
-778.5715,573.6333,222.68443
-649.7161,605.832,148.5532
-607.80005,372.3946,170.63295
-587.0521,378.288,72.48441
-465.55994,366.09705,70.791016
-473.4247,549.6096,230.64906
-282.9514,547.9115,231.96942
-308.6089,641.12573,418.9902
-282.19412,90.647064,111.34465
-639.42236,595.7412,177.29524
-761.67377,1729.9214,1188.3033
-460.10767,822.07935,449.5922
-581.09766,716.2013,344.82114
-227.49744,892.7493,523.40326
-330.2779,562.68384,249.31648
-264.66928,834.8314,273.05676
-381.4415,570.5504,192.86903
-474.58255,803.96155,230.79942
-625.41785,515.7257,245.25266
-609.5511,713.7241,298.86722
-868.3045,604.2309,323.39218
-1121.4656,820.23254,261.19675
-1312.9463,629.22205,215.45044
-1492.916,1255.3016,401.71045
-1263.6262,1398.364,395.06693
-1006.1475,1233.7792,352.70932
-950.5895,1249.2461,362.45905
-854.2222,1164.5697,263.0036
-633.0887,722.6808,171.19286
-505.36133,758.12823,191.89395
-559.4336,415.73328,0.04075584
-520.7545,634.6731,124.04542
-576.904,648.07477,113.193855
-440.92133,765.0009,195.43341
-264.76813,420.0309,148.3073
-146.8687,407.91986,151.98941
-252.13542,145.20485,285.36795
-470.39005,634.89386,263.83548
-487.73044,495.5998,254.09753
-395.60275,1843.1755,815.0695
-372.93777,1095.8749,336.42267
-437.21692,669.9436,328.08258
-484.73508,897.1262,327.1885
-258.40533,878.96906,211.07257
-144.3648,890.80566,277.09164
-147.06624,690.77435,145.64023
-329.04193,744.66425,234.92348
-422.4813,668.66156,229.49007
-483.22562,736.7017,317.98392
-498.08173,801.50073,272.2177
-799.4525,1136.833,358.95044
-979.69525,1014.849,260.1208
-1324.6088,1196.7115,371.76965
-1458.121,851.2569,484.74988
-1223.1349,900.30145,186.10571
-973.3287,1530.1433,428.7811
-786.9513,1009.3944,262.11536
-800.00653,883.68823,234.16602
-542.4244,698.3844,340.2505
-347.46255,551.2335,294.57883
-342.62518,530.4441,277.69614
-303.9229,441.38577,74.43728
-352.12704,444.0641,36.003338
-330.3112,671.71277,57.22142
-378.62097,685.93286,75.39641
-109.06499,815.21765,262.72873
-179.76591,543.802,436.66223
153.28598,-159.99046,-90.960785
-881.8176,-174.90071,178.69063
-1134.651,3428.8425,1100.7561
-408.88242,384.3872,11.815698
-802.9788,713.85486,378.46674
-435.74005,760.36316,271.73007
-534.3445,516.4169,400.77026
-435.4471,720.3271,332.6082
-500.10638,451.61768,326.84964
-581.39496,735.42126,322.60434
-760.58453,719.6016,311.23386
-757.64886,860.6412,191.036
-901.8253,809.88043,261.88147
-908.36194,581.3867,147.49213
-1089.9607,778.9961,184.6712
-1125.5729,1725.0062,307.39423
-935.56067,1290.4491,161.02597
-956.26843,1291.1589,340.08188
-1057.7168,996.3518,480.57486
-1041.4479,846.2403,497.4685
-802.9655,622.4846,319.92746
-708.59216,603.3779,286.20288
-654.6639,447.73782,206.07986
-632.8546,546.5699,218.10126
-577.65985,421.1022,134.19043
-516.5218,622.6933,208.77791
-448.0366,413.45563,254.0375
-367.21072,535.12256,248.36037
-181.83374,324.7189,306.90637
-53.719315,839.10913,629.24304
-101.6813,-4.146075,274.32062
-448.66418,152.3662,-10.921143
-1393.6335,-431.0986,146.3392
-2150.56,1682.9711,896.02655
-865.91693,1575.7383,547.5244
-673.1305,199.78316,334.40808
-703.9461,896.1378,403.37735
-787.4235,520.9238,297.479
-807.473,474.8127,128.77367
-850.4271,362.69345,114.342865
-926.5913,504.3183,276.16025
-1074.5803,415.2103,236.386
-1325.7698,672.89496,365.952
-1365.0464,641.26886,355.01755
-1353.4077,907.4668,501.00058
-1225.9324,688.2963,382.68173
-1339.965,755.27344,399.3853
-1401.3048,643.4125,331.43768
-1494.3706,607.8412,310.9719
-1247.0173,483.79694,248.00919
-1080.4458,515.0925,173.9523
-704.3722,415.8486,239.65471
-647.19257,352.55115,261.41122
-448.30664,106.1852,7.1577272
-485.95346,533.75165,278.92258
-271.7355,440.4204,285.88055
-188.21155,607.7739,447.92996
-119.072784,408.9831,373.4957
-101.66733,577.57635,505.6041
-194.218,85.176125,184.10213
-451.38696,852.4123,395.63937
-767.3395,988.41876,839.0942
-640.5265,1351.6123,640.9375
-445.3024,735.20044,515.8006
-445.8783,647.02454,474.19608
-422.82428,664.19617,363.74475
-374.9845,559.5931,290.26187
-427.60794,644.49255,285.56195
-470.658,721.4919,297.66125
-407.64862,728.20593,376.19162
-483.41074,856.77356,377.02896
-575.8753,783.9541,291.1216
-741.195,834.48914,297.51648
-1232.5958,1294.0388,559.7602
-1484.4279,1692.0559,553.6659
-1084.3668,1374.7937,701.8848
-811.38885,1093.2163,718.58374
-806.3875,926.8473,588.26587
-804.0229,874.2448,364.9506
-725.62494,759.1155,292.16003
-649.8475,600.2798,175.5449
-466.3692,581.16876,248.2387
-368.01263,481.63077,154.7527
-180.91702,514.63965,95.78967
-98.545685,439.89706,190.00798
-3.6430187,385.93875,62.576912
-82.86304,396.21384,99.1452
-414.7021,603.9806,389.03467
-351.23007,752.6007,325.4925
-520.66144,895.478,644.24536
-359.5804,1004.53455,391.34293
-213.69476,1298.8077,599.38934
-601.15454,-159.29062,171.0911
-640.90704,2041.5153,905.45996
-282.95084,535.4158,297.1384
-271.6259,819.9292,325.9254
-153.19304,813.88635,394.77737
-302.06857,625.13477,333.4196
-521.2094,623.804,368.7377
-609.3991,589.2635,382.67593
-713.68365,689.19934,413.91626
-803.263,752.35693,484.83517
-938.6575,729.4113,344.70352
-1216.1395,746.4687,323.86594
-1570.3711,1142.2192,560.7993
-1259.1395,1244.2025,576.6374
-895.20953,1019.1305,542.49
-807.76996,951.3712,554.4039
-796.77795,721.1275,344.18005
-702.0207,729.08636,354.00452
-632.6203,570.736,181.75607
-528.34924,675.55536,296.39093
-460.56277,577.62604,198.48479
-348.62207,562.4689,153.73819
-414.28766,560.6958,137.55458
-521.50336,667.18134,173.60628
-510.79523,750.529,265.96313
-390.11993,821.08734,401.56998
-377.59628,643.82385,359.83426
-271.25473,680.86487,416.23718
-302.29517,371.94012,235.60977
-591.81586,714.94196,673.17505
-801.808,-131.12646,-60.24848
-1277.5604,1150.9209,642.46387
-370.62045,1112.053,827.14886
-275.80246,352.73306,217.41972
-343.64737,961.72217,596.6979
-330.25357,544.34247,279.81522
-493.73468,690.22504,390.62964
-527.46106,509.15637,276.142
-833.0187,983.1294,469.0507
-1137.9158,641.53827,274.8626
-1254.2903,582.66956,189.82466
-1438.2812,1002.85547,395.7664
-1550.0521,819.9917,358.0449
-1223.625,1301.0989,375.5794
-1152.0226,1254.7878,424.18875
-1106.5636,992.1326,382.25565
-849.2517,724.7807,284.56818
-585.85944,819.8771,335.2073
-596.011,460.97302,137.61073
-420.2543,313.3155,98.320496
-332.44727,154.44977,16.786728
-355.0919,508.49487,134.65048
-356.1337,366.69327,108.34404
-209.77939,520.93243,279.75497
-394.12582,279.063,96.405045
-360.50858,729.8636,311.75046
-701.5999,379.49677,184.82019
-555.6447,1930.4843,332.17728
-331.83722,1624.0311,510.63464
-603.0745,380.65585,279.08047
-482.6107,1118.7717,542.70746
-318.66278,523.6816,356.91083
-263.9733,1012.3443,452.91806
-219.98582,553.1769,277.86972
-331.03,850.046,410.105
-407.20386,621.9307,316.67462
-483.45395,937.1731,366.1647
-713.546,788.77075,185.0139
-886.7828,884.2301,210.34903
-1034.3307,970.26764,183.06754
-1131.2393,1928.3657,348.59323
-968.0442,1678.3573,250.9794
-803.0502,1470.1492,320.42825
-769.3003,1218.7104,362.0303
-602.6257,1048.9261,360.03653
-547.9538,759.11816,253.03838
-492.5983,677.32916,193.02818
-527.0418,424.99802,-8.703195
-398.9965,478.47592,112.645676
-351.16718,376.04202,38.714375
-207.73897,460.79306,109.91037
-266.04102,556.283,109.33955
-120.220825,686.5908,155.9063
-254.30101,513.69165,199.59285
-58.538437,753.23193,135.84871
-203.32198,1658.343,763.9306
-243.73647,1148.7689,244.92346
-309.02487,529.71466,228.84044
-478.20825,1216.878,513.0684
-301.95877,691.1482,253.15573
-309.14963,893.16144,232.12569
-221.87315,746.8177,118.19771
-314.57877,880.06714,119.21866
-421.1749,661.7742,107.813866
-445.5924,767.61847,121.66243
-515.3383,721.076,93.7587
-613.0733,1012.2691,173.04823
-781.14825,893.3045,207.7806
-1235.6342,1447.556,393.7832
-1456.3611,214.54008,521.7276
-1492.2526,1238.7147,357.32364
-1009.8554,1452.7904,298.76257
-632.88965,963.1189,261.70737
-604.4394,1150.8354,-2.5396965
-549.635,893.27075,32.403816
-503.12927,681.80536,-38.169323
-484.17834,494.08737,9.167109
-594.4568,700.82166,24.360598
-634.0533,708.083,-28.952562
-707.5016,824.70844,-82.69349
-546.04376,634.9865,82.968895
-518.5676,420.00916,-41.928925
-260.4433,433.8122,106.21165
-518.43756,245.53232,369.67288
-724.8909,-49.990837,-20.097616
-1178.4458,1837.8115,405.6538
-641.93286,1368.5951,596.3145
-412.5119,291.68652,215.69234
-639.4535,786.23596,243.08545
-438.6596,565.952,234.671
-503.33908,565.69086,226.69383
-445.1263,546.12646,247.94885
-542.68567,704.38086,213.52101
-957.8802,813.68097,290.38773
-1359.7039,543.75696,199.93553
-1540.0472,828.5372,264.78525
-1584.8645,1441.2988,490.5182
-1261.8718,1048.7329,352.61847
-1344.508,869.83453,563.4635
-1127.1102,705.91425,546.134
-1078.2012,822.94794,431.05295
-884.9513,671.22473,367.81573
-729.4563,470.0305,216.28664
-514.4634,534.7422,204.95047
-412.99023,352.99472,177.93349
-298.13898,433.32797,180.98506
-245.52785,493.343,131.62709
-161.41621,525.5444,185.16483
-138.78331,535.9133,206.61755
44.318108,586.2321,152.96898
-18.823654,681.2157,302.5773
214.85275,756.4739,443.48877
160.57202,830.2101,346.20468
-23.407501,740.95544,669.36615
-50.036884,223.98631,196.47864
-236.77905,1086.4272,589.8081
-150.84769,2181.1274,1144.437
34.93026,286.8471,41.217144
-184.90541,575.157,280.78845
-111.35023,744.127,303.30872
-187.11864,879.9106,436.00906
-184.46043,719.54816,275.29465
-355.27042,921.8067,399.19006
-420.19327,938.6552,326.5055
-651.8296,1132.9298,493.26514
-1135.849,1419.9425,442.04718
-1587.7742,1032.2124,110.597984
-1230.3198,940.3955,337.35266
-729.7061,1488.9043,471.4394
-418.79895,598.4446,340.3934
-459.0074,994.90576,353.30566
-344.14093,830.27716,254.96504
-362.43616,782.2057,278.70322
-179.95851,632.1016,225.96548
-296.8126,703.79175,332.08328
-271.93967,561.7025,239.16438
-401.7971,724.6225,189.56633
-294.91483,685.2924,197.81096
-368.4574,875.6125,319.37875
-98.38684,393.57785,177.94098
-101.15542,613.7305,452.21982
-380.20148,-101.992584,215.48012
-1133.2943,491.35367,272.8202
-726.8044,2595.281,1084.079
-200.96223,109.82398,226.49376
-443.97147,746.146,303.1216
-347.31735,829.4765,407.0821
-441.07495,652.0697,307.47192
-574.42267,656.0292,362.62268
-530.15247,718.03784,312.58743
-747.3913,791.55475,293.25317
-1108.5626,326.36996,277.74387
-1411.748,426.8156,313.77042
-1222.6761,1496.1108,599.93866
-1193.4099,1065.8374,555.1394
-1249.9972,1071.2936,605.8323
-1155.1311,762.2228,574.12036
-869.50024,819.60034,526.54193
-887.5563,676.87866,490.4708
-712.6536,727.05493,422.70032
-694.6743,605.2106,407.55154
-474.49765,557.5031,278.4421
-464.85425,330.5627,342.3973
-165.80696,169.57332,41.011642
-250.837,513.28955,96.090675
-165.97665,641.16376,186.55708
-214.62459,492.21106,304.4337
-41.57021,849.71106,286.22617
-74.03759,556.55316,272.84177
202.04645,852.1858,294.40292
-757.6963,368.72394,320.58347
-1152.2979,2092.3938,1195.0739
78.129684,833.8546,141.61913
-323.73248,289.80878,315.13815
-93.33556,1192.3846,569.39026
-188.4537,588.42664,266.08484
-180.44304,793.8902,339.85526
-324.8614,562.9538,260.05362
-321.9144,796.61774,325.4073
-448.61877,766.1529,291.84555
-579.9433,935.6062,345.04193
-804.12854,1137.5498,431.5541
-1216.3818,1620.5862,590.3224
-1268.7102,860.72644,84.87907
-1507.2094,496.7308,151.73645
-1228.0315,1252.0375,234.08005
-776.5088,1235.5944,263.06754
-605.04724,621.3646,79.42725
-545.8524,1059.4014,172.25768
-617.12,540.97296,229.66739
-351.72797,394.51685,259.02957
-376.17834,675.33484,358.72018
-410.81735,605.7366,252.85832
-436.84637,614.78064,101.135544
-376.68784,746.5105,148.41328
-264.4737,698.5191,161.38919
-215.70955,479.67865,260.95908
-248.73376,183.37247,291.5502
-550.2619,-65.26879,-122.82055
-889.6374,1969.7644,729.72876
-452.54785,1479.9225,313.32306
-498.59286,427.60965,73.551506
-434.72626,1071.5005,239.41713
-497.97098,467.29434,182.9541
-538.10785,829.47815,304.3935
-576.87506,450.06433,315.33075
-550.14764,840.6035,463.03894
-716.73944,495.75742,271.54047
-962.36237,644.9478,-103.394615
-1121.2184,1254.2803,-46.872375
-953.2266,1477.4019,-14.259186
-871.959,1293.26,-158.03514
-808.14124,1544.4731,-67.17977
-884.7836,1395.2238,-188.7293
-888.0155,1311.6853,-45.955807
-756.28564,944.05493,19.181559
-548.25226,804.4471,89.16535
-500.71036,470.62555,55.306755
-500.82526,506.26227,114.06387
-468.27808,387.42346,90.73134
-247.29846,397.59808,57.795578
-305.47415,394.97025,39.678352
-501.68945,629.0647,23.237675
-605.33246,598.04987,310.22134
-677.0924,271.94116,-85.57352
-775.27075,538.4478,15.101545
-665.35,2073.6348,596.31836
-454.8186,1012.94104,393.2562
-697.5168,983.5075,368.10748
-711.61896,827.413,227.65536
-569.0553,683.39825,227.06917
-444.03192,643.9322,109.91207
-324.70532,784.15607,42.31363
-334.1027,673.52655,108.514465
-460.0952,744.44965,194.75809
-515.2404,701.7207,156.74138
-705.7193,912.59595,293.8275
-974.4342,674.8898,205.95692
-1098.8438,714.6229,17.850847
-1170.1881,1352.739,229.50784
-977.5937,1363.392,220.26146
-984.55743,1199.6802,179.93733
-916.4707,1348.7057,235.40729
-1024.0896,1052.8389,227.61725
-873.7508,959.57324,266.1353
-593.37396,674.58875,300.5367
-416.83533,735.9872,254.79811
-412.63208,446.2797,206.99309
-335.23044,431.30737,110.852486
-371.5249,274.18277,78.149734
-296.00842,486.44415,71.76924
-222.94838,292.0087,13.282408
-330.30353,300.42676,59.958305
-842.43427,266.65823,-82.760605
-948.70026,1744.5508,362.6691
-354.20157,1416.9093,631.48517
-550.673,963.64374,296.48557
-575.9664,982.0265,321.5563
-565.30347,669.6018,270.75275
-443.9826,734.49005,171.58566
-391.11633,753.0514,70.61814
-359.0686,696.4486,119.742836
-499.35626,762.0771,182.62863
-508.77274,603.2606,227.5502
-611.36487,795.023,240.34969
-701.7693,631.8313,273.0898
-1010.9824,813.72144,259.9276
-1185.2533,694.8555,382.50793
-1174.4916,1317.5122,416.92084
-1125.7925,1393.4531,348.91653
-1149.0525,1168.1041,307.19214
-1014.1346,1134.3032,219.52287
-943.4774,956.2391,185.0237
-910.41974,884.2188,73.35236
-775.8974,561.1017,60.87976
-517.49963,435.09164,180.20667
-465.55322,373.6227,183.33047
-441.65213,157.39345,159.967
-421.38336,259.19974,31.104204
-368.19324,449.83652,187.21188
-535.42474,408.73428,183.02997
-347.64478,13.233626,-44.680622
-989.3804,561.9396,118.94103
-726.1969,2181.2336,751.23035
-442.19818,781.39215,403.6298
-770.4321,1029.8566,446.21042
-702.5589,671.417,413.89978
-645.7106,580.807,333.04626
-487.06042,717.24414,264.97366
-397.36493,661.79236,177.42546
-487.62122,632.27844,215.13104
-583.6177,489.95654,194.73239
-642.43066,545.98035,240.69781
-673.8097,438.63513,306.3009
-935.0978,551.247,382.6443
-1222.701,460.5582,389.74915
-1276.7043,263.4014,289.74527
-1589.9684,720.52783,548.77783
-1440.7235,1076.9689,378.01077
-1272.6061,905.3533,363.66718
-1099.5443,896.1955,386.44812
-1104.967,767.0751,371.8431
-995.82874,637.8703,358.36392
-801.8342,388.7166,302.96698
-645.90656,470.09332,347.3653
-566.3926,361.3423,326.38205
-474.47598,246.01175,208.94891
-356.2506,258.21848,142.79884
-372.5633,265.33868,179.8961
-375.8736,380.08466,53.74885
-432.37634,296.4255,39.068623
-614.4912,197.76108,172.91742
-850.7856,1552.7911,985.532
-548.7258,1242.0231,631.17694
-877.8242,613.4955,440.99725
-875.59784,744.1733,487.93927
-730.5871,557.84784,349.789
-612.4226,594.38074,348.70145
