# PAMAP2 dataset (wrist-mounted sensor)

acc_x[mg],acc_y[mg],acc_z[mg]
-624.71124,986.81445,274.79944
-741.07214,820.07404,255.20741
-657.5927,743.21344,217.03612
-631.6603,741.7602,146.62086
-545.2045,754.3402,115.076485
-472.5977,902.7121,98.80076
-483.2633,1005.48395,88.32223
-428.77142,902.8014,86.220825
-413.60968,887.2217,49.44689
-403.3797,966.9472,23.605627
-342.2455,1006.69617,10.316128
-347.32883,1026.8812,50.524536
-358.25406,1039.4205,40.891792
-379.29724,1122.1987,80.72476
-416.36288,1099.8525,101.33057
-422.21954,969.65765,123.63536
-439.0926,920.5856,156.24649
-490.75818,868.7384,211.23808
-533.6558,822.47516,215.16812
-565.22064,766.4328,251.24168
-564.31915,716.0015,254.1265
-643.2638,666.33984,281.7395
-770.18414,586.9537,289.22525
-1126.0186,483.10217,273.24704
-1469.3273,415.3564,214.16458
-1556.6708,472.38116,194.59416
-1732.1055,415.5772,241.51582
-1256.4852,226.91325,246.35878
-950.51196,-101.28835,180.46086
-1007.29675,-43.3352,212.41444
-900.74286,169.65875,296.93387
-721.7656,378.4394,282.59433
-534.06085,488.52554,302.4137
-330.65775,437.44827,276.0959
-325.9798,453.2961,239.49884
-359.02692,460.25577,203.98749
-560.94434,498.24066,244.55917
-778.26434,613.71344,335.39612
-1191.2152,560.15186,383.9206
-1411.226,521.84393,421.54333
-1878.4077,594.7798,429.68228
-2023.1019,700.04346,390.86127
-1844.6278,608.2581,322.724
-1700.5266,502.9738,274.5338
-1451.7678,464.90918,154.3617
-1104.2524,377.4414,58.283028
-771.1777,280.66748,21.969616
-532.0759,180.1915,-23.858517
-368.93085,156.73724,-38.379192
-328.1504,211.03046,-33.66767
-319.7976,241.94608,-50.417145
-390.2315,411.2054,-10.339416
-536.6808,586.9195,120.28969
-816.1851,751.9026,332.77924
-1098.1948,517.5135,329.5103
-1225.0088,352.97293,348.80118
-1500.2861,350.11893,471.2062
-1689.1383,430.3678,457.6758
-1583.3085,551.3419,427.90073
-1327.4312,592.2138,419.00598
-1048.5714,624.33453,325.50644
-878.29596,548.13043,232.52852
-747.19885,498.57672,205.0726
-623.4791,475.3516,115.26426
-510.22104,675.7474,126.61869
-550.8094,756.07227,212.3523
-704.8176,785.50836,307.42615
-1161.7552,831.45166,350.1154
-1604.4642,833.2519,446.36386
-1554.6399,529.8844,425.8664
-1593.9194,529.8594,378.27298
-1803.328,479.24973,317.54065
-1689.2891,343.9893,255.00317
-1417.1027,328.9855,205.05185
-1028.906,273.0919,98.25418
-777.3875,276.9914,35.866657
-649.4054,272.27472,-18.043432
-550.8602,215.03323,-41.11917
-542.0733,237.58829,-34.57085
-579.0983,333.73575,-6.123427
-597.4848,358.84708,74.958626
-793.5071,576.7759,252.123
-1034.1138,677.1437,376.4961
-1177.8237,415.32388,399.78918
-1375.8439,328.31232,475.10272
-1617.3945,217.49185,513.702
-1679.4908,426.95068,537.293
-1441.8643,628.3539,504.36777
-1097.9835,615.6545,361.41788
-944.19836,437.63077,302.97906
-812.7135,410.74887,193.70564
-745.475,523.7611,166.34279
-680.04816,684.3152,149.14864
-647.9739,740.7651,220.46617
-715.0462,745.13336,331.64725
-1076.4316,693.6246,409.37134
-1349.6401,709.2379,445.1772
-1452.1749,593.95636,401.12164
-1477.0605,535.93256,328.63986
-1753.9729,485.40533,283.3395
-1699.7959,294.31036,278.48547
-1312.6532,306.14725,204.78387
-1088.5004,338.72964,124.62079
-888.6622,370.70932,65.25518
-774.8289,295.79538,13.667319
-658.07056,195.81628,-48.753788
-700.8848,229.50749,-14.153314
-704.15906,310.88852,14.382514
-768.7251,438.81512,106.427
-902.8101,497.82333,198.36917
-1077.843,495.2904,305.4979
-1129.7662,392.56802,424.1147
-1223.2504,263.57156,488.50467
-1467.0382,227.60776,458.34918
-1572.046,325.992,512.5618
-1473.9015,450.48904,494.50156
-1280.3031,595.55914,468.67722
-1053.3116,429.532,302.66672
-881.37976,562.1808,210.38113
-793.30695,607.45465,243.71364
-671.82056,557.7041,90.59633
-601.5448,691.36,144.52109
-611.2085,600.48596,178.59372
-719.9179,634.6047,243.51451
-1033.6519,678.5582,200.14423
-1157.2434,714.20593,164.60788
-1222.282,708.7024,89.426155
-1428.5963,637.7913,15.578465
-1688.9532,483.10516,-16.942043
-1777.7244,248.22331,36.69755
-1506.0557,227.94527,77.906044
-1287.0366,312.69586,93.21586
-1033.6295,291.8654,48.684456
-912.3851,252.51965,-22.72399
-779.12085,198.49544,-7.1471734
-598.773,139.67075,15.9459915
-390.4494,230.5396,54.80392
-191.81084,372.50696,82.87781
-47.540905,615.2062,140.86996
-152.41025,912.9153,154.84375
-166.27588,1043.8601,159.40146
-418.45093,1108.6183,227.88748
-663.0151,931.4796,396.84476
-818.5729,635.34454,484.21405
-1060.246,637.1625,551.10455
-1261.4927,552.6974,542.2221
-1369.9425,457.78687,372.00607
-1264.2057,320.62677,229.75403
-1155.0321,308.13162,248.33986
-1050.8414,377.25568,250.55397
-937.734,500.79196,220.93428
-789.7703,571.5213,191.13127
-683.5358,556.937,154.73126
-626.84937,514.9446,159.38054
-605.2077,455.47006,163.2546
-659.4973,474.69724,228.47705
-730.0941,489.70245,269.67374
-714.3852,543.7428,274.41904
-748.9171,510.17218,247.90236
-735.32275,447.58035,192.62833
-762.81415,480.55615,172.43994
-741.2848,487.59128,97.39063
-900.7588,509.59802,77.72797
-977.1647,468.9273,-69.33595
-1249.6262,546.0621,-155.78708
-1528.2017,758.72015,-38.04129
-1414.9524,666.15186,-36.94292
-1294.4498,572.2647,-126.68846
-1366.1259,512.27216,-225.07314
-1302.7352,470.58105,-201.46898
-1166.0082,459.10977,-131.47041
-1038.1846,465.02255,-124.52899
-949.8809,479.57663,-141.411
-826.02637,463.36795,-108.23027
-760.20984,494.22363,-70.725555
-689.6745,527.0323,-66.890045
-621.1097,534.523,12.726398
-552.749,552.1218,82.29655
-586.7225,575.7639,118.440025
-680.9779,629.0615,225.46675
-919.5343,641.71216,398.36307
-1104.0317,516.06244,492.74554
-1420.4227,478.78857,571.9132
-1496.3942,374.87192,611.2795
-1418.307,173.8787,472.5559
-1370.7008,118.6663,341.38205
-1152.4581,112.36113,410.8805
-953.3992,189.86543,390.28833
-725.65674,441.08057,336.81778
-527.417,520.4524,275.3228
-424.31467,539.3119,191.74602
-370.84503,519.5117,185.96678
-455.34583,494.40628,228.00655
-600.71893,524.77765,301.4813
-753.6034,537.9313,315.85742
-942.7446,494.36,299.53348
-1212.2069,478.4219,309.74033
-1669.059,473.0315,373.24338
-1680.1375,461.02725,352.37024
-1536.2585,460.4233,327.34457
-1404.2238,435.01547,232.61314
-1393.8124,388.2194,162.34361
-1238.0211,258.44034,97.62848
-875.0766,206.50461,53.458527
-657.44135,254.32843,59.2161
-515.05164,309.04782,37.664158
-429.06146,273.43933,14.048538
-388.31467,321.9053,27.15174
-414.3285,367.77545,80.61683
-476.47626,440.83633,82.15377
-666.15045,520.5405,216.86966
-860.5291,411.48932,387.59012
-1333.1069,242.78932,335.98367
-1635.6794,251.64426,316.4927
-1777.0977,339.77524,501.08676
-1687.8538,354.85248,469.4961
-1515.0829,308.25638,375.0649
-1312.128,302.23102,378.54303
-1073.8569,360.83688,306.40656
-770.819,473.63464,155.8195
-555.9376,556.05133,98.4765
-423.94504,547.0108,83.76987
-355.57892,529.1684,98.004654
-350.21484,519.4471,158.07367
-534.6125,604.51825,288.1717
-801.7164,634.88434,391.7372
-1176.3112,504.2529,456.70392
-1509.2377,364.46674,547.93933
-1548.8909,423.80997,561.7877
-1574.7213,502.52054,603.2507
-1526.1958,417.12552,606.3856
-1329.5598,359.53162,450.7244
-1560.28,425.91315,197.63039
-1771.5634,381.6063,145.89925
-1549.8589,311.55182,118.99966
-1445.3943,454.65555,116.463554
-1129.9734,428.874,28.162786
-886.5757,448.51202,-49.88703
-667.9555,350.7609,-73.037926
-473.89163,216.23718,-57.497784
-313.11606,129.9631,-2.9917324
-270.79156,190.48456,31.96326
-202.28264,283.5095,74.48282
-61.001446,350.36697,180.7396
-18.37447,496.6783,272.14355
-77.832794,646.44476,365.8118
-164.4656,898.7369,392.36005
-571.20416,1152.6138,447.21286
-975.80817,814.16205,440.79984
-1364.3682,494.87616,364.9359
-2010.245,658.38025,317.17163
-1817.7667,804.6891,326.7938
-1577.5116,586.24506,104.55733
-1373.1599,255.29749,4.561212
-1299.4648,83.3017,10.839461
-1135.3505,-5.6035447,-12.472232
-895.3865,267.3412,-13.7058935
-764.01355,489.75003,-13.050217
-602.63556,542.28253,13.120409
-423.77908,461.36813,39.17484
-359.68112,421.17996,130.6354
-310.40298,384.65048,182.56493
-291.68115,490.0565,132.31326
-313.99533,593.6961,253.68344
-451.17996,640.2001,278.94604
-1014.15295,771.7188,376.91385
-1269.1416,684.37494,448.93152
-1474.041,596.4088,488.43704
-1819.093,544.99524,464.05988
-1995.8073,477.82208,438.79626
-1626.1355,402.67154,380.08862
-1502.2488,383.64883,265.21692
-1342.4111,310.95767,143.3197
-1068.6405,273.7372,87.90122
-794.068,243.91261,60.27282
-566.2515,259.32126,49.479412
-400.72913,250.65869,5.1834383
-303.6342,258.27878,36.576214
-273.96005,272.69705,50.731823
-179.78612,252.30507,67.54789
-156.18004,388.86737,121.657104
-138.91013,537.8311,208.74673
-236.6414,613.8442,277.34338
-465.6407,608.1648,373.7429
-963.63385,399.0389,374.808
-1685.9039,379.7195,427.39355
-2262.7644,460.75388,507.53555
-2337.1562,775.7246,737.2955
-1466.337,483.70413,458.07907
-1123.3351,79.06803,173.29814
-1106.0353,59.305824,210.9456
-1017.3138,217.18842,111.57919
-711.3545,491.37418,44.27976
-519.9462,608.5612,37.94785
-295.6637,449.48047,75.08713
-232.3421,353.983,99.9111
-302.0906,386.71902,242.15959
-392.8213,386.3906,227.44664
-557.7475,473.03143,282.79767
-790.5738,446.47668,332.94955
-831.6591,419.07663,394.56406
-1021.7363,517.9818,430.70114
-1157.2738,543.6803,442.05685
-1317.0543,582.1864,418.91272
-1485.975,646.4545,491.51334
-1561.6492,568.3636,432.81854
-1427.0254,553.1891,362.22958
-1276.9463,385.11835,241.30829
-1181.5708,377.3876,200.57716
-1083.1685,327.41187,142.50801
-847.97156,293.11493,97.75777
-707.2083,360.61124,35.969902
-583.27277,351.73227,3.2100937
-524.4287,347.79065,-1.7714245
-462.17404,318.7691,10.5800295
-438.65546,336.88486,57.596188
-454.78546,381.21133,75.90808
-512.78033,401.3334,124.944466
-644.83044,455.22983,239.34712
-860.25977,459.71774,393.20297
-1156.9857,398.3607,541.21405
-1478.1432,365.89557,642.40826
-1401.5688,302.25403,746.86096
-1223.6685,312.19003,739.46356
-1103.2664,356.49454,518.8645
-1076.6423,354.13647,435.7463
-936.1148,369.13882,353.38913
-781.70593,458.82605,315.28857
-626.9415,534.34406,238.9015
-610.89545,674.77167,223.40495
-566.0764,681.2847,248.20999
-619.24176,597.5754,270.73856
-703.0942,559.6482,308.5973
-757.96936,512.642,263.84488
-802.2455,476.56155,205.19116
-914.635,512.0264,187.30705
-1085.5002,559.6369,164.13734
-1321.3927,632.285,131.03157
-1589.7545,721.14056,187.71552
-1684.2036,693.02954,169.01382
-1468.3768,571.215,101.13381
-1287.3551,388.38116,12.480334
-1219.5022,445.66302,-8.441479
-1022.98737,446.36777,-27.33423
-856.74927,463.99548,-62.872665
-740.81085,457.1396,-126.357864
-659.6728,427.33704,-155.84631
-691.4246,460.4142,-159.70412
-718.25916,489.14938,-134.39323
-691.50476,451.40823,-120.36899
-684.75714,474.4521,-26.396229
-730.68134,477.0382,72.62408
-898.70166,592.6499,273.44714
-1005.2231,604.78906,480.41156
-1073.1871,469.38184,563.821
-972.4692,180.69795,757.7577
-844.0183,-59.000057,834.0011
-921.8016,54.2799,870.28204
-934.5799,237.00203,809.159
-866.56964,418.4221,794.3834
-794.99695,482.77765,693.9965
-734.9148,499.3983,531.39703
-808.7098,503.68246,406.9889
-865.08325,589.79926,353.6708
-832.11285,549.07495,276.72653
-743.91583,503.28293,201.99216
-701.24396,461.22156,173.8041
-755.45557,502.92578,172.77017
-917.6472,539.91785,168.77364
-1185.2241,559.0327,149.28616
-1759.2091,618.1574,195.94695
-1927.4829,530.7272,242.22525
-1443.9025,366.45233,139.98973
-1541.7748,375.35434,75.69337
-1398.106,281.06006,61.99604
-1166.0945,285.40884,50.451523
-1032.6981,322.48257,24.450369
-852.2675,302.18195,-2.9798207
-669.91846,340.53464,-5.8681073
-561.606,325.86243,-16.535933
-486.69388,332.27747,-4.3030596
-506.1086,378.98672,14.174699
-613.7926,450.86026,95.70948
-807.92194,562.25696,254.11107
-1006.39545,528.936,317.64005
-1254.0092,360.49667,335.02426
-1436.8285,203.14436,503.00665
-1383.4861,195.66771,527.89276
-1314.2513,276.85587,527.204
-1273.7682,336.381,505.99387
-1191.3986,347.37033,485.14847
-981.1739,337.94406,409.35162
-766.1246,355.1744,251.26271
-672.68384,460.5392,179.88222
-599.3006,559.13306,200.78116
-542.95935,554.5117,151.9466
-578.8584,654.69617,188.45917
-672.50885,645.76685,279.4621
-830.69336,653.84784,334.57724
-1147.4733,736.1022,424.38895
-1567.4812,725.5628,460.69235
-1676.1685,586.7902,437.85315
-1525.5786,480.11945,364.5684
-1650.0165,375.1871,273.79358
-1607.0836,215.2199,245.05931
-1203.948,222.55144,166.40137
-909.02734,269.8547,128.872
-686.1249,299.16556,84.11759
-593.7796,347.25436,39.451633
-526.4462,274.72137,-6.261546
-482.51187,210.62459,-29.301674
-536.18976,303.8096,-2.4432306
-619.0956,420.77417,97.01648
-728.2696,483.83133,200.27376
-1018.4079,512.6489,291.67212
-1345.6681,349.9338,266.37622
-1533.9568,335.11545,391.24918
-1471.63,271.29718,532.69507
-1458.774,239.66693,405.49142
-1337.0165,298.64554,376.71793
-1191.8483,292.90765,396.87805
-971.282,433.16614,278.52145
-788.8913,526.4825,185.18636
-656.3367,551.2301,98.7874
-579.43536,626.0136,132.56596
-619.9928,625.0586,165.03336
-689.0926,623.7099,229.56471
-798.3594,646.0831,339.5687
-963.0349,670.7783,409.00906
-1240.4076,710.0878,437.49713
-1686.0089,691.53345,459.51434
-1522.491,455.8572,366.29648
-1366.0159,380.62564,310.3731
-1542.4917,306.9419,258.54544
-1398.7925,283.00024,188.54204
-1094.8793,308.4948,172.88297
-851.94354,273.64148,123.18807
-672.0194,274.0636,66.52121
-565.5236,266.07385,16.010563
-520.2648,264.1579,4.8226366
-536.2397,262.3122,11.946105
-665.3404,367.7014,77.043
-790.59973,416.9405,114.56152
-1040.7742,503.52832,197.45374
-1269.8223,435.53183,222.36803
-1381.5071,378.25836,287.4737
-1423.45,359.81335,416.0297
-1412.985,377.8021,391.6141
-1372.0083,353.13242,377.9696
-1237.184,313.79044,415.53174
-1025.3442,373.78424,380.6708
-827.98254,450.8263,260.62317
-711.7424,511.90454,185.1854
-625.69995,556.47174,150.07861
-622.8347,635.7908,195.68909
-634.713,625.6382,217.19322
-700.5512,644.9556,239.41258
-863.92523,700.70294,282.6012
-1037.2659,706.2587,357.23184
-1405.3262,716.38513,458.52094
-1718.5197,686.97485,530.53705
-1770.4475,487.25653,394.26352
-1619.325,320.76938,239.09775
-1788.1248,315.3396,273.8734
-1523.8511,246.35823,258.0114
-1097.1617,261.28284,147.17384
-814.76044,245.26404,69.4689
-661.0004,243.35242,16.690727
-538.1471,183.45828,-13.449391
-441.42395,173.36546,-11.482368
-389.22473,153.01743,-22.245096
-443.99384,285.15143,-9.05988
-692.6625,443.6101,74.56674
-953.03906,559.4569,211.92635
-1251.6371,458.54642,311.52625
-1526.7161,379.75485,351.2931
-1702.7753,418.95398,529.45764
-1841.834,400.21915,582.1707
-1634.1279,320.6968,482.54565
-1264.8118,224.20766,403.1003
-1071.584,322.43433,286.18774
-856.9155,487.281,126.324455
-665.1858,654.3461,39.556877
-509.53,667.2079,27.748224
-412.33612,644.58075,59.238075
-417.96283,571.8476,121.416176
-584.1037,604.525,205.57024
-903.55914,766.753,347.02832
-1119.9574,787.698,371.96722
-1591.4049,726.97974,468.0772
-1821.8885,568.40344,514.4997
-1562.4885,465.09726,390.9399
-1719.8025,380.7274,272.22855
-1646.3549,270.37772,258.73334
-1335.3193,323.29825,231.41151
-1040.5725,290.52075,157.20403
-781.5758,253.59612,42.76573
-675.9434,268.0095,1.4539728
-566.6812,209.74849,-9.554752
-462.93744,163.00536,-4.6674767
-437.16553,189.40541,-1.5972917
-553.0722,358.8444,42.922333
-770.55304,479.44516,138.19824
-1024.9827,522.2065,218.70781
-1305.1685,414.91733,267.15057
-1640.5869,375.84082,426.3575
-1776.7197,358.56616,570.21606
-1763.6531,200.23677,456.70905
-1575.9875,219.90985,403.82306
-1243.384,267.30304,408.412
-995.37946,372.01453,247.62016
-789.3146,571.3563,117.6004
-625.6426,627.934,69.94039
-475.39703,618.86066,60.41409
-450.43204,600.1124,70.7256
-501.3866,529.28656,119.564514
-657.85016,571.39545,185.83766
-863.71936,672.2736,267.4594
-1227.2921,790.2393,329.6911
-1672.2454,823.424,385.24356
-1620.0739,616.3767,329.72983
-1669.8198,533.352,271.61346
-1786.2318,348.00452,234.95708
-1754.4349,228.62358,286.0932
-1412.6818,237.51392,258.4709
-997.08575,203.81851,119.59675
-749.03076,232.0851,45.070065
-601.76373,225.53253,4.598151
-481.10458,171.1393,-2.8826356
-388.817,149.93497,2.298556
-315.52417,174.19313,-9.648757
-383.8342,254.52028,18.595978
-641.69916,478.9348,88.147316
-1033.4658,575.79596,209.24776
-1376.5864,426.5245,240.92032
-1880.3376,404.3021,367.91827
-2095.7302,409.87955,584.6919
-1901.018,227.17117,470.7921
-1555.2372,145.85704,365.64642
-1238.036,212.67612,350.17517
-1012.62305,413.74353,210.60164
-746.1246,592.4838,23.444052
-568.20685,697.2075,-15.166389
-421.43045,641.74286,-2.9184535
-368.0625,552.59534,65.4846
-378.93506,481.5814,120.574776
-548.61743,549.0788,197.19792
-818.32263,649.8546,300.59982
-1166.3473,819.48376,388.75735
-1472.2769,763.9823,377.71057
-1790.9873,659.45087,352.49625
-1605.6902,417.50104,256.99142
-1676.2587,375.7966,178.80867
-1863.8202,318.9445,191.3028
-1611.9077,248.90344,189.68332
-1211.2222,216.5487,80.01217
-885.78394,225.68,-12.309572
-696.1839,277.1347,-25.788515
-583.7179,250.79665,-38.54801
-468.7513,199.67682,-46.19475
-384.57996,190.18073,-38.668427
-338.16574,222.5472,-24.841312
-352.20068,309.29947,-9.960128
-518.12354,476.0559,61.137093
-764.2577,534.6189,163.06282
-1133.4978,433.79672,261.57886
-1652.2358,421.72455,373.34595
-2266.3232,549.03564,727.0464
-2016.5721,503.45013,891.5489
-1285.8654,77.54592,483.6074
-1128.3007,-63.604298,425.4885
-1063.767,65.730896,386.2689
-904.94104,360.0975,181.4545
-656.1303,721.57104,140.88387
-463.75888,756.58954,121.68977
-323.90097,589.09845,154.50792
-299.14334,428.3793,208.8251
-322.533,330.74225,228.51315
-497.8555,385.66565,287.2896
-586.17444,418.8609,296.21152
-657.5524,383.61884,324.64542
-757.8245,358.93842,345.12805
-1075.4996,345.74872,424.24512
-1243.1393,349.09113,485.30762
-1336.1721,408.378,480.14862
-1472.6384,445.2216,426.87524
-1691.9894,545.08417,388.6217
-1656.3119,421.29166,230.1968
-1189.8228,186.47044,-40.69714
-1092.6711,204.31606,-113.526726
-1057.7272,182.57971,-22.023436
-981.5913,273.02948,12.086914
-873.963,420.75604,-68.211006
-763.11786,413.01416,-161.08292
-665.02155,375.03253,-189.36852
-641.62115,412.98874,-146.78491
-599.4178,452.54172,-93.20163
-551.4401,526.1463,-66.973145
-508.77734,566.60925,-54.881493
-564.0945,585.8173,-14.529608
-574.4818,567.74725,33.29749
-593.46454,556.719,76.871086
-592.4166,546.5378,136.4997
-704.8124,481.94308,233.76924
-895.6825,404.26932,292.9349
-1083.4772,305.00388,435.45804
-1207.8695,257.4744,621.8706
-1275.0099,306.25903,693.45074
-1215.1825,360.96722,708.4142
-978.4893,292.34717,584.8427
-812.0664,166.56706,480.14478
-848.5477,139.30621,422.64966
-831.27094,206.76006,359.64847
-840.33484,354.70837,316.94366
-851.4906,470.3446,302.47055
-846.3391,489.5797,253.2657
-790.7995,475.9963,218.5225
-786.16034,438.6987,180.82982
-687.3096,412.99475,105.03524
-741.75415,473.87744,82.307434
-697.50366,455.73938,81.75198
-868.38855,445.418,98.49453
-875.4399,392.60056,61.96527
-1004.3832,409.7286,93.88846
-1249.2405,508.63104,142.68263
-1730.9907,541.1063,138.60745
-1877.7208,561.8092,217.27971
-1460.7819,483.23483,121.33461
-1494.0377,437.983,-18.513449
-1553.88,450.03003,13.554861
-1352.8516,446.37958,46.28136
-1049.2938,397.84338,-13.975883
-853.0283,447.00836,5.2682457
-752.968,476.21982,3.226272
-659.10724,392.8044,-13.824344
-533.6966,288.65778,-29.464563
-411.14163,232.53448,-3.428619
-366.8984,304.05533,67.161255
-405.51907,395.7757,158.48836
-504.89996,453.87933,274.4277
-733.68207,523.9133,413.81122
-991.7807,346.1568,427.61584
-1369.2003,147.34187,369.32306
-1814.9191,209.05655,499.9659
-1868.1537,344.88464,584.0536
-1676.0078,340.57568,366.71124
-1477.781,216.25594,237.93918
-1345.1265,316.65662,303.52078
-1135.178,512.15674,175.72229
-812.7419,629.6933,39.60464
-513.3159,658.53076,-5.29318
-354.41992,532.6078,22.687855
-307.51428,429.26367,61.67929
-269.75616,437.44415,76.09571
-331.48352,495.61017,185.63994
-485.37265,562.9553,350.57672
-690.1665,585.0241,486.91043
-1141.4338,600.13715,699.37915
-1638.586,471.34702,798.3249
-1756.0474,467.3404,762.81
-1517.8909,467.82748,643.41766
-1579.0717,559.17285,535.1347
-1730.3153,569.0062,331.85217
-1301.9503,307.23492,95.9212
-1298.1948,387.3773,46.236885
-1329.8615,437.4677,96.25197
-1262.8827,499.51328,115.969246
-1155.2573,607.8746,70.25254
-907.1823,446.723,-24.233532
-599.62836,294.79745,-96.93385
-475.50922,312.70435,-72.07989
-424.30756,373.04883,-27.874065
-417.05353,432.7343,25.927654
-356.3531,434.41544,29.823774
-322.66165,401.78552,89.94479
-298.5868,350.4107,100.77096
-273.51544,303.73456,132.14784
-266.9215,383.13144,202.43622
-321.3677,473.12973,246.42403
-333.1593,583.7618,241.10353
-636.5212,933.4277,269.59503
-1124.3151,949.7411,391.3425
-1958.2378,723.996,538.6081
-2773.1,899.5958,692.90845
-2581.6055,1081.6179,741.576
-1342.3944,492.57602,224.56927
-836.3252,53.29331,52.250748
-948.16504,-293.944,-124.90747
-772.801,-205.36346,-325.495
-792.10046,234.6539,-312.93362
-637.1269,518.9995,-265.8971
-599.9377,507.6879,-57.94533
-635.2847,384.45706,125.28437
-583.8463,279.38196,274.95847
-508.244,201.2401,300.89258
-447.8551,283.2832,286.73737
-351.8163,307.44028,237.50899
-390.62564,268.2495,202.36075
-439.52072,203.07455,255.1175
-595.9493,128.37057,329.28513
-722.45905,101.91229,401.55338
-1080.5494,154.78311,494.05087
-1492.6278,232.30722,542.32654
-1726.2043,241.70308,626.0764
-1918.9906,297.91803,621.9783
-1614.2659,438.19974,498.67184
-1331.4314,457.8066,393.48904
-931.02625,306.65704,208.83374
-770.5405,262.21512,37.62319
-801.68787,314.28687,-97.482735
-1123.9673,677.4151,-16.981806
-1173.0156,697.2498,49.88856
-1088.7609,484.943,-98.30582
-977.0344,452.8727,-179.80505
-929.3026,458.6778,-181.56851
-903.3164,439.98343,-139.22305
-767.4156,400.8772,-77.06834
-673.99646,320.78128,-47.141434
-569.6845,282.86685,-12.801262
-463.56122,280.54855,70.44681
-386.94055,255.7909,161.50938
-324.43353,228.57957,190.19324
-320.3381,389.28387,263.0057
-267.16547,492.52853,331.8338
-262.414,776.0589,434.50986
-381.0814,970.3082,396.93613
-632.35,1106.8002,320.7395
-1046.1608,982.19916,300.16537
-1297.4272,760.30524,331.78326
-1579.5668,846.1037,372.8616
-1634.2308,903.1577,412.79294
-1141.83,791.97327,323.12222
-910.1532,536.20087,149.07797
-954.589,280.0892,44.47111
-938.118,118.901566,1.5831835
-884.63513,219.9427,20.005291
-829.75995,350.93253,-4.9832726
-769.8895,547.0883,37.012806
-742.6173,559.7655,33.717865
-737.31177,499.05334,43.116154
-783.15686,438.58902,35.27263
-844.21716,389.74854,47.42287
-865.82294,352.5784,23.603937
-859.67126,318.20557,69.530685
-836.6146,259.64276,83.39812
-832.4001,295.72232,90.91311
-854.7776,355.82452,212.68372
-792.8317,370.73767,234.64641
-715.6104,386.18863,212.60951
-715.7052,415.12497,253.14998
-735.8055,425.2421,295.90112
-760.31244,479.10452,284.65973
-855.0998,602.5082,248.29958
-1157.6005,715.4162,229.96994
-1337.811,733.658,266.53812
-1181.6145,652.8464,159.64207
-1031.3999,472.51712,0.09305955
-1110.198,478.71094,-57.21763
-1184.1023,485.97137,-62.834923
-1078.7811,427.86255,-31.97374
-1028.043,464.23004,-72.6346
-945.9916,467.46957,-57.566357
-1012.45715,514.724,-138.86574
-901.8688,534.99945,-108.185356
-810.1769,525.7975,-54.322285
-744.038,526.8113,-41.11299
-676.1339,529.16437,13.032131
-609.81464,515.282,82.54885
-548.7191,497.46893,134.01497
-563.0176,534.3916,223.7012
-645.8972,541.3075,351.21277
-822.9874,505.9962,396.53494
-1176.2749,480.3706,485.3601
-1538.6171,328.838,602.13446
-1580.0846,346.9762,647.07904
-1399.9706,303.5756,565.8132
-1281.2826,40.76987,320.6212
-1171.544,-40.932484,151.48985
-1102.4459,93.77538,117.68926
-952.7775,475.62582,126.836914
-749.51483,605.4877,193.75648
-561.8739,613.488,184.70229
-436.3707,543.71466,143.17879
-407.56238,452.1019,122.269745
-440.84808,408.5375,145.79335
-550.82745,448.4478,198.32782
-596.5277,496.04016,223.56013
-731.7843,496.23657,234.18108
-956.4462,497.46976,247.74075
-1443.2162,532.433,351.18768
-1766.3893,432.34534,383.4255
-1874.773,531.26337,416.93567
-1513.6571,375.61365,271.85706
-1406.2114,318.63797,163.95764
-1279.3447,270.82965,125.069695
-1007.2626,274.18967,115.973816
-860.46454,347.2753,85.55057
-748.0794,394.57892,66.30112
-605.6218,356.3577,39.933613
-473.0606,289.84656,11.991687
-383.9136,258.68604,14.805021
-336.2048,274.2257,30.730082
-336.29416,317.4112,57.220234
-492.45642,397.7052,126.097786
-747.09503,489.69656,246.00546
-1116.2488,410.0489,316.81293
-1500.1277,312.16724,293.82834
-1815.1,264.90378,362.4021
-2049.8452,393.01474,539.5213
-1616.7668,419.40164,509.52283
-1236.3053,177.46942,303.08737
-1160.1078,171.97818,261.60556
-1007.9229,358.07883,182.80098
-811.9984,515.34076,64.108894
-569.9597,614.887,9.499906
-379.27927,601.0332,20.977911
-314.80716,521.869,102.85139
-342.33972,469.7273,181.93286
-432.5431,527.2004,186.49193
-681.7014,660.8916,302.15274
-1007.8641,690.9329,405.9709
-1402.0552,690.70636,522.26855
-1832.3385,579.2792,524.9065
-1625.1849,325.6094,373.09485
-1431.9835,302.78458,309.26517
-1342.1387,242.63968,275.65012
-1395.6582,283.05643,246.67816
-1203.8945,281.2948,180.34523
-857.8826,230.392,85.82572
-626.76447,242.47939,43.15424
-469.608,283.6784,25.393837
-416.70706,296.0865,37.732094
-338.35263,222.88652,13.661558
-379.31317,285.45572,21.476252
-485.53333,387.5124,73.927345
-792.3498,511.9637,197.50658
-1134.4203,476.44522,300.9348
-1420.9188,340.27768,273.63684
-1662.5813,315.80243,344.23822
-1784.9193,429.40805,602.528
-1585.8265,431.78195,556.7338
-1268.936,148.11687,332.5469
-1135.8215,159.05415,319.74463
-945.77124,351.83432,240.9482
-763.9027,541.21313,115.15794
-551.688,668.3595,88.88348
-387.4248,639.518,95.80703
-345.76227,610.62744,218.57112
-411.6808,492.86127,283.821
-629.89105,491.77994,332.29657
-899.1863,516.62897,400.09625
-1360.9952,516.5492,503.12854
-1779.1941,559.7596,539.3599
-1599.9065,382.78387,385.43573
-1413.9133,335.02725,314.95453
-1417.1031,251.45703,230.35207
-1338.2673,206.42197,206.8125
-1128.7695,274.72253,166.84615
-853.5123,272.7985,114.077545
-654.2816,304.34183,71.50999
-532.14594,294.58786,25.837748
-449.22876,215.46918,0.08118495
-415.87714,203.50449,16.583605
-462.21387,249.26619,45.579044
-673.1542,379.0687,98.65612
-1019.33044,482.4544,167.10939
-1230.6705,461.0525,245.2155
-1490.9905,394.0266,282.01636
-1721.1528,407.33035,444.01266
-1626.8362,380.61407,555.0816
-1396.1162,165.23956,351.89432
-1231.5402,88.33601,281.91483
-1090.3647,258.5891,308.1633
-847.8466,459.22046,177.31583
-653.8285,593.58246,94.405304
-516.6923,637.0566,62.79935
-508.43665,629.4067,125.90321
-537.2253,523.4527,209.76666
-630.0013,483.42505,242.78046
-774.6062,504.90646,305.937
-990.3655,567.1115,364.63855
-1248.8662,607.3282,407.63055
-1531.8634,569.11115,411.45227
-1400.7888,422.51883,362.8422
-1283.3241,435.83893,224.60939
-1342.392,418.1436,84.88595
-1416.7946,372.6271,44.753754
-1279.0591,262.89236,56.960564
-983.6788,261.39725,8.101916
-753.6857,286.60056,-74.99603
-673.01624,323.56638,-133.09723
-531.313,296.24377,-117.52065
-400.92303,307.7006,-90.07723
-378.8706,317.24667,-77.020134
-300.96097,342.14264,-46.925262
-318.14783,554.16895,-22.438404
-324.49405,809.8804,77.5592
-416.4495,968.93097,90.99458
-506.32584,1038.0308,196.53549
-826.293,1042.1602,300.48914
-1102.9291,787.1901,502.61282
-1308.9125,674.19745,626.2019
-1427.5447,513.4725,564.62494
-1410.4066,441.86612,439.13538
-1328.3182,355.15256,259.55902
-1083.8159,243.71599,118.61355
-965.5081,210.13228,104.508095
-823.1705,296.99414,102.5434
-730.4348,492.709,63.035706
-697.15784,578.75714,63.39139
-641.107,493.80518,56.017887
-612.3669,390.4094,70.71434
-651.2755,315.6992,90.609116
-720.2083,360.90076,143.28893
-811.9231,341.11633,246.68558
-781.20734,285.49533,215.67181
-838.44836,312.88748,293.25015
-911.06366,322.09903,457.2949
-846.61725,270.28564,500.84912
-749.4599,247.5829,463.7911
-754.07684,259.4282,444.61584
-772.7526,326.58826,398.85382
-828.3779,378.01663,259.83026
-1036.1702,466.2507,56.5496
-1361.0833,739.9145,91.51391
-1178.9172,887.61884,189.42291
-916.25226,572.76544,-74.546295
-1020.0842,501.23825,-230.4058
-1134.9712,395.19162,-218.88788
-1152.4852,270.03885,-140.74512
-1173.6821,392.35455,-152.27733
-1152.8861,373.2662,-180.46664
-1063.7572,395.34973,-154.64899
-1044.9484,447.76355,-97.66602
-969.32404,447.46585,-33.760727
-892.78534,449.63455,55.008835
-812.448,404.98434,96.83071
-780.9834,390.55588,113.736786
-910.5538,452.7105,162.09201
-1060.9723,438.74747,312.54224
-1201.1665,379.75262,395.19513
-1195.1033,368.11356,424.80344
-1262.0645,358.9409,453.91107
-1140.4609,269.02133,400.5674
-1135.8088,197.11661,340.75882
-1183.3959,128.12766,275.16312
-1112.7961,169.37448,281.87048
-1039.466,225.42924,310.01935
-766.4634,330.1514,267.25537
-609.50525,438.8393,265.69122
-512.26685,470.50134,288.68585
-502.48434,450.59662,282.9584
-484.8448,414.4782,268.81967
-552.2256,423.64825,289.51138
-669.9949,457.25238,318.8633
-856.7067,518.50525,305.33548
-1038.9807,568.16156,271.11002
-1439.353,648.0665,274.13986
-1772.8435,846.4491,321.89688
-1470.7437,599.12317,220.43626
-1401.209,456.11627,144.92433
-1427.0792,328.9635,129.68489
-1222.132,351.92484,71.11926
-1042.3789,405.8675,6.8304186
-879.26013,375.5209,-8.347942
-687.6367,349.23135,-28.765848
-535.96875,330.5747,-19.310202
-452.26025,276.0431,-30.130041
-426.42957,293.4819,-25.408894
-469.4025,323.34604,-4.445307
-611.39465,395.06787,68.23208
-867.56586,484.85706,224.65936
-1228.5017,558.789,306.19547
-1372.2604,390.60547,266.55362
-1513.62,287.72415,355.095
-1539.6875,275.96292,505.92255
-1519.8903,326.45093,443.0428
-1352.309,225.21277,332.35913
-1152.1128,276.43295,334.34247
-952.1464,557.895,256.25003
-730.5463,526.59717,180.71252
-589.31793,629.7033,136.16698
-474.413,612.8958,160.04863
-449.407,558.4934,183.27235
-541.6445,508.94095,253.27092
-690.2093,517.4455,305.6074
-904.7601,525.50574,370.09793
-1221.0012,578.4491,474.83694
-1575.2274,585.321,506.0338
-1618.1713,478.12195,410.06802
-1516.7242,419.68796,315.26562
-1577.9623,339.58325,243.46416
-1409.004,214.66096,159.0244
-1274.7463,252.05882,156.71721
-1054.8805,249.64375,126.21875
-718.07605,251.92744,54.409348
-546.276,281.32544,31.745193
-468.39752,270.1423,0.2359257
-396.11807,195.12195,8.770777
-373.6125,199.33824,15.321138
-448.0552,277.42758,66.71673
-687.65485,477.49814,157.17543
-1033.6244,526.49133,237.01826
-1378.2139,389.38107,226.86427
-1706.1699,356.46304,293.56363
-1834.2778,392.24527,500.34714
-1744.5317,377.4945,485.785
-1452.2618,188.37784,244.19052
-1195.5492,240.55235,305.16595
-1008.0635,457.65384,250.13226
-748.95764,598.1983,99.31749
-597.6885,691.8222,91.81859
-438.77255,576.0194,100.17162
-393.20148,502.20102,177.14743
-439.3507,421.9946,231.32974
-630.2609,488.33472,267.99762
-802.8685,564.8263,397.26566
-1140.155,605.51843,495.16428
-1544.4946,645.22253,623.93695
-1723.1123,507.66864,447.8958
-1634.4064,385.23477,331.35193
-1442.4303,384.94885,276.01428
-1501.6969,284.08463,207.98506
-1321.4333,259.2537,121.73439
-1123.664,258.64398,59.024
-822.9226,268.66763,20.460829
-631.23193,302.75336,0.83699566
-493.39655,274.13776,-5.2755423
-384.3652,196.5285,-8.503948
-388.06897,166.20723,-12.163184
-457.92477,206.95544,19.115116
-653.6458,366.91974,102.47239
-955.4612,563.52734,221.37686
-1229.0679,517.512,259.93372
-1546.4047,341.97342,208.84702
-1773.4757,355.83215,335.98404
-1812.5991,421.06766,505.9466
-1451.6359,336.5406,394.2176
-1196.0841,190.58592,334.88885
-1047.4059,174.05104,322.91895
-855.39087,316.2611,255.78511
-731.3494,397.16245,168.58017
-516.47516,485.34436,61.80277
-423.98596,590.8985,90.15413
-441.36615,565.245,194.023
-523.7274,505.78094,282.19653
-626.6804,490.71002,339.81033
-707.4169,494.93765,332.3722
-872.9632,623.6606,367.154
-1226.5082,744.82587,404.64542
-1592.6838,795.7388,417.5388
-1484.9497,474.03204,189.02725
-1468.1138,260.03354,84.886284
-1566.3379,204.05632,58.705444
-1477.9166,191.90016,48.035736
-1337.975,357.1489,51.823082
-1118.3436,329.45895,-7.771912
-834.1276,308.3641,-84.04097
-743.1721,356.52744,-94.565315
-594.21423,270.9323,-82.82394
-445.98834,197.0944,-50.173447
-351.20044,252.56879,-21.754648
-280.84848,329.33203,49.84081
-189.74371,401.28342,83.8385
-224.72044,610.703,157.46072
-398.41293,902.0877,219.61235
-463.83508,911.50653,304.68842
-957.9436,1100.2268,421.87674
-1220.3741,757.1136,521.2139
-1448.2196,456.9233,588.2949
-1816.3348,447.6536,949.9004
-1621.6714,303.0653,533.3737
-1405.3093,496.91693,231.00261
-1040.7355,281.58496,227.44872
-936.2027,233.37479,219.46143
-868.09204,411.7792,205.0649
-793.8601,487.27045,48.809227
-710.67535,508.84265,55.85341
-720.70636,444.70358,27.637363
-670.6933,338.032,78.50748
-676.19025,236.50465,154.33133
-613.1962,280.32257,171.22023
-713.3995,355.5554,330.41013
-737.84674,244.93573,314.93463
-843.6041,302.37585,291.55362
-870.1232,294.08554,303.76886
-891.676,310.19687,270.2387
-742.8841,309.36557,210.47853
-748.76416,357.41968,144.80792
-837.0372,351.61478,158.90239
-858.192,366.8183,81.82855
-1211.1694,480.77216,10.601272
-1579.575,681.91473,39.366825
-1422.4033,566.23773,74.10241
-1282.9485,372.06332,-52.750435
-1468.9886,472.51456,-33.194542
-1425.7617,320.15274,-104.23187
-1224.7645,354.19763,-108.47326
-1174.6333,356.06198,-123.79856
-1078.0682,350.2124,-89.39625
-1015.86035,376.0953,-165.84927
-937.17944,440.88074,-171.81796
-810.3752,468.9848,-106.15696
-690.8416,468.32968,-71.052284
-635.2032,494.11758,-32.606995
-616.63135,526.6377,76.582085
-610.5487,489.53418,98.48142
-675.54205,506.80588,170.3396
-911.42255,472.28464,330.61627
-1109.2147,392.03403,467.72125
-1270.5441,335.5693,490.61765
-1521.0594,389.59015,555.4747
-1464.6216,342.92877,644.7878
-1331.2765,214.25458,584.19165
-1274.3403,61.80079,425.9948
-1106.9655,55.59162,400.61697
-964.1365,224.12396,398.83456
-744.5604,422.50644,288.09415
-565.4083,582.3041,210.8648
-474.218,592.27014,162.34859
-475.01328,520.06964,182.43979
-499.9035,412.6518,232.15332
-578.19763,401.8023,212.36125
-693.2726,456.84515,221.59825
-823.8548,463.56723,230.171
-984.27704,469.79916,281.7506
-1344.9823,559.40875,329.93326
-1811.1251,644.6847,393.5251
-1609.2646,541.7717,359.06323
-1446.4806,491.4284,298.5262
-1358.6323,422.8814,191.47447
-1248.1227,369.23767,136.7933
-1083.1614,317.44992,108.184006
-847.8453,298.81696,99.354675
-614.7833,294.76315,53.118793
-438.8478,318.759,40.987633
-342.36075,289.24548,19.1917
-318.5056,284.52457,31.878738
-364.356,332.83743,58.75978
-548.50757,427.24356,133.13855
-828.6779,455.56143,256.22412
-1124.7675,425.7133,310.883
-1414.0972,321.97412,305.77097
-1731.457,378.42435,382.07404
-1704.6802,449.72488,548.0098
-1557.0078,352.56076,471.51038
-1334.57,160.4242,319.48563
-1066.4589,207.3173,292.62848
-897.92834,413.55548,158.02664
-721.00757,627.2912,84.79893
-548.55865,660.15216,59.86123
-438.49463,650.95654,80.01744
-409.05545,529.2397,182.05553
-410.50824,417.8946,214.69357
-544.04486,467.92303,264.85443
-872.8544,708.2982,388.29956
-1198.3566,764.4207,423.82367
-1762.3683,837.807,531.45667
-1861.6631,565.9474,452.30133
-1483.3687,236.9586,324.0458
-1450.4153,223.08661,307.975
-1320.0015,204.33345,293.87082
-1007.61865,356.76605,186.29184
-771.0973,374.74878,102.40857
-583.45544,321.50665,60.264187
-487.6248,289.63373,25.649803
-398.30853,214.98247,6.9927864
-376.17148,212.0192,31.926414
-418.30038,289.81534,47.93156
-532.93665,362.6103,76.95027
-884.7834,514.23694,164.78856
-1186.6436,466.00974,238.4377
-1587.4305,353.81686,261.0959
-1832.7786,352.41528,389.36124
-1795.4054,339.25668,569.62524
-1526.1471,305.65665,501.81534
-1190.6628,158.41467,394.87933
-1022.159,188.03001,324.45926
-814.95807,374.24002,220.06616
-657.11664,501.07208,149.30716
-478.8542,572.0884,82.13354
-420.99594,590.15173,120.48242
-424.5999,508.4599,158.85434
-548.23724,512.3285,205.7927
-718.24585,545.1632,279.34283
-931.486,605.7967,347.60983
-1256.5012,646.1783,416.96622
-1587.4056,630.08105,415.29782
-1639.9331,548.1607,353.01648
-1483.4065,405.6075,281.41476
-1507.3439,352.74588,237.12614
-1491.8782,256.2279,233.25706
-1252.9923,265.69202,244.52867
-908.0426,231.33693,150.19705
-698.0023,271.95496,81.08019
-557.1045,246.62074,20.271538
-455.89932,225.64847,21.721968
-417.30978,209.2922,6.5432706
-407.0622,225.60483,21.880196
-565.23914,344.8589,57.22285
-836.363,511.29382,176.87003
-1099.1455,540.5215,263.47214
-1394.1855,400.54297,274.0351
-1687.8439,371.64584,350.85477
-1816.8447,448.7158,564.1972
-1631.6843,357.84027,450.74872
-1274.5066,146.2934,273.9777
-1077.719,148.40874,254.13866
-979.4806,352.3162,206.23407
-779.5117,543.7842,123.117165
-603.3163,628.4051,56.48113
-460.32123,649.0723,118.20377
-440.5887,514.9793,193.22131
-456.1547,457.72238,208.44798
-580.48615,577.50507,318.48813
-692.4319,618.15857,375.63345
-868.42334,628.09454,367.0769
-1153.915,617.0677,363.39478
-1635.9496,618.1415,382.1691
-1523.203,493.34564,332.36328
-1292.049,406.2056,168.88803
-1472.5557,425.0713,138.71611
-1505.4695,318.3594,128.70078
-1438.3938,250.82712,50.671852
-1173.687,224.90497,-20.564856
-934.82587,256.83786,-53.010475
-758.822,317.70975,-71.14677
-604.4102,288.13977,-59.67179
-458.7706,238.76044,-29.45256
-378.80072,244.03732,-23.360895
-325.36798,294.92642,15.757068
-313.0451,432.29047,45.871735
-331.1802,557.2851,132.33763
-388.657,706.2007,174.78314
-463.05966,781.1855,198.56474
-794.6203,1036.6075,320.1487
-1160.7604,941.1364,499.70145
-1501.73,610.18304,596.7812
-1715.0128,658.60504,651.5054
-1551.0166,622.585,625.1671
-1294.3748,442.20587,538.1752
-1011.8433,231.73535,353.70966
-936.63214,186.0246,222.97739
-899.56616,208.75023,180.38533
-794.1453,267.68472,86.81749
-744.42334,387.1726,87.5581
-747.4854,398.0829,160.68456
-679.38055,346.68585,166.90436
-752.4588,345.65323,250.04352
-733.0396,284.9625,319.01913
-719.62134,316.49417,322.43817
-761.80786,319.4488,336.53427
-734.36273,286.4678,304.19852
-756.7057,323.93805,324.89655
-743.9368,318.65268,330.1436
-736.17474,358.06888,341.3488
-653.34644,398.44336,285.42792
-700.774,445.11322,258.90268
-767.5241,450.71588,166.8061
-1166.6361,466.9441,35.369297
-1353.18,496.95642,-1.2463526
-1223.6249,594.20233,42.26556
-1116.8484,602.2539,-21.920277
-1251.7831,502.77185,-224.70697
-1537.1893,494.17215,-241.19072
-1483.1088,377.77386,-223.4686
-1308.098,358.2691,-189.16008
-1256.4757,462.54663,-142.92416
-1089.5524,477.83636,-84.03358
-963.05334,468.4812,-90.811066
-945.49725,465.45547,-47.5507
-841.23627,420.2256,56.005733
-737.91534,412.0892,84.306786
-644.57336,415.00797,142.59886
-605.3197,422.1573,219.21727
-633.7407,480.79443,319.024
-771.7892,547.20355,361.14966
-892.0742,513.28894,436.10043
-1235.2181,508.3937,417.54843
-1418.4728,500.1576,581.13947
-1406.2291,379.02774,526.6642
-1406.0527,225.81738,294.70816
-1397.6224,175.32648,315.4271
-1273.5814,133.12653,334.17145
-1058.0228,280.58524,322.67325
-812.71857,490.77252,316.22458
-586.5606,552.97363,223.99525
-412.69592,535.1214,165.59236
-405.84384,481.9876,187.04332
-452.12436,482.78796,207.67781
-503.80185,477.60507,197.00812
-638.79156,550.6551,209.93947
-825.57965,579.1739,247.13182
-1131.1742,609.2811,267.73895
-1671.367,632.28644,252.17857
-1586.3416,572.4645,216.97992
-1410.2455,504.1012,146.02094
-1573.7246,389.15787,56.296726
-1476.5413,307.9833,27.992317
-1291.8683,280.36548,62.86458
-1003.36816,258.01422,66.33402
-807.8512,309.82568,25.456966
-662.98206,340.76175,11.090438
-590.5705,269.5133,-5.446014
-531.5387,222.3239,-0.52773553
-591.05023,313.96786,56.804127
-768.46124,417.86087,104.54717
-923.8274,410.21286,146.58464
-1181.4828,465.43243,291.04184
-1404.6266,376.06503,318.94684
-1495.0824,331.0869,379.76953
-1523.3352,267.73114,451.88116
-1407.4406,227.16031,372.97653
-1220.7516,257.5906,356.23196
-1021.2407,290.54364,324.40494
-824.3727,427.96063,222.066
-725.57263,547.5764,172.49265
-599.283,573.16473,146.53227
-563.96686,544.7263,175.69484
-595.1549,537.50793,203.61873
-717.74945,598.51874,273.81656
-848.8055,634.7213,351.91254
-1059.8551,631.592,413.94284
-1251.215,555.94653,435.1843
-1609.9056,540.52826,402.62497
-1674.7563,428.61264,355.33087
-1617.7775,260.50732,213.54178
-1626.7433,176.94731,164.0727
-1292.2179,227.88756,156.98625
-1095.1794,311.95563,118.370544
-862.2722,299.4767,78.92989
-659.257,290.2897,34.302586
-578.6612,246.13885,-19.785374
-528.59924,203.19179,-12.502072
-498.13074,210.24492,-0.7686961
-574.13214,289.96735,29.517023
-743.8457,396.04425,90.15667
-1073.8569,497.15533,198.96663
-1301.3558,448.4304,200.50038
-1546.4567,367.00085,271.94385
-1599.4165,336.0254,428.0677
-1551.5381,288.85193,405.07608
-1446.5503,283.5083,320.11676
-1249.0901,274.6165,328.24597
-1033.0479,355.703,253.65674
-842.4518,507.90015,124.17727
-665.55817,582.35394,55.397682
-582.2328,599.3104,103.24566
-554.10406,567.0618,134.94069
-567.9977,542.5418,131.55496
-715.4219,603.7907,238.0884
-924.06415,649.8033,327.35657
-1156.8301,739.08417,444.79483
-1562.1599,764.94525,514.85315
-1694.147,551.17804,415.8295
-1541.0729,376.1869,349.7302
-1657.4718,233.57458,294.5339
-1557.1597,133.46146,207.53154
-1229.83,275.06082,115.62501
-931.70905,325.68945,100.73153
-705.2925,329.67264,52.588623
-598.60565,292.64636,-9.744131
-536.34326,222.28598,-26.805534
-450.10245,153.95464,-43.187943
-440.14087,238.22624,-45.743042
-613.5351,362.92645,16.34957
-815.19543,508.46515,105.20089
-1100.4312,489.16446,197.70934
-1398.2916,373.96457,217.41406
-1596.9635,363.053,306.11606
-1777.2662,399.2081,543.91376
-1637.7968,349.18225,498.7191
-1285.3186,199.12444,393.5537
-1129.5145,142.57448,415.78674
-926.0199,229.46898,312.4096
-755.43744,417.2751,166.66597
-566.1706,595.4438,101.43746
-502.7643,627.1643,120.413284
-472.34924,544.19165,165.29608
-532.5883,478.93036,190.99648
-634.76587,525.3659,274.23453
-810.1073,592.94214,374.63443
-894.20123,649.0325,380.87286
-1370.9304,698.01526,434.9559
-1715.1487,549.4722,393.55887
-1408.8142,366.10834,259.81573
-1418.3783,379.15115,179.66063
-1587.4635,301.02036,107.827446
-1652.5376,292.167,114.697945
-1283.4237,211.77359,51.40764
-1011.9898,209.14476,-54.59561
-784.2849,245.05023,-103.694466
-654.00964,267.6453,-100.10323
-536.54224,202.76562,-92.46354
-447.05325,181.32262,-51.601624
-320.90234,176.82594,-36.09023
-281.4565,343.01028,18.885832
-228.69331,508.411,105.32243
-225.6213,675.8255,156.88638
-369.9063,912.4307,221.71547
-566.767,1140.2178,317.00394
-849.4146,1076.7428,393.43213
-1077.2875,795.04095,476.65903
-1262.7955,720.4717,507.52136
-1366.1119,720.37573,484.23596
-1299.9866,735.7592,478.0561
-1185.795,590.86865,242.55457
-1110.6852,301.9373,-2.8970423
-1073.1334,139.18066,-22.05927
-1024.5508,152.59976,73.71998
-912.01385,275.46158,90.338524
-809.0034,500.2576,74.60335
-776.627,562.7986,76.14959
-710.5553,454.6529,64.109436
-684.4456,336.33472,67.45874
-704.35913,242.5817,105.48378
-722.05743,222.37267,106.451096
-771.4255,268.36545,153.07376
-810.33777,254.85773,248.19667
-806.2654,254.37273,346.7283
-763.16736,269.56796,456.10724
-727.9274,253.70024,463.60797
-731.22394,335.7193,501.58032
-788.1934,362.90012,475.952
-802.92474,385.8919,472.08682
-805.2297,401.61194,443.60074
-792.18695,434.2685,376.39883
-885.65607,530.8448,339.84604
-1136.5756,794.73846,237.88249
-1143.9993,861.2236,136.11583
-901.83246,807.56396,49.822887
-931.101,649.456,-113.083496
-1146.8921,467.45206,-205.37518
-1272.7247,352.62344,-286.98267
-1203.2683,362.32617,-186.66403
-1338.0148,366.57108,-243.49776
-1412.7916,417.40396,-181.39874
-1244.0991,343.57794,-253.98912
-1314.963,372.36206,-272.2501
-1112.7762,347.311,-90.34051
-986.9531,361.64096,-42.749035
-918.0603,435.26743,-2.655573
-824.29535,415.54907,93.9518
-659.86786,371.22726,178.9273
-578.747,339.5881,170.2852
-679.2129,428.8592,267.2292
-896.2147,525.7197,443.14243
-1071.6838,466.89957,501.31036
-1324.0839,519.62134,640.7044
-1427.7632,383.4277,629.19543
-1386.931,191.57281,503.55103
-1338.0078,41.56774,399.15247
-1264.6299,62.624153,299.3151
-1114.7389,84.4309,278.23117
-942.2453,281.80325,249.23253
-766.36334,536.77423,243.44392
-546.9424,600.22986,199.41676
-504.79776,506.499,187.7167
-448.79153,414.73154,165.86865
-478.3307,404.44064,241.19168
-557.7191,404.99243,269.01675
-600.95984,429.8219,251.74663
-703.5766,437.29758,245.80663
-886.96326,448.93597,290.1146
-1081.7382,471.27194,353.1163
-1372.9412,490.30573,408.27484
-1705.6559,613.10815,480.9345
-1688.5638,531.7955,415.65274
-1373.3544,339.00955,276.42184
-1229.6991,319.6679,220.60164
-1217.3522,301.41205,187.70795
-982.5725,305.29395,140.61937
-845.5207,359.69824,115.261116
-740.0189,391.25778,94.265144
-650.5494,385.24814,65.76662
-547.88245,335.8709,49.297184
-484.59875,279.96005,26.286125
-408.92682,254.06726,29.009106
-418.77396,322.13052,69.25527
-411.6108,360.30487,95.83724
-571.02405,449.10016,153.15411
-896.2429,499.37668,270.49573
-1318.9238,440.64612,354.1661
-1803.4315,425.14044,411.56552
-2113.584,479.0423,663.97015
-1593.7047,304.2003,630.1556
-1120.1548,39.965935,320.87045
-1027.5586,63.648907,308.48392
-950.60876,301.88043,279.32346
-831.90405,524.42706,134.38896
-638.482,669.73114,82.68693
-470.16074,636.6501,108.46228
-393.96933,478.441,188.64314
-368.17883,385.35153,219.23325
-431.6284,459.71124,204.47827
-555.55615,490.74435,192.71953
-787.2468,566.3623,285.747
-928.27136,519.6043,329.8336
-1182.7046,665.3824,492.67694
-1459.2648,358.20792,570.74054
-1688.7378,390.79446,497.54398
-1725.6818,586.65405,566.73334
-1310.6685,332.1146,478.86365
-1111.3608,431.81494,315.0036
-1058.366,368.43655,178.91534
-978.4551,369.82376,121.82667
-810.709,340.77277,88.73353
-667.0161,308.67395,35.291336
-534.5017,273.5382,-13.435476
-463.70035,283.89368,-1.9600044
-388.2361,266.6925,11.570312
-377.79605,303.0241,22.814466
-487.37097,348.11087,54.461823
-723.35315,447.42972,158.78107
-994.8608,472.48975,302.36795
-1328.8157,391.36847,355.56235
-1666.1185,281.7306,355.42242
-1817.8387,284.50003,520.3433
-1566.5283,291.33835,585.95166
-1216.8918,257.87283,405.4988
-1101.2168,158.61333,331.62573
-1006.85706,181.92564,290.403
-847.09814,260.48624,203.66162
-596.2976,441.04123,129.46906
-440.4592,526.8834,162.02206
-323.00272,486.54648,140.67865
-279.32834,483.06372,212.47513
-366.38953,397.83215,218.45564
-522.30554,469.63547,257.79224
-809.06934,635.91327,384.90112
-1009.0575,678.5606,469.4717
-1138.4702,624.95404,490.21756
-1415.1477,641.0083,545.93567
-1737.0425,708.0154,550.9601
-1533.957,359.93024,438.72256
-1259.1311,247.48897,409.94403
-1183.3849,285.04684,322.3063
-1070.8856,413.52908,251.74323
-958.3822,463.95486,195.2239
-833.5566,387.3379,149.37909
-686.08887,316.19397,92.79967
-548.0781,291.90967,74.81074
-470.60477,280.47458,58.59947
-405.26334,268.6567,17.715567
-387.26587,264.206,3.0132897
-470.58426,325.15088,46.576183
-695.13837,434.7259,126.412636
-966.53925,480.6004,233.74115
-1368.2384,425.46307,338.2685
-1715.7966,333.50842,367.79395
-1817.6361,273.14532,488.42297
-1526.8351,274.7304,604.1479
-1144.8616,166.90207,450.6718
-999.6995,155.18898,364.84854
-961.47424,195.83104,367.20483
-815.0807,308.8125,253.91985
-674.5305,484.83,209.73376
-509.09995,543.32214,226.4374
-438.03766,492.12415,239.99162
-421.46423,461.64075,226.74368
-525.7784,450.3727,314.13458
-595.2806,426.72348,311.1855
-693.62823,479.80826,341.55408
-798.8248,493.78006,405.9676
-942.6266,543.01025,435.56027
-1397.734,660.9579,490.3718
-1864.8075,719.8607,494.1786
-1554.9203,453.83096,285.9306
-1208.1375,287.77094,181.91531
-1244.1849,283.56393,160.20166
-1271.9045,292.15967,144.22395
-1127.1371,330.29794,82.20645
-961.2491,322.65305,16.562065
-802.83856,282.46805,-67.7995
-664.3103,281.35303,-84.16483
-561.1086,308.54678,-67.5371
-476.49228,260.55658,-50.09635
-396.8781,276.37152,-26.795145
-374.18744,359.04654,37.358307
-298.08563,426.08447,89.73328
-312.77066,643.7292,146.22838
-379.50668,794.90924,177.92065
-596.29614,948.83276,186.07654
-977.29443,1159.1732,348.93127
-1220.401,929.3482,497.6138
-1448.1324,699.1281,627.48627
-1612.5719,692.0914,741.76263
-1315.852,589.60913,636.96484
-1144.3428,323.23453,337.2448
-955.1039,2.53928,179.07797
-882.7072,57.058823,165.55928
-844.8978,266.73962,76.71366
-756.262,469.49127,63.299484
-665.5067,641.69556,69.16115
-667.495,559.4603,50.52817
-621.5017,390.20306,36.575623
-629.9282,312.43542,70.82526
-721.3302,316.1236,113.02622
-783.15485,344.01956,157.18877
-773.423,350.98767,200.60664
-800.3274,320.69983,260.87457
-765.1469,280.9899,316.52576
-706.21387,298.0086,391.34668
-620.8695,338.83075,386.92828
-617.778,399.14188,367.0777
-721.2854,480.18835,420.23532
-837.41394,493.74753,398.6304
-1019.84247,590.0565,286.37784
-1368.1708,750.4222,274.12534
-1366.9153,684.47736,274.53305
-1046.9268,475.5618,132.68188
-1022.79,493.2891,39.112537
-1206.6268,528.8656,-22.960154
-1193.3865,480.69534,-56.136963
-1053.1476,451.04642,-73.18713
-1037.2772,470.32983,-100.54259
-990.9021,506.38083,-118.9313
-931.5598,538.18396,-85.150955
-924.5459,509.0889,-93.47224
-891.2777,495.29843,-23.162022
-796.336,442.14108,12.416805
-756.0524,416.16125,80.504715
-804.1886,422.89188,161.59515
-974.42584,444.79337,258.5846
-1107.0531,410.22348,404.50412
-1222.8057,319.1558,451.7869
-1269.2821,242.4682,458.23
-1259.5259,263.76743,670.5512
-1141.7327,150.97523,650.82947
-1154.6188,126.1335,435.60135
-1109.9563,132.05205,394.5524
-978.45105,183.13513,415.19595
-833.3925,346.7366,392.70813
-692.99835,499.1319,328.96124
-556.30585,567.7473,265.27817
-481.5191,506.56903,229.9154
-455.3121,460.22995,228.7073
-518.26697,417.6035,263.56244
-623.9865,450.62173,290.5552
-797.2464,493.11392,335.61624
-959.4388,492.83505,341.48053
-1310.4801,521.24054,385.8904
-1709.0232,558.0171,426.18
-1723.83,567.24164,431.08588
-1486.8961,521.7365,312.6688
-1285.9019,426.41876,173.17455
-1240.1923,371.09406,116.76042
-1115.8688,292.12924,118.291374
-923.6877,275.58508,102.7581
-699.46936,284.8499,70.5019
-549.7409,280.37177,39.503395
-429.85907,278.54437,20.691942
-370.94104,263.87543,7.1303315
-337.0808,252.63103,7.5956
-525.39764,310.1862,24.650627
-886.63885,407.19324,174.35397
-1214.2003,403.13696,296.61624
-1514.1057,368.26968,354.3158
-1666.5219,226.55293,351.9452
-1547.4576,243.09613,512.09485
-1294.1663,225.63414,509.97617
-1083.61,174.84377,327.62946
-912.7111,249.09996,313.067
-819.2353,334.5085,261.86874
-695.45374,500.28314,201.52002
-528.025,561.80225,174.70932
-454.4047,573.3147,236.13655
-485.49545,522.2669,280.23712
-605.2608,516.15424,296.3788
-813.50635,519.4513,365.19025
-1067.843,513.29694,453.99994
-1239.2208,477.2216,520.7969
-1553.8905,511.63007,527.3561
-1577.693,428.54684,432.6232
-1245.0137,345.55872,324.93457
-1216.4122,323.72772,213.20937
-1232.2644,295.67126,155.73845
-1071.9637,271.56424,144.97244
-898.5807,252.18932,98.142845
-772.8188,238.10768,53.686043
-666.80786,257.98218,5.3805947
-550.5724,249.75246,5.37286
-497.66187,255.06535,1.4642274
-488.70627,259.62784,10.554802
-604.8364,325.67133,66.1878
-804.4232,368.49667,120.83983
-1061.9282,380.0415,220.0962
-1355.7917,352.00967,300.48758
-1642.9984,273.10492,356.4132
-1703.7449,274.99622,488.8086
-1386.0144,219.87859,496.694
-1119.9618,173.15605,422.95377
-1013.7641,201.47668,384.75125
-902.51355,264.57788,358.91595
-730.755,366.8019,247.39645
-565.0294,508.57336,214.08041
-484.05905,501.78748,256.85046
-443.2478,438.84048,224.50908
-522.77637,469.402,295.30902
-647.09894,421.46878,331.2098
-781.26715,426.22183,370.08035
-908.2661,431.80783,437.5525
-987.8324,428.9798,460.90665
-1395.3677,553.61346,555.9801
-1685.1597,574.6074,603.91046
-1295.4364,320.5442,395.8282
-1103.0629,218.88634,273.88098
-1114.4282,240.6898,239.302
-1001.55975,313.48914,223.97495
-905.66187,400.08737,196.96716
-833.50037,369.21878,171.67215
-717.15967,303.5207,111.82069
-601.3362,273.99142,61.609695
-547.6501,268.49988,46.918945
-533.1978,256.13904,63.152668
-629.90247,277.11664,91.379585
-792.9726,299.51907,134.27786
-1006.26135,317.739,214.10107
-1219.5048,339.14484,283.31982
-1476.81,308.08832,300.91003
-1633.602,282.3069,398.4549
-1515.7345,282.76352,517.67957
-1204.4824,215.99574,436.312
-1033.542,183.5777,417.3736
-867.6557,174.31378,367.92316
-778.44965,281.28415,287.01434
-636.95526,360.58722,172.75871
-535.344,450.79703,166.39304
-482.6283,445.20187,224.86696
-483.17563,416.85858,234.07271
-564.8822,409.8163,263.83942
-681.66925,414.2171,368.3001
-785.6159,403.40448,414.57178
-860.79504,394.2835,448.82364
-963.79364,398.40686,491.1061
-1179.0667,417.95535,530.0334
-1411.8325,561.78564,555.44214
-1211.9221,413.38348,399.4852
-1073.0002,317.3999,239.40784
-1073.626,379.84473,226.38606
-1101.5082,394.5398,170.0262
-1078.5048,535.46045,167.17969
-928.58563,468.48157,90.231636
-809.6792,505.3232,50.483677
-718.36206,496.87997,10.628606
-618.197,541.37683,-7.286704
-557.8142,594.85486,-32.179108
-435.14172,554.27167,-30.64733
-357.25226,655.1818,30.83759
-324.9924,762.9546,62.307316
-334.01733,805.02496,101.83758
-385.131,947.46436,171.62683
