# PAMAP2 dataset (wrist-mounted sensor)

acc_x[mg],acc_y[mg],acc_z[mg]
-1270.9651,549.63635,153.9729
-1422.2188,218.38383,353.3334
-973.5351,-526.2664,447.997
-820.8984,-467.05096,366.58078
-673.03357,-144.01515,193.75758
-611.869,131.63997,125.35734
-540.1239,358.26843,119.000496
-495.8921,428.2592,129.83264
-479.8458,399.24393,186.96317
-524.80304,330.00693,235.09793
-549.2573,305.5857,270.38852
-632.01355,219.97911,237.55847
-598.7063,135.56549,186.10684
-773.7611,122.98441,223.726
-1252.7324,138.46393,188.68726
-2172.5103,145.68541,18.710531
-1969.144,230.78758,43.23419
-1231.2302,183.99696,121.527245
-874.26935,315.262,207.81255
-604.04395,365.96838,188.56418
-385.81497,249.39381,182.3285
-501.9453,147.10939,215.132
-535.5966,-1.3962044,188.99611
-590.95557,-46.540554,125.509
-1176.8872,56.01699,82.01269
-2229.481,313.5411,177.12495
-1625.5396,819.4634,697.7804
-1118.1204,584.86414,699.52026
-1034.3612,368.70422,155.35036
-844.37317,92.82387,53.062428
-639.57733,-193.10461,127.86627
-613.1331,7.476074,83.77203
-524.0894,288.11893,45.679146
-445.9153,562.59735,11.781801
-280.61667,644.20294,33.54631
-408.1172,655.9866,136.25174
-1298.7122,771.1199,77.45026
-2987.0398,533.51117,-271.9983
-1588.6321,-94.63809,-6.2605395
-1240.7974,-103.7999,384.9712
-1300.4691,272.81717,347.528
-1129.8047,644.34985,200.39157
-887.04095,394.93222,220.418
-849.9817,59.48006,165.93245
-801.3749,-173.39398,107.95914
-661.84796,-205.89124,88.92416
-553.5203,61.26997,158.61292
-709.1993,493.121,282.45605
-836.7638,865.95514,581.2543
-826.9616,952.47754,810.95
-750.7994,497.386,567.6804
-855.5991,-50.65854,576.62494
-959.37933,-84.32849,583.9526
-908.7003,301.81165,358.20508
-772.5026,633.7391,210.77246
-722.5803,725.9349,163.41385
-699.39136,656.60205,114.80402
-704.61,604.2885,99.95989
-547.5512,493.2624,94.05389
-522.0009,389.08737,69.75182
-514.7382,351.23718,89.93497
-718.90656,310.22284,134.20773
-826.4155,284.24304,192.17735
-2026.8267,246.05872,58.81227
-2686.312,188.242,9.646866
-1364.4463,349.64075,330.12906
-1447.6973,591.11755,439.82135
-1048.1533,635.22266,296.4278
-821.9608,391.05716,180.73184
-518.38074,-24.426813,203.57004
-352.2489,-214.73123,197.6277
-295.8486,-147.75746,149.69427
-442.30957,-24.610804,47.061943
-591.177,149.66046,-1.8761468
-785.5117,266.50015,28.249247
-880.98083,345.38757,99.4643
-1006.53467,317.29938,115.17315
-1519.9763,379.71613,105.30957
-1870.0798,756.89935,424.45798
-1571.433,850.881,651.55273
-1404.0052,460.0234,228.31714
-941.8331,99.34921,164.14941
-824.6376,-138.4879,371.21976
-711.7528,5.851568,434.7972
-647.7465,253.52881,409.4087
-421.13464,490.68857,398.21457
-400.0303,605.15656,335.00034
-452.92767,542.4358,248.15001
-633.1977,371.1461,176.53326
-903.6295,306.72696,219.67258
-2062.5288,242.82988,80.5144
-2580.1917,183.89421,-188.75002
-1880.7572,86.11232,-2.7229216
-1566.3827,64.21781,158.62587
-1085.5483,451.39084,104.32901
-724.5892,354.48935,-96.73704
-417.62112,-444.81152,-5.912018
-99.206604,-931.22064,158.4155
-474.33063,-461.33743,155.86797
-776.9679,-115.78887,138.54497
-1808.5326,1038.0981,17.051018
-2078.2776,1053.4888,685.19574
-1372.4822,-240.67464,864.20514
-1528.1641,969.4466,355.09674
-713.08295,909.8538,163.32805
-562.69635,644.4039,58.135925
-398.88754,796.1232,4.1084366
-301.80652,602.1535,-212.0902
-57.962948,506.23935,-312.057
-150.18117,540.43506,-302.98874
-563.6828,952.251,-209.83003
-2279.5105,1161.5768,-390.69516
-2790.627,830.7362,-401.1022
-1729.2032,785.7051,36.7378
-1363.411,1258.1437,230.85107
-1334.9647,1277.9916,-20.201473
-1296.8845,145.51514,-386.75253
-1050.8124,-617.1122,-33.35933
-592.60913,-1022.47986,57.311752
-491.37057,-473.9534,106.9926
-1004.6463,252.73448,-41.93606
-1243.2834,1411.5435,-26.47567
-1067.7241,1101.2345,723.3352
-717.718,639.722,574.247
-599.25275,759.36414,95.999344
-831.2392,755.82587,47.053158
-656.9788,515.9685,192.52975
-687.2011,369.73007,281.41376
-694.10846,424.44376,91.01741
-635.7593,454.30136,-104.89285
-609.6286,780.7013,-237.9547
-378.53717,1045.5314,-355.60242
-110.143936,1260.3975,-595.5789
-117.62239,1210.4536,-1061.2241
-77.4171,1178.4957,-1397.9695
-214.55576,1166.322,-1320.8754
-372.87842,949.38464,-1363.7606
-499.51318,731.075,-1290.2883
-428.42734,945.7982,-1069.2806
-326.12402,965.046,-812.8057
-156.87915,932.8835,-570.0339
-80.505745,373.94473,-404.9465
-130.91411,396.29218,-456.94778
-82.02337,980.87366,-721.38654
131.4846,690.8728,-602.95105
128.92601,582.18207,-205.9773
246.13544,642.2197,241.22844
163.27257,761.98987,581.35474
251.6633,845.9271,136.9538
349.17535,1067.2434,-542.053
298.61353,1378.538,-823.7912
289.30997,1129.6572,-650.6697
366.32983,835.2547,-536.1585
250.30682,733.69617,-438.13687
189.08737,631.2675,-375.40622
90.4684,669.80444,-300.2111
104.060455,543.7103,-220.6997
120.864975,461.36807,-242.54112
231.23831,591.1083,-323.75073
354.76852,728.3512,-482.12122
581.3245,920.2917,-654.12897
710.6103,1022.264,-655.8541
871.404,1065.1235,-776.0651
752.5623,1350.2028,-958.9593
600.6914,1289.6486,-914.35376
403.1134,1338.5709,-966.52185
143.11719,1432.5338,-880.5338
-184.9144,1367.3589,-687.70056
-385.17755,924.7859,-339.4396
-344.50018,447.29794,-162.20483
-261.99097,113.51593,-7.1962013
-324.01163,-20.848732,113.7514
-447.59976,265.89908,220.63466
-570.72107,744.3368,362.01233
-609.77313,1043.3765,381.71378
-508.22385,631.34235,382.2873
-690.2816,416.05313,673.6296
-935.32196,302.7028,924.93195
-1073.7806,377.36026,866.2302
-1178.6224,306.44473,647.68396
-1140.4459,453.48004,542.6858
-971.4804,488.2148,450.43793
-733.47095,510.71735,308.3993
-614.4728,546.7233,241.23567
-646.5467,717.43005,351.6999
-585.2985,727.6907,381.489
-474.1343,699.55896,463.0376
-434.86996,523.7778,440.85382
-361.3855,438.01657,435.9724
-469.32803,254.65031,454.09564
-301.2561,201.83241,334.23987
-433.01013,338.66034,324.04797
-746.83636,775.2933,462.63678
-2674.5923,1454.4226,560.57904
-2403.3738,1219.8751,364.8023
-1537.927,544.325,386.7912
-1435.4163,519.87964,289.00986
-778.9548,429.95486,206.67021
-544.24603,153.15578,139.47083
-270.66193,16.741598,82.69256
-342.99927,222.27338,88.46926
-283.20636,351.8302,91.38553
-484.1635,600.9822,219.53482
-478.93668,547.59485,305.85553
-349.08078,512.88745,445.85165
-229.95227,502.65833,592.4849
-82.10008,523.49054,735.06445
14.717423,582.04443,1034.2177
-91.09805,787.90936,1113.0734
-302.24875,591.97534,1161.2432
-182.69272,293.4594,846.9668
-500.69815,756.3382,996.75574
-437.35245,443.30676,824.58826
-377.1836,453.35898,690.1151
-249.37953,367.65335,469.59436
-111.675674,435.68436,421.26376
-126.22354,416.3006,455.90247
-244.28654,484.33954,503.03488
-248.18,367.31934,502.87552
-337.4416,336.45694,624.279
-688.7532,501.5675,859.65375
-1271.9116,171.04646,1214.585
-1774.0696,108.73969,1367.0002
-1361.495,364.0909,1134.9569
-794.50476,368.15057,714.72235
-371.90262,277.528,478.0699
-333.71768,295.85965,306.6809
-564.0311,462.7462,778.72565
-567.19775,167.11717,795.63684
-525.69336,178.62924,477.27963
-489.22214,86.49979,222.82185
-694.8013,766.66705,383.46414
-708.88873,677.8327,657.45654
-615.4408,514.6483,644.8776
-520.1091,564.8496,863.25995
-512.21387,493.00977,1114.1587
-601.69055,222.5373,1259.6672
-594.1657,285.5969,1063.0582
-563.4803,399.87534,791.67975
-380.90756,525.2654,516.99896
-235.24997,453.85016,497.94357
-18.214735,354.9891,644.7889
159.31415,314.0715,671.15826
134.29874,376.69116,678.70123
-179.53227,339.504,788.1908
-478.16284,645.42755,787.81213
-621.0482,889.4393,880.1736
-753.78357,671.7862,1206.9655
-649.04144,395.08704,1089.5891
-417.028,433.01422,750.86536
-211.48705,311.847,496.1777
-195.91766,854.9446,539.04364
-381.06488,538.7591,1087.9954
-289.91592,267.28104,808.1451
-290.59756,328.53366,488.94852
-409.69186,430.1226,524.20013
-474.1933,295.87387,535.5113
-636.8664,455.2696,733.37335
-594.2999,464.77448,737.19415
-691.185,505.67188,883.2176
-923.52405,376.32962,990.9886
-921.7898,175.60011,1044.3746
-589.1513,-89.552185,836.7668
-441.82175,125.37084,760.46844
-469.34897,86.26369,839.5525
-389.94287,20.070879,663.9932
-214.72585,186.12198,403.41138
-254.11272,198.77798,159.17288
-519.371,295.61548,-359.82715
-1351.3407,1361.6713,-504.8836
-1670.0167,1234.8595,-133.30608
-1464.5953,994.65314,-430.105
-916.6508,866.6595,-224.28648
-472.19437,467.7093,-192.29582
-512.28143,439.74734,-129.35036
-493.06464,299.0343,-158.39554
-561.386,267.58438,-64.32398
-798.47437,259.86142,-53.344032
-802.4829,477.11127,-138.5692
-750.8683,587.54675,-5.6417246
-885.7681,705.6781,148.26694
-1106.3569,652.18475,125.22726
-1100.0493,760.14655,51.50811
-1101.2346,705.3036,-139.30423
-1300.667,563.1336,-126.73607
-934.44653,472.55597,-8.220338
-668.49194,550.9826,19.782011
-579.8361,533.1383,-24.875164
-943.2634,1014.4762,297.15808
-1114.3173,1767.9872,738.28125
-647.64703,531.01624,446.62955
-592.29584,700.6779,210.6022
-958.7194,586.4494,551.1365
-981.9922,231.88586,368.5328
-1062.5315,82.489784,181.67218
-648.6898,365.59116,862.1116
-798.9786,-234.20502,748.5756
-789.23035,-278.65747,457.63547
-296.6001,263.3503,667.0239
-451.04453,46.41716,553.9828
-415.93546,237.18094,968.018
-538.71564,271.03876,945.8996
-651.1486,501.50424,836.9916
-649.00885,380.3819,786.11273
-571.12524,252.84116,649.3904
-465.86688,12.214738,473.1196
-832.3206,-262.58582,520.1246
-435.15872,-423.40442,243.9915
-379.79135,-425.54688,882.35504
-494.89572,-695.74786,1832.0709
-640.7035,-548.6294,1136.7859
-707.3487,25.951082,705.8804
-521.5754,217.7153,691.68604
-506.42773,128.97714,618.5735
-437.96304,308.08954,665.5632
-408.2156,243.95439,820.17694
-277.96594,296.27194,887.4686
-229.67365,239.69943,1014.76917
-64.07736,-38.567677,1028.3429
-116.609024,94.86215,976.6453
-190.03069,245.47601,811.27423
-183.34685,240.8311,802.94794
-159.73633,351.9057,717.1885
-160.9934,370.44266,707.66943
-406.7127,365.95718,539.7889
-789.72986,450.98395,569.3927
-852.17566,291.7165,708.37805
-907.2954,157.14523,775.6909
-976.3884,146.05653,672.6388
-959.20435,183.69173,654.5149
-965.5033,65.2349,653.00903
-864.8942,4.437616,755.9848
-646.4003,57.181828,723.0824
-641.80804,110.70715,643.282
-742.05505,39.26825,672.7363
-868.55804,-9.962939,601.2231
-900.72705,-35.08641,530.86597
-952.72943,-102.50388,528.3223
-835.30634,36.74871,554.24084
-635.9891,-20.885284,594.00586
-512.4071,153.67885,602.78345
-449.2008,182.83986,569.5248
-708.0944,309.37024,674.13824
-908.4523,98.11069,716.9795
-804.41736,76.44849,597.7155
-733.4283,92.5492,628.5716
-717.18884,313.43607,635.0126
-702.158,608.13763,792.52954
-630.2882,466.07385,838.45874
-440.18652,425.71082,1023.17755
-280.70132,321.14536,1129.5286
-64.939644,343.00015,751.89014
-293.0084,620.82465,646.71216
-382.03882,555.75354,620.771
-210.21353,462.753,480.48444
-235.53632,200.84875,520.8507
-155.7618,219.3904,666.1717
-69.93089,168.8632,858.2034
-78.16176,-12.5760565,922.44885
-344.98703,151.84145,860.2888
-958.29834,322.88028,797.4053
-1906.4199,417.9656,1050.3269
-1850.0166,52.61951,893.9682
-1000.4528,-84.3323,520.7972
-680.11346,279.80667,568.571
-570.72644,387.56226,623.74194
-180.59438,-204.57224,298.50757
-698.49774,544.3216,959.534
-458.4761,225.97783,777.5111
-494.26965,284.72696,610.1455
-573.6078,350.0007,694.0883
-550.79034,377.3136,523.6255
-691.68475,304.50647,782.8252
-740.2497,217.10304,1019.02637
-778.8584,188.41263,1386.8389
-561.3885,52.373768,1103.1508
-569.67096,325.22464,891.86285
-514.2348,233.85512,688.7186
-509.88675,364.9735,749.4025
-418.31964,294.7168,744.96344
-299.05637,336.32333,756.10376
-186.72624,391.0704,775.9145
123.88,509.73264,483.2797
187.17905,301.6183,385.50443
423.92493,455.52377,361.73712
292.45422,717.5722,904.4393
-42.11474,637.6833,1315.7802
-699.9332,811.1884,1296.4891
-915.83923,353.46548,1255.0164
-672.5211,59.639355,933.5962
-527.87463,108.60659,693.9657
-374.93634,194.05907,530.5052
-362.68707,364.69922,490.43192
-529.08563,384.45895,671.4325
-585.6966,173.4214,657.3731
-675.21265,547.8091,489.62106
-771.58795,605.0775,608.7013
-828.0533,542.46515,675.5841
-622.30426,562.3512,640.709
-572.6721,464.12128,1284.803
-482.47427,-312.70093,1919.6045
-107.572685,19.805363,961.57025
-273.95016,663.8681,696.447
-220.86618,570.8112,554.4116
-266.60748,504.28775,568.041
-28.666544,770.2507,647.20874
187.3547,337.0258,520.6839
211.87839,116.730965,414.3387
73.47097,1008.3447,617.71075
-106.93965,697.35034,806.18945
-77.558075,299.824,934.13995
-131.7167,756.94,895.2287
-465.98935,974.37976,1029.0713
-934.2488,3.4021513,1327.4869
-728.4847,-647.1248,1150.1495
-474.79825,-90.90503,864.94934
-80.55523,-402.22223,422.4898
-660.4848,955.0143,658.84845
-700.3759,1154.6417,1268.799
-263.50107,2.0487669,319.91428
-481.556,887.5275,431.00708
-505.23767,247.04211,626.5802
-660.6213,-132.5518,1315.486
-344.63312,-232.13199,1701.6904
56.33153,212.5169,1445.0844
104.34575,199.706,1042.0801
66.60118,348.1435,900.33527
35.803207,289.08447,820.5745
-70.562485,458.4314,668.47296
-147.39812,448.00006,614.1609
-202.16147,443.87466,661.79834
-201.77542,360.53705,828.7508
-115.66592,350.27798,910.575
-90.75457,331.85275,711.15894
-101.62451,464.38324,586.50714
-244.29109,310.12982,819.5823
-381.9008,399.09918,1032.4109
-446.5179,318.53125,1303.7025
-315.6739,278.30206,1634.6483
-3.4239614,296.21906,1241.8606
115.72235,431.32117,957.1663
226.20297,361.4011,932.73096
273.74258,451.13458,712.8407
206.09358,495.1734,661.6518
55.755413,651.29236,644.847
-66.20499,644.35693,565.7261
-127.693855,1168.3043,571.60986
-224.74622,268.32025,827.6781
-218.4626,48.60145,537.66736
-4.5512094,528.52295,660.08954
-159.39333,87.72338,1055.9089
-19.466812,849.2544,1021.34015
429.25015,358.66473,736.3927
626.3422,789.8481,613.0204
539.306,-248.18698,1980.0569
78.893394,-142.64688,1532.9742
257.30887,132.04091,1324.593
652.15137,214.9188,947.7061
572.3643,393.52286,410.99414
108.837,74.06744,561.4448
-110.94049,257.41632,679.5906
-330.6832,264.98776,993.1103
-55.156452,673.6896,1001.9629
20.82404,412.48453,1004.30884
59.73605,600.57135,859.9843
-25.673838,520.0202,870.0082
-103.10527,504.57803,813.8379
-31.673206,528.20184,856.1801
-34.421764,520.9266,801.49384
18.815325,502.10602,903.2303
-30.099146,523.41724,1000.02167
-23.962479,601.16315,947.8608
-29.550276,681.60406,858.60583
250.70029,512.9459,647.9474
158.18643,453.74832,719.14325
184.94781,857.41144,887.32733
189.83994,618.0073,705.7244
135.28226,608.40845,606.61505
149.67493,794.0336,573.2123
287.78577,779.06604,756.8682
520.43915,568.55725,612.5321
590.4344,151.37695,634.1068
395.23895,372.52386,770.492
367.80695,-343.2904,792.6089
227.12013,-732.1413,652.07776
131.83273,-179.7125,567.46234
130.3067,-65.09397,502.19952
-162.33069,780.6458,1051.1615
-124.89244,338.16907,1420.3887
-243.9622,222.42606,849.0275
-452.49527,273.3281,858.0667
-586.2141,360.4307,1092.5736
-669.67804,298.43817,1109.082
-414.15594,-7.2500644,623.03296
-134.474,393.53873,245.02394
-275.89395,354.46893,590.88336
-364.90042,-0.33967316,868.6323
-434.18704,-176.38333,938.94354
-490.26474,287.6619,908.7972
-414.1685,503.48752,897.31067
-469.03265,583.15564,784.23395
-1321.0541,481.6368,1406.781
-1428.9429,-15.818431,1632.5863
-997.44,33.880047,1015.0202
-557.86774,357.80707,628.6822
-345.697,691.6735,544.0231
-311.95358,502.0647,543.2221
-324.00766,388.74603,604.4526
-240.00333,409.1937,653.83826
-223.9608,407.1605,601.83997
-271.66397,355.67023,610.2847
-316.79684,404.02625,670.22754
-333.74106,317.0108,669.3329
-466.82175,345.6548,653.6254
-655.54346,215.83199,758.343
-997.0228,137.5445,1003.22015
-1253.9764,-94.66799,1488.5436
-905.82837,-146.64577,1285.2502
-267.24005,101.00825,479.97464
-407.5426,448.16995,534.0216
-624.34595,137.57478,896.7976
-434.11545,46.366768,711.04736
-441.84363,443.56668,456.89233
-425.95645,276.85553,583.58246
-127.253395,368.61472,793.0008
-146.92485,180.45503,1033.6996
-493.42215,309.69965,889.98834
-1253.1594,365.28854,849.57367
-1527.4764,272.36118,894.5515
-1048.943,329.3054,813.4142
-704.9399,387.07996,810.6651
-600.78436,346.95712,879.9514
-553.2548,317.40134,466.26144
-522.1137,476.05438,190.92271
-575.3482,625.0953,82.19206
-816.4408,544.2156,245.81462
-906.0417,215.0927,67.18465
-1057.2437,358.6035,616.0344
-648.0405,-320.73535,1042.4614
-557.7582,63.79057,866.03784
-617.907,95.177795,794.2467
-585.89594,318.2287,612.01276
-350.29297,411.02756,692.4022
-139.0684,353.99426,703.76056
83.00261,297.67563,935.4956
102.59253,241.2612,1185.4906
-93.88315,291.562,1347.6492
-252.5101,295.79456,1183.4419
-181.49818,351.8879,781.3098
-293.04733,408.6168,837.31146
-359.5576,329.05942,806.1566
-286.85693,386.14804,682.394
-271.87305,542.3858,624.1918
-143.80646,468.6166,505.2928
-63.376404,394.7558,467.16635
-108.14355,383.80743,594.784
-126.61492,568.30334,693.53345
-255.83517,507.36407,952.6721
-520.0718,502.73578,1049.4852
-1366.2771,396.5158,1793.9562
-1359.3435,-491.47113,1720.3533
-237.55629,10.287739,971.95166
123.800354,505.74918,900.29346
107.131874,1317.4073,680.75507
-93.47176,392.69415,543.3599
-624.70306,-391.11017,440.95963
-897.439,-289.21838,502.72983
-677.06506,328.47678,806.0085
-459.0292,-399.79147,205.67123
-767.7119,1510.2529,1194.4412
1038.617,258.04813,1418.9337
751.79584,5.3376684,1191.7188
428.61945,356.3997,1242.8741
-26.448744,332.47052,864.45593
88.83068,488.07507,736.67694
209.9611,-250.37794,974.1733
106.176765,550.87115,820.5177
432.4254,614.86115,30.221533
504.66006,604.88306,21.075
452.9806,84.3813,504.33145
245.81514,477.22974,789.33844
267.24792,586.9945,571.07855
-10.037669,862.2831,745.53467
-598.0475,-56.179737,1508.3738
-534.1851,-373.23544,1704.3303
-758.7743,405.30115,1971.3251
176.28793,-15.948439,1721.4403
826.70496,603.70844,991.2747
402.5809,367.05646,990.7112
177.90921,722.4058,596.7416
124.72079,574.1317,277.37198
438.93008,325.28333,-449.44034
212.97836,625.8542,589.2957
-1.3712529,460.63696,1120.101
133.27104,-220.96321,789.0817
45.252666,775.7645,992.2123
-358.36755,-227.06009,2299.2957
120.91878,-273.74585,1424.028
826.41095,489.0089,1053.4402
890.0114,51.041008,1172.9569
555.8605,634.0274,712.78296
192.89525,349.20096,866.21155
104.222565,-14.785437,899.88043
152.6808,130.58383,823.5931
78.82308,309.14944,843.8212
131.70311,-90.43923,851.04584
258.86945,287.78934,776.85046
145.43321,125.327835,740.47876
236.0916,127.06068,716.4939
579.75275,177.5719,737.54144
697.39136,141.86475,615.87976
942.47754,-189.4388,598.15985
1087.3798,-97.540054,877.63885
1134.0227,-449.71915,744.956
948.68835,-504.46423,702.93567
765.29364,-315.3308,742.8271
599.8859,-447.78464,725.5168
617.7712,-242.79822,612.36456
376.05185,-38.452175,770.4988
261.33798,-329.97986,669.3253
412.43707,-49.883007,636.4846
473.9026,122.018394,738.34595
626.3801,-222.87086,875.6149
722.6527,-148.2101,920.9127
752.5318,339.2494,914.5222
756.8384,378.81754,642.16943
910.2875,375.88647,412.2334
1065.0624,25.325779,564.9182
1399.3235,-322.3794,460.31808
1111.3224,-906.9814,485.4995
708.8033,-635.86285,526.0404
370.6609,-268.37228,446.73148
145.35138,-279.70303,399.2283
-418.25876,-226.95988,548.76447
-927.54297,-37.97714,760.45874
-962.8189,-174.84688,631.12463
-1186.7009,-148.70215,881.7114
-912.91046,-462.95135,925.0157
-484.7831,-554.5047,778.3193
-431.0273,-336.3729,704.4884
-520.3424,-40.63468,694.23724
-577.9127,-257.05856,708.392
-773.8469,-143.0137,648.6294
-899.93463,155.7657,715.48346
-1009.3205,554.6138,837.29663
-1020.11346,314.59332,847.2909
-913.1893,-10.653454,671.5072
-968.3422,-240.75124,623.5517
-866.4796,-128.54584,727.34784
-677.15894,-76.63741,451.50482
-788.4076,412.50262,444.02325
-722.87866,413.6272,502.3156
-848.1537,385.59476,505.45367
-869.19464,145.91966,600.16437
-862.27985,193.83524,640.2609
-657.2194,244.3245,838.72473
-662.5655,283.57483,830.9036
-890.4888,69.71866,653.39923
-953.53986,-74.95234,789.27856
-861.93805,-152.55031,786.3758
-804.6462,0.73887527,555.2468
-913.92316,313.67596,568.69257
-911.4812,399.6825,732.30634
-933.70087,684.41034,680.2265
-714.44,771.7779,583.6265
-292.2666,349.1778,527.841
123.36718,382.41998,360.83353
405.9286,602.4831,181.96552
407.2003,979.0049,333.2426
157.2311,272.03125,636.3271
103.9661,136.02571,618.0644
142.65608,179.21904,581.3986
-28.488092,188.4154,734.60724
-51.854824,451.68597,961.1829
-560.9897,890.2133,1296.7198
-1303.2949,1164.7488,1482.5726
-914.8299,315.2322,1265.4243
-647.944,344.5229,834.6113
-239.61774,235.38638,598.4126
-261.53952,301.59534,415.37875
-421.2547,700.74567,742.85004
-274.7985,502.0379,597.8007
-224.9909,439.11658,392.95035
-376.36005,406.412,637.2301
-442.13098,142.99428,745.87335
-435.99054,456.17325,810.629
-352.23108,338.08643,794.1361
-292.52774,255.7154,861.6355
-607.8202,141.32558,1436.4917
-703.9273,-79.79156,1535.4683
-630.9425,176.38435,1037.2826
-513.4648,406.01114,625.6285
-372.4147,425.37784,537.5
-317.96402,374.36224,523.9339
-93.06256,204.40118,408.01376
-107.85772,510.0017,662.81116
53.47179,182.555,845.99207
-228.65547,26.24832,1113.7971
-544.9671,353.39404,887.3003
-798.3549,735.91174,640.1569
-1209.2908,363.78806,1103.9362
-971.0512,5.2852077,1325.8403
-570.6668,310.44247,1006.8356
-311.78024,386.47354,738.2923
-335.51547,477.29028,748.1123
-304.74374,482.24088,603.5177
-256.65106,315.14093,429.14426
-253.3861,322.88672,499.15884
-267.80084,514.4693,877.529
-225.08325,518.099,1134.8069
-310.07224,324.35837,1212.6317
-443.8637,272.39355,1141.1373
-432.8852,363.1159,889.91486
-330.94022,348.17603,645.41223
-303.13138,393.0517,607.4384
-175.76448,496.71347,536.2954
-47.122818,672.93823,489.1882
44.351013,623.7864,520.5714
-224.27382,456.8271,841.3518
-742.54785,430.1965,1216.1156
-1157.0935,636.8666,1058.6345
-1201.4099,527.4747,896.1365
-974.65625,216.63803,870.9783
-707.8021,128.62375,677.7603
-513.1123,619.76624,616.33295
-327.12427,744.8419,583.16583
-195.82387,445.8567,551.2072
-189.04149,117.026825,573.4071
-317.7685,350.52676,619.973
-528.26385,613.4087,651.1155
-566.8567,486.52188,455.58035
-841.1257,545.1209,689.30884
-818.61633,385.57446,1111.7944
-443.67554,159.82376,1168.3271
-316.77518,94.43493,1112.6628
-410.72397,285.92938,1180.6206
-392.66492,186.9384,1005.4671
-316.78976,339.20035,684.2745
-270.4424,488.89984,484.25888
-269.25714,494.9076,539.83496
-360.41635,350.82507,803.5832
-339.73175,245.53857,788.9025
-321.63104,364.28653,696.31537
-467.06076,589.77234,834.71985
-368.40152,486.49478,865.74475
-232.65675,643.6302,859.5447
-360.10904,521.4849,1264.3143
-588.68604,210.54056,1472.1185
-451.31226,340.7107,974.94464
-323.37296,515.4789,518.8198
-378.23877,614.8641,563.20776
-470.84866,396.16733,700.79834
-468.2395,343.19473,830.6625
-429.36026,403.53458,770.1618
-360.7873,482.82773,750.15436
-472.19467,250.7733,1029.1525
-315.08246,377.5272,938.6096
-141.20174,445.08722,813.32275
-6.5842886,318.2837,1027.5479
-112.48576,244.35695,1056.0355
-323.10678,336.83328,996.1598
-318.35797,341.14914,901.1917
-316.86508,385.6021,787.8278
-283.51492,317.25134,818.0367
-327.20447,320.38672,854.83954
-524.28687,336.0956,945.69257
-492.59982,516.3767,688.47
-183.94629,458.56873,769.5867
-63.33617,324.5468,725.832
156.8425,302.12833,719.3074
519.6949,-154.92485,1278.9749
680.29144,134.73772,1164.0609
364.07794,261.99472,1105.0199
191.864,265.49405,1043.6216
221.52232,193.35458,908.23627
357.3676,-106.18754,853.1989
220.48166,-33.822647,1019.1409
69.80616,94.7169,915.4272
-4.702174,55.461987,915.22925
58.538574,-59.44592,894.86633
217.49025,-51.11578,1029.669
500.02124,1.2801031,1062.8046
571.3716,-248.94264,1112.6211
482.55612,-102.97444,1060.2467
298.999,-167.96286,1208.7655
470.31085,-295.38318,952.1044
504.03482,-73.8765,838.04865
729.5581,-482.47205,636.3178
816.08057,178.53195,814.85175
582.0053,67.57636,610.7536
566.9461,-9.066765,491.64203
350.44153,-112.9672,527.8681
192.86633,-151.38081,584.03357
11.664207,-256.42477,686.8919
-116.90992,-88.08819,773.3317
-214.29184,95.47592,776.4842
-140.4464,-125.91338,699.9165
-351.32434,-297.1522,598.34344
-505.74408,-285.95706,609.507
-568.26166,-59.056812,621.1529
-611.5694,317.21118,731.34644
-528.61566,684.8832,823.28925
-842.2297,365.2271,913.9383
-1083.211,-115.55879,993.4098
-1018.3724,-34.697617,1019.2928
-1076.4965,498.56885,896.623
-1064.8464,1177.6846,1311.4122
-698.71295,-708.18933,1017.67944
-606.4775,-60.79791,662.2542
-734.0656,-389.36844,411.18332
-983.9704,643.96045,833.98364
-497.29395,361.488,986.1988
-544.03845,-238.0274,758.5279
-633.95624,161.07806,889.63074
-600.87695,-156.04843,763.8397
-641.73376,-72.57875,613.824
-716.96387,-28.329742,697.68335
-681.4649,41.810036,756.2297
-567.5476,-79.498924,761.8896
-570.87476,101.72709,749.047
-567.03876,384.43842,835.4687
-487.84634,211.72835,903.8383
-292.28275,70.096855,695.76526
-148.14273,266.85657,511.6153
-58.491024,481.24524,442.06088
38.32502,551.4598,273.32178
-83.785995,492.74405,336.25586
-291.43384,390.9512,732.0915
-375.62598,140.7257,1158.27
-437.1441,148.76491,1089.5127
-1075.2379,372.6046,1401.1442
-1271.1455,81.001434,1261.4003
-915.83704,188.08891,1013.0071
-705.63104,283.5216,903.3271
-549.92535,238.43129,806.5856
-372.25662,289.65912,605.74207
-245.24045,388.26196,499.45743
-228.07092,375.77545,457.78555
-338.798,242.29901,532.96985
-546.3033,99.05301,794.5824
-707.0852,366.66745,1090.1459
-582.7266,267.9481,900.1294
-594.685,302.67224,898.1148
-380.21368,372.97705,922.62384
-125.06965,546.59125,1116.6426
-53.845085,391.80914,1095.7583
-116.06389,522.53094,933.4424
-147.0254,496.01773,620.6888
-210.35898,309.06668,566.763
-339.8737,253.73663,654.8709
-422.3383,131.03577,752.264
-377.28732,118.94294,636.6544
-574.9448,554.0627,769.22784
-406.17822,247.67897,748.2338
-423.6274,466.60062,515.10583
-486.72818,337.1007,576.67633
-715.11554,215.68434,769.2389
-1004.0234,1.9931295,1323.6677
-1109.0732,-75.43318,1404.8995
-972.2027,63.000584,1042.2921
-961.0563,295.11893,844.344
-708.45807,396.51355,672.3038
-489.17822,356.45038,823.5934
-361.1194,207.991,730.26434
-400.02704,397.62787,652.35315
-277.7169,441.5899,501.4977
-13.697227,451.2313,336.3419
-58.144802,703.446,475.94653
-14.234958,680.50635,622.3047
9.006538,217.03963,682.1948
-177.70486,318.02042,1044.9896
-447.11887,468.77808,1413.8357
-766.04736,41.90029,1631.7241
-603.1219,-272.11383,1425.7104
-405.79068,31.219175,1107.4935
-12.009708,-76.49385,538.2895
-396.0523,610.76544,804.38257
-331.49442,797.9784,943.2747
-814.35785,733.0896,816.6131
-770.41833,-313.02765,717.2443
-356.51926,150.86732,845.2651
-142.67267,337.58514,935.48517
54.156807,539.9798,563.78723
-77.782394,508.30563,852.32556
175.46313,414.91525,455.05453
875.01196,965.29736,137.35587
757.1006,-162.06557,1508.6064
603.2695,-389.74298,735.70575
255.80876,1065.4496,750.9339
-414.0727,-105.103035,1412.5619
-318.4966,-264.8322,1081.7072
-59.06058,208.62698,270.419
-236.52878,1349.9911,515.1538
-34.0037,12.260145,327.5791
-238.79839,1191.6748,546.32196
-214.90724,558.07404,1070.9451
-277.0459,114.54524,832.2775
-339.46112,653.36194,1227.4751
-444.59177,414.27295,1249.575
-455.3254,375.6224,1343.9119
-442.38074,-73.098595,1313.2617
-527.2298,97.75878,1150.8864
-507.0654,164.41592,883.5939
-400.7378,236.80942,690.82227
-348.12457,217.20132,665.46014
-144.31677,317.02063,532.6723
-84.9746,237.56572,496.78464
-163.88457,368.41348,400.93994
-346.2685,471.69144,513.0455
-959.2825,829.64825,651.6589
-1163.0676,886.7098,385.78415
-1496.0969,723.9218,461.49088
-1452.2344,495.02325,660.238
-923.1554,262.65158,630.7113
-590.2521,145.92383,546.6813
-393.9954,212.48593,345.7391
-441.33734,279.4982,306.92148
-443.83524,559.6091,296.08517
-546.9333,482.1427,499.11023
-470.7304,507.2778,487.2834
-1210.9169,559.01227,604.2872
-1251.6958,869.65344,829.28705
-1032.31,731.75525,658.0515
-815.98706,569.85516,678.8323
-624.78314,582.9417,649.3546
-670.2161,100.572395,389.39694
-540.3429,323.5964,475.69922
-472.46497,386.8591,382.1289
-473.05338,300.22388,541.8602
-469.18692,258.69473,400.3933
-584.71735,284.26462,649.4747
-585.5698,275.4448,397.0863
-1338.8811,1100.1138,2224.1086
-881.4011,420.84366,1004.7395
-1303.3407,1288.0441,-351.2902
-1042.6119,211.39433,295.22015
-338.01233,123.78621,61.634068
-500.3024,20.444166,686.5853
-520.95435,364.9715,663.81696
-444.3599,403.83267,789.39136
-429.6668,241.42395,768.1003
-511.52036,383.17142,887.4858
-601.7076,666.22876,696.1497
-801.55286,878.22626,610.3047
-669.871,257.91232,415.53796
-793.8566,484.7984,826.2859
-552.7294,531.85895,658.84283
-571.1844,656.40137,516.2276
-464.30405,349.15314,581.1233
-416.27936,133.44308,640.5605
-283.98523,9.651001,1114.9939
-294.20248,224.37823,1181.3323
-375.74628,155.3828,878.87744
-444.0419,388.02527,652.9155
-439.71085,223.51866,840.9244
-498.09085,60.0508,1108.1566
-362.46457,169.02623,887.7107
-353.10986,328.22794,925.4175
-172.58162,259.79724,874.6036
-183.0478,591.97437,801.3856
37.390533,321.44327,817.2848
8.698522,357.63153,1359.0542
172.7979,213.38528,1112.9409
53.585266,328.86426,952.02057
27.276793,29.625328,707.7829
-207.84708,850.10724,311.13165
-228.42558,999.7206,626.3803
-234.1996,-240.647,1444.552
-148.52571,34.387917,1118.6403
-125.53672,414.3558,663.2223
-254.63188,528.3078,823.413
-147.01384,304.53528,1070.4431
-83.289604,361.35745,981.99146
87.156,626.0112,965.3325
205.79605,167.95694,1129.1573
-39.777355,31.455978,825.689
-182.59978,161.43675,1000.69305
-164.1479,118.20496,1018.16364
-43.893505,132.13506,1033.3098
-6.2606144,341.84723,1028.3574
-12.551724,364.6261,940.0608
58.36787,346.45355,660.6192
161.09914,245.14162,443.98947
479.6906,276.32855,69.48784
516.69904,1081.7356,-99.74254
302.93607,1106.7373,199.87158
-66.27142,842.8855,556.36664
-192.50255,13.076567,850.94995
-143.07596,-161.368,916.3512
-87.60782,-334.43427,841.62396
-583.06665,369.81375,789.07886
-1096.2925,1189.0063,837.78076
-1303.2234,386.80255,1431.4755
-1494.2697,20.573502,2303.905
-641.7025,127.98616,1236.5271
-161.8071,139.83563,509.4094
-110.72289,358.7927,500.66345
-340.79007,618.71844,702.7653
-334.39285,554.47327,805.198
-313.64554,474.82,528.7157
-204.79094,651.0494,333.1341
-194.95331,761.8688,405.59802
-40.482594,391.10605,423.28265
-533.04346,646.0475,1346.316
-1068.2838,-1001.3902,2781.1611
-304.59903,-705.38495,1316.0269
-267.33554,675.5969,622.02075
-494.54135,509.7843,1027.9839
-324.11313,91.25544,988.25323
-137.28033,33.6564,773.0284
-89.84576,577.1142,477.7423
88.27673,467.93253,401.78873
212.3241,568.16547,187.54416
442.86008,727.2503,100.95482
343.73154,673.83417,225.47182
257.2136,829.6356,983.57495
83.08769,82.54718,1129.4943
-384.29953,731.9536,1315.4828
-583.21515,776.8145,1304.89
-794.59467,41.637093,1397.0312
-503.83408,-571.6928,1000.76056
-470.7865,44.81613,709.6091
-597.0368,427.60928,673.1068
-468.12384,259.41998,560.5737
-569.5753,183.97467,404.0339
-732.592,963.88434,830.45276
-296.09164,506.626,691.1908
-532.86005,585.0066,1070.2782
-216.07526,-590.302,2019.6213
357.9931,444.37515,1164.1428
481.01584,393.0653,832.2725
321.83463,277.45663,619.2755
210.68729,602.6378,457.79703
225.65773,606.5263,258.7022
124.447044,699.94586,430.50403
154.30138,343.12698,538.91205
89.82763,433.1741,779.97797
-119.706154,326.8169,855.1734
-96.81826,514.4533,835.3995
-572.8242,620.1996,1182.0348
-646.10394,-253.01595,1597.0465
-499.39035,-213.17203,1331.7633
-769.7116,494.78235,1207.0261
-509.2856,618.1437,1341.6125
-357.18335,97.34678,665.5243
-247.6305,367.20883,598.82214
-185.22264,532.3413,695.99835
-211.12086,461.61856,663.6246
-256.537,530.0928,518.1805
-350.1421,627.8087,558.04877
-443.391,533.6121,729.3546
-769.74646,590.45844,1114.8068
-663.5598,-588.72894,1371.0995
-110.43579,-424.10925,1460.3114
321.09546,461.61255,1244.9302
183.75826,189.75735,1279.2936
-3.6695113,119.35676,1057.0872
109.69003,581.49426,646.39764
357.72308,550.303,234.89452
421.0491,495.17822,99.05009
455.7673,271.07468,112.211525
351.24026,451.61716,309.0846
220.37465,540.58887,371.16837
76.01342,596.45856,526.69543
-79.43897,549.9914,892.76746
-157.80318,223.49179,1563.3745
68.89234,412.96927,1423.9967
82.238304,551.91656,1200.9825
-119.70137,474.6028,1423.074
-134.64468,271.83972,1336.7473
-27.16993,432.14227,1159.9963
107.703316,310.78574,1130.6804
145.13336,260.93146,862.8746
-13.827467,480.1305,816.8919
-174.78091,204.9921,721.7949
-469.9921,362.64322,794.2705
-542.5533,491.23535,698.1307
-364.8584,180.766,561.472
-520.852,-34.172054,343.69702
-684.18475,-169.82828,424.42258
-864.26324,20.620686,734.22235
-642.1056,-78.65467,691.3132
-781.3845,-201.3533,581.7707
-1029.7589,60.8348,605.8848
-953.41724,-9.50398,635.331
-868.4886,156.11671,723.6513
-697.5773,286.99445,838.65485
-872.8001,86.93036,470.57388
-919.99805,-181.85835,473.2937
-1025.1315,-637.1658,876.41724
-938.55304,-799.3871,850.88477
-957.9161,-593.7814,1111.7814
-749.3327,-650.1418,1009.3953
-630.8377,-485.6814,899.56226
-569.62354,-162.90985,661.27606
-595.56244,416.36484,623.1192
-582.39484,578.9111,542.66003
-698.1687,230.81541,567.284
-872.074,13.57819,483.13284
-798.3276,379.6749,501.2979
-757.40967,487.85245,241.19229
-750.4253,395.85327,778.7595
-629.6005,969.15247,1553.4105
-495.1468,259.75177,434.57794
-474.26114,568.0442,667.30255
-429.9506,-127.09768,574.2149
-527.4315,-221.70457,635.84735
-572.24335,-221.6567,831.8612
-546.8196,-596.4845,1034.1595
-480.328,-301.86084,865.931
-278.8389,-231.69817,870.88055
-333.4018,-319.97098,747.75433
-248.12108,-116.9807,519.6295
-356.16592,-1.7181636,570.5934
-400.9441,354.59802,771.5461
-424.75772,364.36163,858.5159
-657.86554,338.54434,732.7312
-834.1908,239.93208,432.3724
-878.0467,203.15038,660.03766
-959.0894,77.494835,666.2124
-943.83984,26.117313,618.17944
-952.1618,-51.154453,649.22675
-971.69714,28.786608,817.99506
-908.89984,76.0793,877.0736
-695.7183,84.49464,739.4677
-625.50946,172.14441,606.3188
-622.4943,250.63316,587.1324
-714.5021,275.76413,565.00616
-682.3728,365.5387,442.07877
-560.2782,263.8325,271.35526
-688.38367,362.0292,536.5062
-706.17596,323.04092,673.3406
-562.4419,220.13914,605.71045
-451.39505,259.3857,623.74756
-499.59534,390.61078,721.818
-485.743,410.38858,686.0153
-578.9922,361.96466,808.00305
-695.9938,396.89447,866.32227
-687.0108,45.89908,1195.2556
-681.8064,42.286285,1261.8
-508.99347,598.9871,659.44366
-779.1635,395.966,474.59244
-756.77185,173.65846,844.52594
-418.0151,66.6776,958.09454
-73.88456,361.06177,874.0226
165.67886,439.48987,889.42554
155.48933,446.0598,773.88837
-70.101456,177.69742,663.6419
-270.37128,312.05627,605.71246
-745.56665,343.151,663.1287
-1165.0189,354.53958,749.6195
-1586.3086,289.82214,852.83276
-1564.9968,-65.17448,775.1526
-1062.1023,203.94304,620.4324
-618.4256,493.0189,690.18066
-442.66904,313.228,786.6668
-244.32626,192.45233,631.574
-260.30783,320.324,613.0694
-305.22693,448.09787,631.6581
-240.41957,314.45178,451.76413
-452.70734,488.8322,593.34595
-450.2959,274.97556,646.9489
-599.6621,255.89462,797.86957
-838.6739,273.3358,847.05347
-853.4833,207.19437,759.9509
-1138.6921,154.2629,799.8184
-1197.3239,104.641304,919.0163
-927.8418,148.60445,897.60004
-579.4237,201.89706,747.03534
-346.7995,353.72223,600.18994
-213.65167,469.88342,573.01105
-138.77542,286.51523,556.74274
-186.32372,388.11502,690.49176
-169.8321,410.2641,751.6852
-257.52957,342.08136,813.7914
-662.9912,186.64859,857.40344
-1533.6085,517.9391,961.17804
-1626.3853,334.75836,851.25775
-1277.6313,317.85953,825.78937
-821.3065,287.4338,622.6005
-293.76047,727.19727,482.3839
-384.0345,571.50134,815.3939
-272.706,-2.6102886,813.15765
-161.87778,106.89523,552.1435
-282.1885,372.90094,719.5137
-361.93256,418.04242,833.135
-428.6393,571.415,873.4207
-399.3224,540.8562,779.0228
-126.13691,583.83887,805.87085
74.77352,662.86383,1155.9978
58.028717,390.2334,1224.8623
240.50172,123.08553,677.2318
57.726,277.4483,541.35187
-273.1122,598.49475,908.94183
-159.8636,407.59695,749.2619
-243.63191,670.60675,634.5623
-59.75697,537.8336,454.98862
123.448814,491.72882,348.36682
69.25116,383.34406,635.71466
28.19226,450.4486,891.75
-588.2351,967.9932,1557.2506
-676.3748,591.21875,1507.6951
-688.967,518.87115,1346.9199
-430.2402,208.44482,1073.8204
-121.98119,135.43799,735.91473
-56.65356,271.8853,554.09686
-86.54915,440.64557,438.8622
-74.20986,458.85126,246.47665
-211.73956,759.91693,216.34496
-187.42792,685.0254,182.01788
-290.8512,846.41974,464.5321
-231.60245,748.86176,976.30896
-347.50836,479.04343,1705.187
-637.1883,390.0788,2258.4038
-353.77686,-291.65262,1731.119
-318.46042,-74.47941,1091.8792
-230.48639,204.65341,705.8289
7.3505077,524.89716,254.85101
123.7007,590.3804,100.861244
181.7141,592.04065,54.99737
173.05011,644.033,114.45645
89.02766,579.86755,281.26575
-208.20262,647.51514,655.8658
-356.0918,964.6725,680.6351
-361.23996,1094.4706,819.713
-494.44165,987.09674,1119.9629
-854.89386,1566.4608,1171.8383
-592.7168,888.3639,845.07904
-246.26558,509.61414,661.2589
-84.050575,385.034,658.5716
-62.165867,383.91058,628.03186
-90.21391,353.24774,538.79803
-100.64157,349.38916,487.92874
-59.8046,443.84064,480.5442
-216.63152,445.13174,653.4721
-264.7072,860.24084,794.7158
-218.94313,1127.05,982.6923
-7.573869,676.13336,1299.9998
-133.44444,819.4716,1226.2778
-109.82787,569.173,771.8648
-169.83649,557.1219,644.5678
-201.93866,481.6532,534.1112
-126.14021,446.6458,535.37524
-110.29034,567.5509,657.906
-27.97631,480.84985,737.0086
47.66422,245.74207,653.8966
-108.10014,445.907,739.2891
-212.48924,531.3505,723.97363
-441.42307,687.01483,700.3553
-839.7927,851.3726,707.8977
-984.3072,923.91815,649.3231
-1067.126,669.28754,729.5785
-800.1204,156.6389,523.55884
-1035.3289,399.00943,817.36694
-650.82043,388.12457,753.2135
-351.77222,199.42082,537.5679
-440.71307,517.09283,667.486
-403.06366,286.85638,539.665
-494.35834,379.61435,574.8183
-598.0745,420.0754,501.71744
-796.25977,411.90918,542.64355
-1103.0125,322.3509,764.6109
-1124.1526,-40.617073,1138.2367
-774.264,37.779335,1062.7698
-575.49164,256.3035,694.66473
-405.5068,258.08008,521.64014
-364.54224,399.2469,603.87573
-345.78946,395.28925,615.8168
-235.93292,69.77285,613.60205
-285.4051,63.103996,771.58374
-365.543,45.606785,903.782
-614.1275,80.0953,879.5628
-1167.5663,420.66098,902.8669
-1575.7228,348.2974,651.4597
-1649.9044,364.5304,686.5104
-1125.4556,-65.677155,692.615
-772.97955,119.00315,724.89056
-553.1653,68.97115,636.38135
-510.2537,246.08209,823.3622
-417.71448,115.173996,840.3242
-468.44882,211.33476,792.6282
-491.03223,130.05432,389.48605
-562.753,179.61235,153.52194
-540.7279,445.0549,-160.33588
-993.3717,1264.1938,388.83636
-852.88043,1089.6165,604.6334
-704.9929,625.9413,410.01544
-573.6276,292.43283,60.98781
-1126.8688,1055.8086,542.8448
-835.1746,809.866,433.9391
-529.9296,313.76746,66.112
-790.3904,640.49164,428.44916
-776.78674,338.7238,263.771
-904.1425,363.9255,255.95631
-639.05286,422.0828,-51.06366
-662.76056,807.0688,-184.22856
-504.84705,804.302,-259.0414
-748.5378,635.0254,-94.18481
-1094.148,573.1627,-193.57236
-1605.5917,841.94653,-235.18253
-1253.3433,-270.17264,-49.142323
-820.29095,629.63135,-51.23721
-461.92963,998.2082,-15.713742
-608.4447,572.1963,61.193413
-636.95306,710.0771,-49.082726
-819.7894,609.37384,-73.515076
-1065.1146,404.34396,-102.85259
-974.08636,469.7753,-308.3949
-817.8093,797.9134,-104.295425
-557.5983,917.2465,-45.717163
-570.28064,953.7281,-67.311195
-667.4569,344.96133,-32.371998
-863.27954,334.02792,326.22745
-1073.4098,490.07806,230.02509
-1022.10126,-199.67526,376.38428
-1101.488,-313.37057,175.28705
-1200.0593,146.30359,-118.76619
-1014.12036,-310.97598,16.817307
-796.78925,351.93375,273.27887
-890.3171,48.729366,426.09818
-921.1873,-2.6470869,354.83374
-818.0091,-26.184378,440.30035
-868.7856,39.06698,389.13245
-762.0527,-338.108,473.39346
-832.3691,-218.45483,414.30832
-1113.6057,340.18616,342.31293
-1145.2897,-201.92686,525.4975
-944.1056,-2.6880906,334.3684
-726.7695,69.15226,294.77533
-926.76154,-3.1302137,499.03973
-887.8301,37.458775,280.20422
-707.403,-137.9805,535.0098
-649.08124,-96.51761,721.6985
-760.7474,-288.53192,817.71094
-600.5122,-126.7257,664.7173
-586.1712,-311.36737,956.5935
-523.3912,-284.00412,760.0771
-471.05313,-281.14706,773.30023
-478.911,-259.89328,857.41974
-438.80188,-400.8856,702.8207
-434.0281,-53.530178,921.0332
-262.0206,-3.7465954,980.4483
-172.85873,-809.5902,605.7489
-423.00204,-1111.4811,606.7262
-658.76746,-660.4536,625.5445
-681.56635,-861.89734,655.5756
-536.25684,-131.14685,323.1137
-857.3607,684.3961,863.3612
-601.94354,-542.74854,896.78156
-707.1521,194.37805,1262.6271
-328.5716,333.43524,951.46954
-57.43806,282.11514,716.9741
266.069,653.6553,676.1179
527.2153,199.10791,707.6922
667.07635,88.30478,784.7397
686.27075,710.80615,938.03894
664.244,679.2087,925.10046
373.80225,733.2721,1049.6334
-26.93921,771.4558,1043.3623
-253.52028,962.61847,1128.5891
-421.0799,901.5548,1157.9032
-230.36935,723.4003,833.10736
-383.81573,881.7921,831.0858
-377.594,544.1333,725.36755
-255.50577,130.43756,474.8838
-314.34854,76.9572,481.84067
-625.0299,117.80406,735.8169
-1132.2256,309.20706,1181.4487
-1137.7087,149.86826,1307.3279
-706.4194,86.2434,828.48785
-556.00806,352.2813,635.9133
-531.45715,661.0346,734.1596
-462.35388,768.2401,1028.7562
-143.36223,436.0183,1080.3629
-72.947266,539.5842,1053.3135
-110.313736,459.076,879.192
-220.86578,467.07928,757.7587
-229.16325,526.9346,633.17487
-216.60002,775.58093,549.184
-81.99976,646.03564,450.8989
-79.53096,640.60645,507.1137
7.0440617,591.804,540.6043
44.53883,645.4155,635.1598
121.574936,713.9765,694.43756
193.86292,784.65125,780.2405
84.764595,609.40704,868.85394
-8.51533,923.6465,791.07733
-27.102552,857.07086,841.8979
-158.78487,1228.71,819.6717
-149.18642,1016.09125,730.105
-164.8559,722.2096,625.4546
-36.547825,169.0564,757.35785
-11.453608,369.4206,521.94904
-120.43323,530.6698,167.64511
-973.6566,1453.7734,622.4797
-801.0054,1395.0441,505.14908
-497.95013,561.6726,320.43018
-355.74026,281.51984,373.02237
-318.65866,446.36264,493.5422
-458.8182,684.6836,559.8524
-396.06714,644.03687,486.44467
-211.60059,339.117,363.32904
-127.06407,302.63242,376.28192
-110.83783,516.6552,421.04788
-99.74196,956.81866,429.6196
106.629196,1172.0619,360.19565
323.59805,1134.5841,413.17462
621.7449,962.4352,608.2403
324.831,1236.6232,1048.5165
-157.33589,1499.285,1180.1132
-49.855137,1091.24,802.9143
-28.885849,780.0029,672.1565
52.476128,688.0351,542.7362
49.83074,527.21625,474.9526
145.47852,477.08115,384.69556
264.6916,510.2647,267.76575
392.65054,586.1223,210.00829
469.18088,406.2486,85.58673
563.2359,27.040379,-31.31204
173.31001,317.68353,226.1104
-522.6783,1327.9022,688.24115
-755.411,1307.497,754.7601
-802.3653,1171.6755,699.2477
-914.1138,1005.54285,887.08777
-1305.9652,869.2487,1065.7788
-1032.8911,588.32996,789.89215
-673.59045,404.4659,608.4601
-306.40152,395.93524,428.83273
-236.8488,714.20514,385.13168
-236.0368,685.6057,429.95102
-229.26212,588.7567,441.7728
-166.26369,564.5617,333.8424
-351.21146,763.6091,341.5708
-467.55725,973.7031,607.76587
-473.6641,562.4124,578.49536
-592.461,495.467,723.80597
-616.47144,481.2701,1008.3203
-598.1802,147.33966,1629.187
-292.86658,295.42526,1424.961
-93.869194,639.53674,763.0033
-197.04561,369.66028,612.3294
-410.40857,372.73926,675.492
-396.36606,192.55421,654.2171
-389.99307,265.1464,555.64703
-384.24973,366.8641,524.64044
-412.48352,512.38196,502.10074
-395.84253,677.17896,689.09534
-247.88585,559.01483,662.3835
-101.576294,431.5978,752.6031
-251.17761,420.51413,869.03503
-603.8567,391.8586,857.2361
-1200.2445,261.52362,877.77374
-1498.2554,60.365025,964.6854
-1148.005,100.43303,816.57477
-778.8477,272.8985,700.306
-477.22415,269.56873,676.35583
-380.37646,266.5273,685.4173
-233.9396,382.56677,587.5427
-153.24313,473.85672,578.9278
-126.681595,517.0507,570.7213
-99.25403,481.89072,456.20865
-256.41888,484.5502,590.6564
-488.7385,276.31705,853.37836
-681.12555,267.02872,1004.1162
-844.2544,208.15523,1131.3757
-688.823,354.1506,1108.4017
-496.79865,337.98886,1035.4943
-350.91565,397.6362,920.17847
-306.04333,350.98758,869.97186
-250.91286,438.99533,800.7229
-206.92789,417.86237,775.3771
-68.35633,440.44492,670.0358
-63.34139,396.8624,605.5321
-87.94831,426.9086,646.98315
-172.13084,452.0584,772.4314
-370.76974,697.97345,847.9801
-739.61945,698.96545,1070.2832
-1014.3279,643.1632,1016.7391
-1106.0167,584.7323,839.0605
-729.6562,272.469,516.3358
-510.21512,448.8406,372.92404
-276.7428,360.44208,252.42651
-379.4109,625.9701,431.3461
-449.88446,530.88477,634.018
-537.26117,220.21529,731.34753
-567.9836,264.66803,758.3241
-541.00024,212.3751,768.0054
-546.1172,363.2615,727.271
-748.9277,461.98654,985.94775
-763.873,341.26047,874.442
-1072.5629,434.1186,1116.9044
-816.21924,121.041046,1110.7849
-677.43134,173.66788,995.8038
-352.1049,137.79854,773.40063
-377.86572,46.312317,714.0795
-231.2242,-354.01718,562.00244
-632.6442,-20.159264,895.30493
-398.2689,174.81404,467.3983
-911.9398,457.76767,821.4817
-1081.975,280.31522,142.29176
-611.8576,734.2337,-44.091278
-1290.167,1223.1836,416.57684
-586.2731,1070.4847,0.28181562
-1081.357,643.996,-80.12135
-1024.6598,507.62988,356.66214
-698.3157,-43.77365,735.20056
-507.62686,-94.35037,839.0947
-864.6117,239.30138,953.4985
-779.0327,52.473904,730.7391
-608.3737,164.3128,651.8118
-470.33728,140.79347,611.7652
-586.73596,20.027302,684.3418
-547.1139,18.108316,654.8598
-740.89966,233.26097,670.4916
-648.9044,393.15872,620.29285
-537.0227,203.72153,688.04535
-400.4003,-175.24321,618.1191
-340.35898,-120.00397,922.1225
-500.4985,-406.10693,745.1869
-629.34973,-434.52408,682.66644
-530.7409,-589.9945,771.624
-532.2307,-907.92957,796.937
-460.41904,-358.0399,572.9261
-504.65167,-306.53287,546.8543
-553.74286,-528.245,665.04456
-756.301,-313.19177,823.3638
-617.462,-68.84325,780.3956
-745.2742,-147.60062,705.6997
-683.8674,-250.68478,579.7789
-802.614,-122.24336,605.3736
-782.224,57.421192,607.5941
-819.65826,-320.5251,622.73254
-901.72266,-498.83044,547.21185
-1042.2023,-451.20932,692.7902
-817.6193,-378.72153,689.9171
-950.4105,-409.63425,725.7054
-792.77405,-383.85184,608.5525
-848.5388,-161.68022,675.1856
-600.454,-230.02245,488.7061
-465.97284,65.92663,563.09
-470.83725,-18.953691,589.6666
-394.17746,63.118065,497.71085
-390.65762,-315.8077,349.12378
-569.7516,404.7657,390.50235
-697.833,275.40552,507.06458
-952.3549,272.57684,568.3157
-1461.2318,1200.2588,885.418
-1186.6085,601.85516,721.29584
-215.73761,398.07983,896.5424
115.70707,-225.83357,1535.2751
-568.69324,-70.18272,1100.1165
-570.3412,0.3463117,627.4896
-670.0624,194.05283,526.4684
-764.77765,246.41373,613.2654
-612.6925,151.86977,675.24927
-683.5579,192.66328,669.10425
-549.74634,243.5089,680.7001
-416.01038,433.58624,810.21606
-304.19724,350.54477,884.93713
-46.428333,340.73245,781.0948
137.85829,558.9258,575.25726
115.141655,749.4692,430.41586
155.51328,794.8566,321.50668
91.69581,550.82556,271.4716
-5.5100956,328.3635,800.3553
-65.955315,217.45549,1107.5796
-533.77057,750.11865,1114.6727
-1048.9968,370.52283,1251.5184
-1077.1808,206.67448,1156.6785
-1061.4086,206.14146,1148.4717
-635.49915,256.5922,930.0252
-468.49826,242.84879,687.148
-342.01743,366.73822,605.46246
-402.45557,424.2398,679.056
-336.75995,380.71127,645.8022
-432.41907,339.00473,609.57574
-483.00867,454.32953,680.9329
-462.64288,278.57867,795.5288
-304.7981,383.34903,596.78345
-247.44804,481.1918,605.6028
-315.8185,190.23189,941.68024
-545.49493,253.03644,1274.6531
-755.3547,208.97246,1432.9679
-648.20605,218.97379,1134.4865
-417.6614,216.49506,767.0695
-342.1582,344.41486,635.2805
-248.67949,351.19046,601.21326
-216.04668,409.1283,599.4425
-206.53287,394.12106,649.8251
-299.22733,372.71176,747.4752
-312.31244,279.74994,802.26416
-407.2989,388.7624,811.1464
-542.3423,397.66208,888.0028
-817.9592,476.72885,949.3924
-1047.7671,408.36478,1077.4385
-990.02216,253.9666,1032.7385
-671.6111,304.56497,837.72797
-458.79956,353.495,649.0082
-357.34348,320.24777,582.1655
-386.09964,452.73816,562.30426
-374.61703,384.00272,559.90155
-494.58987,406.27478,583.67615
-523.455,408.11276,662.3704
-551.4669,342.15833,698.63995
-509.6007,411.44098,820.0856
-413.9825,307.7104,970.26117
-240.06354,331.35605,1117.7872
-74.69398,313.14252,1127.0084
-136.43803,280.86172,1141.1036
-385.8885,340.39407,1096.5231
-335.7863,376.02286,813.3122
-240.04504,397.39008,615.9758
-152.61421,398.18484,513.0009
-133.3799,425.07516,450.4105
-251.1843,692.1654,697.598
-188.07144,482.5572,755.34686
-169.0173,410.72925,708.16345
-284.77026,510.70935,795.673
-435.6501,575.4089,843.18823
-658.4724,724.75323,1024.6011
-809.5834,518.5004,1299.0474
-855.15015,332.53268,1344.4331
-605.5892,204.2873,1109.0989
-308.30905,284.2574,819.4244
24.439795,264.86716,550.4185
151.4799,450.47787,326.1906
178.1416,588.7082,149.84302
82.372246,844.80145,156.02544
-6.4191585,860.07556,321.87958
34.918262,826.4731,503.37674
59.26357,687.6818,713.412
8.647757,860.9988,764.1508
-431.19394,650.7216,1302.4092
-818.74054,-156.39801,1862.3628
-387.99292,214.9013,1236.085
-207.84416,498.87958,721.6356
-117.86675,617.48267,458.81607
14.503869,691.9125,257.7581
437.17606,969.32587,66.00099
449.10425,926.28577,384.65186
299.73666,424.2603,632.0745
61.96782,293.31586,916.9146
-685.213,1006.908,879.3103
-1210.0464,720.7787,723.28564
-1059.5745,41.044704,696.5114
-988.576,47.68377,479.75485
-878.18665,253.6195,334.77148
-724.53485,276.98856,312.02783
-523.6341,315.77502,194.35455
-395.97232,236.09184,65.68685
-678.69855,209.97313,40.50954
-1449.8328,248.07283,-103.54425
-2559.7512,675.7889,257.12018
-2095.0698,719.66705,749.66736
-1139.9103,477.93155,573.3608
-1133.4884,588.10925,331.46204
-985.4249,407.8898,64.56762
-785.01355,133.4019,172.66826
-705.5953,156.35194,328.5952
-597.21484,243.37973,387.79648
-518.96716,463.61545,358.08035
-456.84705,558.13885,219.06711
-474.92706,708.5669,131.1281
-903.1793,847.73016,154.88698
-1797.4381,916.3872,-84.341225
-2423.8608,351.2122,32.090973
-2454.9429,-238.21129,200.07085
-2297.5205,100.05679,310.832
-1915.9581,480.35834,110.63559
-1326.2795,776.2718,80.08873
-1165.3883,608.4608,122.16842
-986.8134,378.627,47.093082
-833.901,44.33868,44.70439
-748.608,-133.6957,95.69145
-714.6158,-207.60672,117.04968
-817.7444,-88.0322,91.07224
-732.7378,73.70146,60.370777
-610.655,254.90178,194.91418
-688.08746,390.03812,458.65823
-814.7638,433.16605,543.35046
-1032.9276,112.42753,326.617
-1368.6674,-174.78662,299.8998
-1800.7483,-133.1081,215.8576
-1927.9087,531.01794,156.56456
-1428.2662,902.22424,188.98283
-1025.9436,702.3477,37.13919
-1032.5599,674.76337,-19.765512
-1005.283,675.5428,-9.857354
-850.81024,598.5865,126.70763
-825.0935,426.85,236.19281
-893.4824,386.2505,247.49385
-999.77203,384.75604,190.1047
-936.085,365.41208,119.93979
-1025.0259,357.4638,108.86374
-1192.216,403.67078,126.34957
-1357.1461,473.86227,128.06787
-1347.893,465.02173,148.67638
-1365.7273,396.03476,106.54766
-1408.108,315.2059,136.2617
-1317.0045,210.96806,118.44452
-1123.7334,127.19955,100.74614
-994.0704,200.57715,91.81064
-839.4723,230.31366,56.078663
-648.9806,161.98204,-210.81952
-457.61035,471.50742,-658.8529
-348.67215,1025.43,-697.0883
-241.81352,829.36755,-529.26465
-230.8179,309.72815,-575.1608
-259.50516,490.18655,-686.0039
-238.00974,723.46484,-846.2918
-192.19281,646.5079,-864.3412
-206.71378,574.4822,-1015.6032
-218.58919,644.1117,-1026.8296
-155.2849,584.9682,-958.3245
-85.01756,543.5335,-851.7019
8.673341,533.59357,-732.29596
86.81404,517.15643,-729.76337
99.60246,604.2505,-766.38995
126.617744,624.49023,-862.6308
101.41997,623.02997,-917.4271
84.59096,588.9093,-921.9725
53.11761,558.3465,-929.88403
25.978659,551.74255,-878.0957
-9.345153,510.97058,-833.3623
-13.249131,531.4504,-800.6876
-34.12911,546.44794,-750.0034
-23.719624,582.6821,-703.74286
-23.42724,533.94794,-696.26276
31.263836,505.19537,-663.651
60.6299,542.04877,-640.3704
151.02974,571.79205,-650.53314
273.32193,388.66168,-809.6693
261.49094,977.98987,-1133.6012
240.01376,1134.9818,-1785.4373
471.03452,652.66394,-1879.3445
482.30612,613.44244,-1135.7881
278.74298,326.41797,-574.3901
171.75749,287.00287,-67.369194
166.16118,203.0898,367.33777
438.49072,425.26312,103.54563
662.56134,788.10345,-593.1554
614.008,953.3995,-832.15295
698.6387,771.10944,-708.3437
518.5953,532.47595,-381.54004
511.94165,128.14563,-251.77234
482.8702,15.326264,-32.354702
539.3863,361.13998,-347.25406
568.9576,695.6852,-760.6345
658.41565,774.28503,-906.1953
657.4487,801.04895,-600.4345
626.9587,737.78284,-405.01147
533.4214,673.7928,-150.25143
510.4018,442.3856,-39.09097
415.19278,244.79852,-158.72389
221.46513,483.73526,-226.99454
-218.43257,1004.5293,-59.376274
-487.3588,685.3152,97.123
-754.7894,11.733647,544.70844
-838.34717,107.89457,632.73956
-1038.1295,271.97372,339.72034
-1385.635,415.70322,16.066353
-1796.4517,696.6037,1.3051866
-1610.0874,656.75836,-112.01244
-1106.1841,929.11395,588.7321
-1059.8916,1023.87683,817.55005
-933.79126,617.8895,116.45303
-952.18665,370.1749,7.409706
-915.8614,157.5269,66.33166
-1024.4001,163.23016,235.90845
-996.34814,129.50305,205.23091
-1012.2046,266.07208,133.60219
-960.76416,281.70032,36.596214
-930.282,413.32593,7.8058987
-848.5096,427.18375,-25.438366
