acc_x[mg],acc_y[mg],acc_z[mg]
-62.708,996.008,36.112
-49.776,991.372,6.1
-21.716,983.32,-6.832
-28.548,989.176,-10.248
-44.408,988.444,-29.768
-77.592,989.176,-64.904
-92.476,978.196,-87.596
-52.704,974.78,-93.452
-3.66,986.248,-72.468
6.832,998.448,-64.172
-7.32,983.32,-76.128
-41.968,970.632,-91.012
-81.984,983.808,-71.248
-81.252,1017.236,-34.648
-41.724,1056.032,10.004
-17.812,1072.136,36.112
-26.108,1069.452,57.828
-55.632,1050.176,66.612
-95.16,1016.748,54.9
-114.68,979.66,28.304
-104.188,954.04,-7.564
-87.352,966.972,-32.696
-96.136,1001.132,-35.868
-104.92,1019.92,-53.436
-83.448,1017.968,-64.416
-45.628,1015.284,-55.632
-26.84,1014.064,-48.312
-57.34,1020.164,-56.12
-110.288,1025.776,-29.28
-108.58,1022.116,-45.14
-85.156,1004.792,-77.104
-87.596,1002.596,-78.812
-96.624,1008.94,-84.668
-164.7,1042.368,-74.908
-393.816,1044.564,-36.844
-484.096,1053.592,70.76
-296.704,1183.644,100.772
-261.08,1066.036,-0.244
-258.64,1038.708,-44.652
-279.136,860.1,-19.032
-27.084,468.724,-81.008
350.628,251.076,-386.984
1255.868,-102.724,-393.572
1503.528,67.832,-14.64
1357.372,227.408,154.208
1157.292,259.86,113.46
1235.372,142.74,-49.776
1208.288,91.744,-17.812
1176.812,40.992,-79.788
1081.652,46.36,-117.852
995.276,29.768,-155.672
890.356,44.896,-190.076
816.912,60.268,-170.312
725.168,99.552,-117.364
605.364,144.936,-92.232
501.176,189.832,-47.824
385.032,223.26,31.232
281.332,211.792,31.476
219.844,221.308,108.824
220.088,219.112,111.996
169.58,209.596,34.648
30.5,190.32,-23.18
255.712,58.316,-94.184
334.768,0.732,-39.772
488.732,-72.468,-1.464
614.148,-166.164,-7.076
691.252,-315.736,-164.944
976.732,-546.316,-334.28
1145.824,-574.62,-262.056
1287.1,-576.328,-80.764
1324.676,-566.08,-7.564
1289.296,-583.16,-85.888
1381.772,-725.9,-285.968
1487.912,-777.628,-342.088
1568.188,-710.772,-141.52
1649.44,-646.844,51.728
1679.94,-626.592,150.548
1628.944,-693.204,41.724
1602.348,-769.82,-142.984
1783.884,-754.204,-68.076
1806.576,-605.852,183.488
1793.888,-571.692,213.744
1775.832,-594.14,70.516
1853.668,-613.172,80.276
1921.988,-583.404,283.528
2021.784,-584.868,434.076
1949.56,-643.916,398.94
1817.8,-672.708,287.432
1633.336,-654.408,264.008
1436.672,-594.384,208.62
1309.548,-545.34,232.288
1198.284,-445.544,331.352
1053.104,-347.7,294.996
1068.964,-374.54,159.82
969.412,-326.228,161.284
915.244,-307.928,159.576
870.592,-299.632,133.712
827.404,-269.62,135.42
746.396,-183.976,182.756
662.46,-140.544,176.656
611.708,-155.184,62.708
577.06,-126.148,22.448
489.464,-64.66,67.1
442.128,30.744,94.184
412.116,84.912,90.036
440.176,91.012,47.336
428.708,75.396,-2.684
402.6,99.552,-50.264
436.516,108.824,-51.484
481.656,114.192,-71.248
542.656,136.152,-85.4
613.172,140.788,-61.0
701.5,158.356,-37.332
769.088,157.624,-45.14
871.568,140.056,-93.452
1001.62,128.344,-124.684
1035.78,129.564,-114.192
1098.0,183.732,-155.672
1109.224,185.928,-135.908
1150.948,204.472,-225.7
970.144,297.68,-272.304
759.328,405.528,-221.308
525.82,594.872,-40.26
409.92,796.66,21.716
339.16,898.164,10.248
298.412,1020.896,-49.532
202.764,1043.344,9.028
-12.932,924.516,-130.54
-92.72,938.668,-95.16
-140.544,1071.648,24.4
-21.96,1089.948,-10.492
67.832,1045.052,-30.5
104.92,1076.04,-10.492
109.312,1104.344,7.564
54.9,1055.056,30.256
20.252,1032.852,78.812
-1.464,1055.788,136.152
-3.172,1049.444,182.756
6.1,1049.444,196.908
32.452,1037.976,188.612
10.492,1018.212,170.068
-31.232,1020.408,177.144
-54.656,1040.904,191.784
-72.712,1033.34,198.128
-50.264,1034.56,181.78
4.392,1019.676,132.98
2.684,989.664,71.004
-33.672,975.512,33.916
-56.12,997.716,52.46
-29.768,1046.028,75.64
-6.588,1039.196,34.16
-14.64,1015.04,-36.356
-1.464,961.36,-113.704
71.736,943.06,-198.372
85.156,1002.108,-204.472
31.476,1041.88,-235.216
18.788,991.86,-317.932
31.476,913.536,-415.288
54.656,893.04,-481.412
91.5,883.768,-520.696
109.8,926.224,-482.144
104.188,979.904,-426.024
73.932,1023.824,-369.66
60.512,992.836,-361.852
59.78,950.624,-369.904
23.912,945.012,-344.772
-12.688,964.288,-281.088
4.636,1030.656,-200.812
-9.516,1053.592,-145.18
-43.92,986.736,-175.436
-73.688,936.472,-191.052
-75.64,952.332,-175.924
-20.984,981.124,-124.44
45.872,1151.192,-21.228
75.884,1217.072,34.648
36.6,1050.664,26.352
224.724,974.292,-34.892
324.276,814.472,-75.396
356.24,838.384,-14.396
493.856,684.664,-48.068
846.436,481.656,-63.684
904.996,457.988,81.496
835.212,427.976,98.576
870.592,283.528,-46.36
1013.576,206.912,-84.18
1302.716,162.504,80.032
1159.244,188.368,126.636
1116.788,113.216,25.62
1012.6,115.168,31.964
982.832,105.896,-27.328
937.692,101.504,-4.148
875.96,96.38,-8.296
774.944,103.212,-44.896
707.6,141.764,15.128
658.8,172.996,64.904
544.364,203.496,101.992
437.248,211.06,101.992
326.716,183.732,53.192
270.352,148.108,-7.076
308.66,111.508,-55.388
348.676,104.432,9.76
418.216,84.18,133.468
493.368,-4.636,103.944
485.072,-108.336,-26.352
460.184,-156.404,-131.272
532.896,-199.836,-99.552
750.3,-296.704,-45.872
956.48,-391.376,-1.464
1102.148,-447.496,19.032
1081.408,-445.056,68.564
1097.512,-506.3,68.32
1242.692,-629.52,-8.784
1282.708,-627.812,29.036
1392.752,-599.508,156.16
1423.008,-572.18,245.952
1367.132,-595.848,244.732
1453.02,-704.672,164.944
1522.56,-705.404,190.32
1459.852,-632.692,269.864
1377.624,-661.24,157.136
1480.104,-750.056,97.844
1634.068,-723.216,266.204
1685.064,-673.196,387.228
1590.392,-668.072,315.492
1476.2,-691.496,194.956
1433.012,-692.472,167.628
1453.996,-702.72,211.548
1404.952,-640.256,298.412
1384.944,-601.216,330.132
1377.136,-583.892,308.416
1369.328,-564.86,283.772
1349.32,-528.016,350.384
1293.444,-498.492,397.476
1269.288,-500.932,375.272
1272.46,-492.392,360.876
1217.316,-439.2,385.764
1142.408,-413.336,341.112
1129.476,-401.624,279.868
1098.976,-382.348,286.7
1094.584,-366.976,331.352
1094.34,-310.856,390.644
1037.244,-232.288,392.108
1021.628,-230.092,280.112
1010.892,-214.964,239.364
996.252,-180.316,276.94
981.856,-130.54,341.844
918.416,-74.664,332.816
785.192,-68.32,224.48
670.268,-124.196,92.476
569.74,-54.9,120.78
519.964,11.956,146.4
441.64,11.712,100.04
411.872,9.272,35.868
441.64,8.784,-7.076
471.164,36.6,-7.808
539.972,70.272,30.5
572.18,91.012,42.456
624.152,56.608,-34.16
698.084,71.98,-7.076
739.076,113.704,27.084
778.116,124.44,17.568
844.728,113.216,6.588
897.432,144.204,29.036
1013.332,150.304,24.888
1069.452,116.144,-6.588
1046.76,132.98,-114.68
1032.852,121.512,-242.78
970.876,174.948,-192.272
890.112,410.408,-43.432
774.944,556.808,95.648
578.28,703.208,52.948
442.86,633.18,-2.44
349.896,667.828,-43.92
315.736,871.324,-3.172
207.888,1091.656,91.256
106.384,1225.612,122.976
20.496,1196.576,133.712
-37.088,1080.92,78.08
-40.992,1044.076,32.94
-9.76,1039.928,12.932
30.988,1031.144,1.952
6.588,1057.74,34.648
-49.776,1026.996,80.52
-86.376,1019.676,128.344
-117.852,1004.548,166.896
-105.896,946.964,183.244
-15.86,929.64,186.172
18.544,953.552,230.336
-15.372,983.564,256.932
-107.36,1034.804,291.824
-158.844,1006.5,290.36
-131.76,944.524,251.564
-108.824,952.088,227.408
-89.304,956.724,191.784
-73.2,982.344,174.948
-50.264,1015.528,175.192
-27.328,1059.692,176.656
-4.88,1062.376,133.468
-16.348,1026.02,65.636
20.496,956.48,-14.64
47.824,986.248,-26.352
64.66,1056.032,-57.828
29.28,1085.556,-76.86
5.612,1042.368,-115.168
40.016,1018.7,-153.476
66.856,1013.576,-210.084
41.724,1003.084,-296.948
-24.888,1006.988,-339.16
-101.748,995.52,-361.364
-126.88,968.68,-386.74
-19.276,947.696,-448.96
61.0,936.228,-492.636
56.852,931.104,-493.856
1.952,954.528,-447.252
-75.396,985.272,-376.492
-99.308,1023.58,-313.296
-32.452,1056.764,-293.776
-45.14,1016.504,-287.676
-114.436,979.416,-271.572
-132.248,977.464,-205.692
-105.164,1066.768,-121.756
12.932,1251.232,-0.976
-3.172,1214.876,116.144
-70.516,1055.3,160.796
-119.56,954.528,107.36
81.008,846.68,19.52
431.148,599.02,-221.552
664.168,396.012,-423.34
737.612,348.92,-290.116
832.284,255.956,-200.324
1035.536,243.268,-84.424
1161.928,236.436,52.46
1102.88,226.432,-2.44
1086.288,151.28,-62.22
1112.396,105.896,-100.284
1070.184,123.708,-42.456
1129.476,85.644,-25.62
1067.988,74.176,-21.96
1032.12,12.444,-117.12
980.392,19.032,-122.488
900.116,57.096,-100.04
829.112,76.86,-106.872
772.504,115.9,-66.124
732.244,144.448,-21.96
691.008,157.136,3.172
513.62,172.996,-28.548
534.116,149.572,-52.216
460.184,158.844,-33.428
380.64,178.608,-12.688
312.808,173.972,-40.26
185.928,185.684,-17.08
441.64,113.46,25.864
569.984,82.472,116.876
557.296,30.5,63.196
420.412,-55.388,-55.632
507.52,-157.136,-90.036
870.104,-302.56,13.176
1049.444,-366.732,62.952
956.968,-399.672,-32.208
837.652,-383.812,-101.016
1012.844,-478.24,-153.964
1293.932,-552.172,-58.804
1409.588,-490.196,164.212
1348.344,-435.052,239.852
1289.052,-503.128,91.256
1308.572,-597.8,-47.336
1418.128,-577.548,-41.968
1520.852,-546.072,53.436
1601.616,-551.684,102.724
1706.78,-571.448,82.472
1692.14,-625.128,4.88
1695.312,-636.596,-100.04
1757.776,-615.856,-64.66
1764.12,-539.484,38.552
1646.268,-486.78,65.392
1628.944,-453.108,73.2
1660.908,-429.196,146.888
1622.112,-425.292,227.896
1574.288,-389.668,238.632
1504.504,-421.144,162.992
1440.088,-425.536,141.764
1400.072,-451.4,170.312
1332.24,-406.992,208.132
1186.816,-332.572,269.132
1115.812,-315.736,260.104
1153.876,-329.888,162.504
1203.896,-296.216,220.088
1216.828,-221.308,335.5
1176.08,-146.644,356.972
1124.108,-176.168,223.504
1088.484,-242.292,133.712
1098.732,-212.036,207.4
1067.256,-124.684,292.068
997.472,-144.448,215.452
877.912,-169.824,106.872
782.264,-179.096,60.512
693.936,-148.108,46.116
622.932,-113.704,59.048
515.328,-98.82,17.568
446.032,-72.224,-25.376
389.912,-27.084,-27.328
406.992,-4.636,-34.404
465.308,28.548,-28.304
523.624,53.192,-30.256
577.304,64.416,-2.684
661.972,58.072,-13.42
762.256,44.408,-9.516
841.068,66.124,16.104
922.32,78.08,29.036
1023.824,65.636,-0.976
1100.928,50.508,-46.36
1109.956,82.96,-65.636
1049.688,163.968,-88.816
953.308,255.468,-95.648
810.812,342.576,-96.868
634.888,502.884,10.004
539.24,663.68,12.444
413.092,812.764,21.716
308.904,803.492,-31.232
324.52,811.788,-103.7
254.004,903.532,-74.664
152.5,1013.332,-16.348
18.3,1031.876,-2.44
-10.98,1063.108,3.66
-50.752,1126.792,53.192
-8.784,1144.848,71.004
25.376,1136.796,71.492
26.84,1131.672,94.428
-23.912,1128.744,128.588
-12.444,1076.04,139.324
10.492,1026.996,132.736
47.336,1026.752,152.744
63.44,1033.584,151.28
-0.488,1020.408,166.896
-86.62,1018.456,183.0
-130.784,1033.828,203.496
-86.62,1067.256,208.864
-8.296,1055.544,196.42
32.696,1061.888,152.988
-0.976,984.784,87.352
-51.728,937.936,21.716
-100.772,933.3,-9.76
-100.772,957.7,2.196
-65.148,1040.416,37.82
-32.452,1055.056,23.668
-3.172,1011.136,-57.34
-69.296,943.304,-130.296
-144.936,915.488,-164.7
-132.98,941.352,-167.384
-99.552,987.956,-179.096
-113.948,969.412,-222.528
-107.848,919.148,-304.756
-124.196,848.144,-390.888
-141.032,840.58,-419.924
-148.108,897.92,-393.816
-117.852,937.448,-359.9
-40.748,1013.332,-317.2
5.124,1050.908,-321.104
-40.016,1025.776,-315.98
-64.416,1032.608,-296.704
-76.372,1078.968,-231.8
-69.052,1090.924,-191.54
-23.912,1102.392,-122.976
-34.648,1150.46,-70.272
-79.544,1089.46,-15.372
17.08,985.516,25.376
262.788,861.32,-40.016
467.016,736.88,-107.36
703.208,618.296,-176.412
708.088,600.972,-201.3
564.128,658.556,-34.404
880.84,465.796,42.7
1249.28,218.868,-28.792
989.42,304.512,-42.456
853.756,355.752,-80.52
1013.576,279.136,-47.824
1060.668,273.036,24.644
1055.056,284.748,71.004
971.852,280.6,60.024
880.108,275.72,18.544
810.568,278.16,1.22
756.644,286.456,-13.42
688.324,315.492,24.888
599.996,327.692,52.704
464.576,339.648,58.56
401.868,321.592,24.888
412.604,285.724,28.548
392.596,269.376,70.516
351.36,243.024,84.18
295.972,202.52,25.376
272.548,113.704,-74.176
337.452,33.428,-111.264
513.376,-11.712,-50.752
621.468,-76.128,-11.956
710.772,-136.64,-8.052
817.644,-191.784,37.82
868.884,-256.688,0.488
872.544,-324.764,-65.148
999.424,-416.508,-79.056
1211.948,-461.16,-20.74
1263.92,-470.432,11.468
1191.696,-498.98,-113.46
1280.512,-558.028,-199.348
1588.44,-476.532,94.184
1758.264,-381.86,333.304
1673.596,-427.244,204.96
1644.56,-573.644,-67.1
1786.324,-653.188,-143.472
1985.428,-543.388,126.148
1997.384,-430.416,367.952
1837.32,-425.292,304.512
1714.832,-531.188,50.508
1766.56,-594.872,-42.944
1794.864,-526.796,197.64
1742.404,-438.712,403.576
1686.284,-445.056,409.188
1594.54,-471.164,349.896
1525.976,-407.724,386.496
1463.268,-355.264,455.06
1391.532,-338.184,445.788
1303.692,-322.568,421.144
1221.708,-293.532,386.74
1174.128,-304.024,337.696
1149.972,-288.164,304.512
1113.86,-198.616,386.496
1030.412,-130.296,306.464
1014.308,-84.912,238.388
1037.976,-89.792,201.544
1005.28,-47.336,213.744
887.428,-67.832,195.932
781.532,-143.716,83.692
721.752,-199.348,22.204
638.792,-118.096,116.876
516.792,-66.124,142.008
391.132,-52.216,89.06
321.836,-25.864,32.696
374.052,-12.932,24.156
403.332,41.724,57.34
454.572,73.444,59.048
527.528,100.284,64.416
585.6,92.72,85.4
627.568,92.476,66.368
727.852,95.404,39.284
801.296,124.928,17.568
902.556,156.648,41.968
1079.212,144.936,78.812
1173.64,118.828,12.444
1063.352,189.1,-52.948
935.252,275.232,-39.04
842.044,330.62,-35.136
781.288,366.244,-137.86
659.532,478.728,-110.776
595.36,574.132,-43.92
520.452,752.984,-15.372
385.52,921.588,21.96
233.264,961.848,36.6
174.704,959.896,15.616
179.584,975.512,-12.688
194.956,1020.408,-31.232
157.136,1095.072,15.86
58.072,1117.032,65.392
29.768,1054.324,47.824
36.6,1000.888,23.424
45.384,1003.572,20.008
39.528,1060.912,76.616
-20.496,1138.26,145.424
-66.856,1111.908,187.148
-57.096,1075.796,196.664
-29.524,1028.216,210.572
-8.54,1073.844,239.608
-52.46,1132.892,295.24
-124.684,1051.64,289.384
-153.72,1003.572,273.036
-174.216,984.052,253.272
-172.752,951.356,216.672
-136.152,966.972,184.708
-118.584,993.568,200.324
-164.944,1037.0,222.772
-198.372,995.032,170.556
-223.992,931.592,99.552
-205.448,888.648,45.384
-149.572,924.516,43.432
-109.068,1002.108,31.72
-136.396,1026.264,-13.908
-186.904,983.564,-49.776
-167.14,931.836,-108.824
-100.528,880.596,-175.192
-10.492,932.568,-244.488
-47.58,986.004,-263.52
-84.18,995.032,-272.548
-92.232,982.344,-304.024
-111.264,970.388,-327.448
-104.676,927.2,-374.296
0.976,887.184,-418.46
41.48,925.492,-414.068
9.272,991.86,-364.292
-3.904,1043.588,-311.588
-43.676,1065.548,-264.008
-48.8,1065.06,-221.796
-13.664,1059.692,-182.512
67.832,1052.616,-148.84
98.332,1054.568,-137.616
72.468,1047.004,-97.112
130.784,1133.624,62.22
102.724,1100.44,138.104
149.572,966.24,27.572
330.132,881.084,-112.972
496.296,832.528,-163.48
599.752,822.28,-101.504
596.092,799.588,32.452
618.54,871.568,146.644
621.224,813.74,206.668
746.884,709.552,172.264
673.44,663.192,87.108
520.452,616.344,-45.14
729.804,454.816,-139.568
832.772,360.876,-122.488
796.66,351.848,-42.944
674.904,364.048,-49.776
638.06,278.892,-155.916
772.748,167.14,-146.156
853.512,217.648,58.56
762.988,237.412,81.008
717.848,211.792,88.328
681.492,134.932,-26.108
658.556,107.36,-36.6
629.52,103.7,47.58
613.172,125.416,95.16
517.524,150.06,119.072
447.008,144.448,91.5
447.496,53.192,15.616
468.236,3.172,-70.028
387.96,-1.22,-67.1
387.472,33.672,-16.104
568.764,12.444,58.804
700.036,-70.272,55.388
721.508,-163.48,-28.548
731.756,-223.016,-39.528
849.608,-290.604,-50.752
1169.492,-430.904,8.784
1345.904,-526.308,23.912
1273.192,-531.432,-57.828
1225.124,-543.632,-147.132
1345.172,-601.948,-138.836
1541.348,-580.72,24.888
1636.752,-508.496,146.888
1618.696,-518.744,35.624
1609.424,-563.884,-95.404
1759.972,-632.204,-91.744
1909.056,-600.24,85.888
1865.38,-520.696,218.136
1698.24,-468.48,169.58
1578.192,-498.736,61.732
1586.244,-571.936,8.784
1582.828,-566.812,95.648
1643.828,-518.744,274.744
1608.936,-480.436,358.192
1474.736,-475.068,310.612
1408.856,-498.004,263.032
1358.348,-485.804,281.088
1287.344,-453.84,269.864
1303.448,-474.58,253.272
1311.5,-477.752,281.088
1200.48,-411.628,314.76
1192.428,-342.332,335.012
1256.844,-330.864,337.208
1194.624,-360.388,265.716
1179.496,-399.184,206.668
1138.992,-388.448,213.012
1065.06,-302.56,179.34
1014.552,-250.588,137.128
1012.844,-236.436,105.408
1062.376,-240.34,148.84
1073.356,-202.764,167.628
1024.312,-178.852,144.692
967.46,-184.22,54.168
920.856,-138.836,76.86
807.396,-105.896,76.372
707.112,-85.644,39.04
655.384,-52.46,18.544
599.752,-3.66,27.328
543.876,27.816,19.032
503.128,68.564,49.776
456.28,78.324,20.496
462.38,77.348,-22.204
515.816,117.12,4.88
543.632,164.7,49.044
619.272,173.484,45.628
657.824,174.948,21.228
696.62,180.316,5.368
738.344,171.288,-11.224
820.572,168.604,7.808
899.628,201.056,86.376
956.48,221.308,103.212
1013.332,225.456,55.388
1033.828,220.82,-17.08
947.696,285.48,9.028
833.26,382.348,71.98
838.628,449.204,75.152
966.484,424.56,-72.224
940.376,524.112,-8.784
760.548,666.852,104.676
555.588,757.376,75.884
501.908,736.636,-48.312
444.324,731.512,-133.224
427.976,768.844,-137.86
335.744,922.808,-40.992
258.396,1095.804,57.34
156.892,1078.48,77.104
127.612,988.2,-33.428
162.748,939.644,-119.316
138.592,976.0,-100.284
88.816,1056.276,-27.816
2.44,1103.368,28.304
-44.652,1074.82,55.876
-77.592,991.372,1.708
-61.0,953.796,-24.644
-44.408,1006.5,18.3
-68.564,1093.852,91.988
-128.588,1111.908,152.5
-180.56,1017.968,140.544
-194.956,959.896,125.416
-152.5,977.464,152.744
-87.596,1024.8,189.832
-85.644,1015.528,195.444
-92.476,978.44,180.56
-118.34,936.228,173.728
-114.436,934.276,193.492
-126.636,978.196,207.888
-143.716,985.272,204.716
-111.508,985.516,204.96
-45.872,999.912,198.616
-28.304,1001.864,165.432
-60.756,945.5,98.332
-92.476,944.28,88.816
-133.468,984.296,129.076
-119.316,1025.288,161.772
-74.908,1049.688,141.764
-2.196,1050.664,82.228
-21.472,1002.596,30.988
-78.568,954.528,10.736
-112.484,979.66,10.736
-112.24,983.32,-13.176
-83.936,975.268,-64.66
-44.164,959.896,-120.292
-59.78,948.184,-175.192
-61.244,904.264,-261.812
-29.036,897.92,-329.156
-31.72,936.472,-332.328
-23.18,1036.024,-279.136
5.612,1108.004,-232.044
38.552,1076.04,-242.78
82.96,1037.976,-268.4
72.224,1036.756,-259.128
20.984,1007.232,-254.492
-14.396,962.336,-259.616
-38.064,968.192,-236.924
-55.144,1000.888,-187.392
-49.776,1047.492,-136.64
-57.096,1074.088,-92.72
-75.884,1070.672,-82.716
-99.552,1026.996,-94.672
-107.604,1008.696,-96.38
-111.996,998.448,-96.624
-100.528,986.98,-91.256
-79.544,998.204,-81.74
-91.988,1041.148,-38.308
-133.224,1057.984,-0.732
-136.64,1006.256,-16.104
-120.536,969.656,-45.384
-116.144,989.42,-35.136
-118.584,996.252,-20.74
-124.928,982.344,-21.228
-147.62,985.028,2.928
-122.0,1017.968,43.188
-64.172,1062.62,55.388
-63.684,1052.372,93.452
-27.328,1094.34,163.968
66.124,965.264,171.044
265.228,759.572,-91.744
371.368,690.52,-146.156
476.532,746.884,16.836
651.236,620.004,45.384
877.668,547.048,39.772
1141.432,469.212,82.472
1050.176,442.86,94.428
821.304,492.148,58.804
874.984,467.992,65.88
993.324,396.256,55.632
940.132,355.264,64.904
937.692,306.464,5.124
884.988,305.732,36.112
814.96,309.636,56.12
814.96,289.14,61.0
867.42,232.776,70.272
792.268,271.328,141.764
719.556,276.696,157.624
680.76,208.132,76.128
521.672,198.128,21.96
335.5,241.804,30.988
327.692,195.2,0.244
339.892,164.944,5.856
415.288,138.592,-10.492
467.016,91.744,-29.768
444.08,33.184,-27.084
444.812,-3.416,-37.332
508.496,-20.496,16.348
595.848,-50.264,24.156
775.92,-129.564,51.24
872.544,-217.648,37.088
936.96,-335.256,-55.144
1031.388,-387.716,-60.268
1180.716,-386.984,23.18
1306.62,-421.632,48.068
1417.884,-496.784,-1.464
1575.752,-547.536,-27.572
1673.596,-513.62,81.74
1640.412,-429.44,189.1
1574.288,-426.268,137.372
1553.304,-489.22,41.236
1530.368,-561.444,-15.372
1458.632,-590.236,-43.432
1464.244,-580.72,-2.684
1489.132,-493.856,172.508
1447.164,-400.16,275.232
1376.16,-414.8,224.724
1338.584,-506.788,98.332
1322.724,-536.068,62.22
1384.212,-516.06,131.516
1445.944,-471.164,257.664
1416.908,-444.812,273.28
1393.484,-498.736,181.78
1469.856,-538.264,181.536
1558.428,-468.968,354.532
1560.38,-362.584,505.324
1452.532,-370.636,436.516
1342.732,-450.912,265.472
1359.324,-527.284,184.952
1316.624,-499.712,271.816
1239.764,-441.884,299.632
1217.804,-406.992,256.444
1131.672,-378.688,220.088
1160.952,-403.088,248.392
1196.088,-410.408,294.752
1128.256,-297.924,277.672
1010.404,-230.824,165.432
983.076,-245.22,75.152
960.14,-225.944,123.708
864.736,-160.796,152.012
761.28,-118.584,89.304
646.356,-103.212,5.612
594.872,-96.868,-18.788
469.944,-50.02,-42.7
443.836,-20.496,-84.18
455.792,12.932,-97.844
469.456,77.592,-51.728
499.712,174.216,16.104
522.892,252.54,78.324
575.84,240.828,61.488
603.656,209.352,44.896
629.52,195.444,-22.692
671.0,233.02,-10.248
724.192,266.692,14.396
767.38,240.34,-10.004
830.576,217.16,-22.448
930.616,177.632,-26.84
1036.756,156.648,-30.988
1113.372,141.52,-67.832
1082.628,162.504,-191.296
902.556,247.416,-215.208
798.856,353.556,-150.06
812.032,464.576,-92.476
805.932,569.252,-0.732
748.348,686.372,-73.444
586.576,668.56,-81.008
439.444,772.016,-4.636
341.112,913.536,56.852
309.148,1019.676,22.204
189.588,1068.476,24.156
124.928,1053.104,21.228
124.928,1023.336,15.86
92.476,1026.508,-0.976
23.668,1056.032,35.868
-31.964,1125.084,86.132
-39.284,1090.436,101.992
41.48,1038.22,72.712
64.66,1009.916,74.908
51.484,1008.452,96.38
-18.788,1040.904,163.724
4.392,1038.22,191.296
15.86,1019.676,220.332
57.34,1005.768,237.656
63.928,1020.408,237.412
49.288,956.48,191.052
-27.084,937.692,200.568
-89.792,969.168,224.724
-103.456,1000.644,237.9
-104.92,1023.824,231.556
-71.736,1031.632,209.352
-28.06,1037.244,187.392
-18.3,1011.136,153.232
-2.928,1020.896,107.848
-17.08,1006.256,81.984
-52.216,990.884,53.192
-105.164,979.904,34.648
-59.536,1024.8,-3.416
-1.22,1030.412,-47.824
11.468,1002.596,-105.164
-5.368,978.44,-155.672
-63.928,997.96,-192.76
-92.964,1018.944,-209.84
-51.484,969.656,-292.8
-25.864,863.516,-392.352
-9.76,858.392,-446.52
-19.032,949.892,-428.708
-32.94,996.984,-396.5
-34.16,990.884,-392.84
-38.552,929.152,-405.04
-56.608,930.128,-390.156
-41.724,948.672,-356.972
-12.688,961.604,-328.668
-28.548,988.688,-284.26
-74.42,1001.62,-239.12
-125.416,1041.392,-173.972
-175.436,1072.868,-119.804
-181.292,1003.084,-132.492
-126.88,922.808,-177.632
-91.988,917.928,-184.22
-123.464,960.872,-144.692
-164.456,988.2,-109.8
-173.972,997.228,-94.916
-163.48,1005.768,-86.864
-160.552,987.468,-85.644
-156.404,986.736,-88.572
-148.596,994.544,-89.792
-155.428,1042.612,-48.8
-93.696,1117.52,-17.08
-43.432,1112.884,-0.976
-38.064,1066.28,-0.244
53.924,1055.056,29.28
221.552,975.756,16.104
263.032,824.72,37.332
357.948,740.784,-35.38
602.192,701.012,-68.32
817.156,626.104,2.196
884.5,530.212,59.048
934.52,416.508,11.712
961.848,379.908,29.036
939.156,418.46,113.948
943.304,421.632,166.652
994.544,324.52,105.164
962.336,235.46,-31.232
912.072,197.396,-55.632
935.496,196.908,-4.636
853.268,240.34,33.428
831.552,224.968,2.196
811.3,212.524,-15.372
761.768,223.016,12.2
627.324,288.164,63.196
500.444,319.396,67.344
441.884,298.656,47.092
418.948,229.36,-34.16
378.932,195.932,-82.472
361.852,185.928,-80.764
335.5,166.652,-10.98
294.02,150.548,35.38
305.244,140.3,17.568
309.392,121.268,16.104
419.68,29.28,13.42
667.828,-144.448,-56.364
790.804,-288.164,-105.164
855.464,-313.54,-61.976
1005.036,-296.46,26.596
1145.092,-271.572,77.104
1251.72,-330.132,27.816
1296.86,-422.364,-63.684
1432.28,-507.764,-84.668
1643.828,-455.06,60.512
1738.256,-295.728,242.536
1746.308,-200.812,271.816
1685.308,-164.7,240.096
1613.572,-285.48,142.008
1597.956,-391.864,12.444
1678.232,-437.736,12.2
1659.444,-364.536,145.668
1524.512,-281.332,214.964
1418.128,-305.244,188.124
1383.724,-361.12,125.172
1424.96,-375.76,172.996
1533.54,-309.148,326.96
1491.572,-199.104,429.684
1349.564,-194.956,398.696
1383.48,-318.908,287.92
1453.752,-426.268,181.048
1394.216,-405.284,210.572
1397.876,-386.984,248.392
1397.632,-408.456,272.06
1415.444,-447.984,255.224
1421.788,-467.504,267.18
1372.988,-420.412,291.092
1281.976,-393.084,280.356
1262.456,-396.988,243.268
1272.216,-387.472,280.844
1225.124,-326.96,329.156
1168.76,-332.328,315.736
1130.696,-342.576,238.632
1077.016,-294.264,217.648
1035.78,-185.196,241.56
1026.264,-112.728,264.496
1027.24,-134.2,259.616
988.2,-140.788,243.756
874.008,-110.044,217.648
758.352,-118.828,122.976
628.544,-114.192,29.036
605.12,-105.164,4.636
598.288,-31.964,86.376
572.424,-5.368,75.884
511.912,0.732,1.22
505.812,12.932,-62.708
516.548,54.656,-72.468
571.936,74.664,-63.196
621.712,84.912,-30.012
670.756,88.816,-20.984
664.412,152.012,-17.812
705.648,165.188,-66.368
758.84,152.256,-64.904
825.452,161.284,-35.136
894.748,181.536,-18.788
936.96,192.516,-8.54
994.544,198.616,-21.716
1115.324,166.652,-68.32
1138.016,157.38,-163.236
928.42,254.248,-120.048
765.672,402.356,-76.128
732.244,477.508,-53.436
739.808,560.956,-39.528
607.56,603.412,-103.212
360.876,697.108,-78.08
224.236,870.348,-3.904
193.004,1117.52,84.424
153.476,1136.308,42.456
136.152,1077.26,-15.372
104.92,989.42,-47.58
59.292,961.36,-57.828
-58.316,975.512,-25.132
-101.016,1021.384,33.184
-61.0,1115.812,90.036
-10.492,1108.736,107.848
25.132,1075.796,95.404
31.964,1038.708,102.968
45.872,1001.864,113.216
81.252,982.1,126.392
92.964,992.348,184.464
64.172,992.104,203.984
46.848,1013.82,229.36
-26.108,1028.216,244.976
-103.456,1040.66,249.368
-81.252,1047.492,234.728
-34.16,1037.0,193.492
-50.508,997.472,143.716
-15.616,987.956,69.784
-6.1,1021.384,26.352
-54.9,1017.968,15.372
-66.856,1013.332,5.856
-84.424,1032.12,5.856
-48.312,1007.72,-28.792
-1.708,965.02,-95.404
-9.76,950.868,-130.784
-94.184,967.216,-130.296
-164.944,986.492,-118.096
-149.328,986.248,-144.204
-103.212,980.392,-205.448
-99.064,943.792,-276.208
-117.364,900.36,-350.872
-117.852,853.024,-400.648
-87.84,848.632,-416.508
-66.368,912.804,-392.352
-59.78,974.536,-347.456
-48.8,1012.356,-314.028
-53.924,1041.636,-291.092
-95.404,1063.108,-258.884
-97.112,986.248,-288.164
-93.696,916.708,-306.22
-117.608,927.444,-278.404
-141.032,984.052,-222.772
-131.76,1015.772,-182.756
-123.708,1000.156,-172.02
-142.008,996.74,-150.792
-152.5,979.172,-139.08
-171.776,965.264,-126.148
-177.876,957.456,-128.832
-182.512,991.372,-95.404
-169.58,1041.636,-51.484
-94.184,1081.652,-21.228
-60.512,1095.316,-0.976
-67.588,1050.664,1.708
-48.068,1049.688,16.836
89.792,1064.084,51.728
236.924,945.988,-23.18
368.44,922.808,-54.412
409.676,916.22,51.24
467.016,767.624,-69.052
589.26,623.908,-172.02
810.324,523.136,-132.492
936.228,412.848,-104.676
945.012,398.208,-79.788
921.832,385.764,-32.696
962.092,345.992,-35.868
1088.728,319.884,12.444
979.416,343.552,12.444
923.296,275.72,-70.76
989.908,185.928,-153.476
983.564,178.852,-139.568
1033.828,203.252,-26.108
1035.78,202.764,0.732
944.036,165.676,-60.756
899.14,112.484,-147.132
874.984,123.708,-143.228
799.1,196.42,-70.272
725.656,244.976,8.296
635.376,272.304,12.688
458.476,267.668,-35.136
415.044,210.816,-91.012
412.116,170.068,-112.972
399.428,181.048,-28.06
441.396,175.436,56.608
266.692,183.732,5.856
171.288,114.924,-113.704
315.248,-8.052,-149.572
435.784,-20.008,-62.708
602.68,-52.704,6.1
754.448,-232.288,-102.724
773.724,-361.364,-224.724
813.496,-371.856,-168.36
1026.752,-345.504,-97.112
1156.316,-326.472,-65.148
1231.712,-447.008,-176.412
1301.984,-538.996,-226.188
1375.184,-519.476,-86.864
1495.964,-319.152,195.2
1570.14,-227.164,301.096
1600.884,-336.232,132.492
1565.504,-510.936,-71.98
1608.692,-558.76,-68.076
1622.112,-429.196,128.1
1600.64,-335.5,224.724
1607.96,-412.116,147.62
1608.936,-527.772,-14.396
1637.24,-602.68,-50.752
1684.82,-585.6,43.92
1714.344,-493.368,221.796
1580.144,-417.24,276.696
1484.74,-392.84,286.944
1446.92,-423.828,266.448
1473.272,-457.256,286.212
1460.828,-409.92,342.576
1391.044,-325.008,431.148
1458.388,-291.092,495.808
1470.832,-331.352,550.22
1394.704,-384.788,474.824
1234.152,-380.152,361.364
1192.184,-424.56,230.092
1162.66,-415.288,240.34
1136.796,-316.468,342.332
1145.58,-239.364,419.192
1124.108,-217.16,389.912
1047.736,-217.404,329.644
976.976,-183.0,244.732
955.992,-176.9,177.144
901.336,-153.72,188.124
853.512,-140.788,183.488
812.764,-126.88,162.992
739.076,-133.956,111.996
641.232,-131.516,75.64
568.764,-81.496,75.884
529.724,-55.144,40.016
508.74,-16.836,10.98
510.204,40.26,13.42
547.292,97.112,29.036
576.816,145.424,28.548
591.944,165.92,5.124
640.988,156.892,-27.572
695.4,163.724,-20.984
732.244,197.152,-12.932
771.772,260.348,5.124
813.496,279.136,-8.784
793.488,271.816,19.52
836.188,341.6,20.496
893.284,321.836,-45.628
929.152,269.62,-80.764
941.352,314.028,-82.228
915.732,412.116,-13.176
809.104,536.8,10.98
600.728,616.832,77.592
453.84,706.624,84.424
301.584,823.988,144.204
128.344,935.984,130.052
15.86,1001.864,135.664
-52.216,1115.812,179.34
-138.592,1050.42,98.82
-106.628,971.364,-7.564
-47.824,996.252,-10.736
21.716,1029.192,23.424
23.424,1049.932,68.32
5.856,1053.348,112.24
-23.424,1052.128,162.016
-25.376,1013.088,190.076
-40.504,994.788,233.996
-52.46,965.996,269.376
-68.564,963.556,316.712
-62.22,995.032,337.208
-77.348,1022.848,333.548
-98.576,1006.012,323.056
-161.284,968.436,303.048
-174.704,968.68,275.476
-102.968,970.876,227.896
-40.504,997.96,203.252
-25.62,1060.912,184.952
-46.116,1075.552,125.66
-19.52,1060.424,24.644
1.22,1012.844,-92.476
23.424,969.9,-170.312
81.984,1012.6,-190.564
82.716,1098.244,-186.416
81.984,1070.184,-240.096
90.036,1002.108,-308.416
103.944,964.044,-345.016
83.448,950.136,-349.408
124.928,965.264,-324.52
153.476,963.068,-301.584
117.364,1000.156,-231.556
75.152,1009.916,-194.956
50.508,1015.528,-162.992
57.828,994.3,-165.92
68.32,967.216,-181.536
47.092,986.98,-137.616
30.988,1020.652,-80.764
50.996,1032.852,-51.972
25.132,1005.036,-47.824
-9.516,952.088,-71.98
-45.384,918.904,-86.62
-46.36,908.656,-77.348
-43.432,918.66,-43.432
-35.624,897.188,-18.3
-54.9,888.16,18.544
-97.844,843.508,32.208
-127.612,752.008,15.616
-121.512,717.116,27.572
-29.768,697.108,5.856
25.376,695.888,29.28
42.212,684.176,84.912
98.332,653.92,152.012
306.952,561.444,-58.56
363.804,465.552,-229.116
273.524,395.28,-162.992
457.988,323.056,-167.628
578.524,230.336,-126.392
683.688,206.18,-100.528
727.608,164.944,-36.844
833.992,123.22,-32.452
811.788,149.572,71.004
814.716,127.124,92.964
1026.508,-23.912,43.432
1131.916,-100.284,5.856
1018.212,-113.46,-67.344
971.12,-199.104,-187.392
1028.948,-237.412,-202.032
1091.168,-175.68,-60.268
1090.192,-111.752,109.556
1135.088,-133.712,93.208
1142.896,-250.344,-72.712
1160.708,-370.148,-198.372
1209.996,-373.076,-172.996
1316.868,-343.308,-46.604
1445.7,-344.528,79.056
1423.496,-326.472,77.836
1294.42,-386.008,-69.54
1266.116,-437.248,-188.612
1459.608,-456.524,-90.036
1491.328,-364.536,58.072
1405.684,-303.292,129.564
1340.048,-371.368,42.456
1445.7,-459.94,-123.708
1603.812,-497.028,-47.092
1550.376,-430.172,46.848
1405.44,-412.604,13.664
1301.984,-409.432,-56.12
1356.152,-418.216,7.808
1426.424,-409.92,127.612
1416.908,-415.288,126.392
1328.336,-417.24,48.068
1300.52,-417.728,71.004
1373.964,-374.296,199.836
1355.176,-325.496,295.24
1244.644,-299.388,244.0
1166.564,-299.388,156.648
1166.076,-314.516,170.312
1238.788,-301.584,226.432
1251.476,-300.364,226.676
1283.44,-307.928,227.652
1308.816,-292.556,290.604
1250.256,-289.872,319.396
1196.332,-308.172,209.596
1140.212,-345.26,108.58
1118.984,-311.588,118.828
1071.892,-245.22,193.98
1054.568,-229.604,141.276
1007.964,-182.268,140.788
963.312,-132.492,104.188
931.348,-128.832,26.84
945.012,-126.148,38.064
877.424,-78.324,107.848
791.536,-51.972,99.308
668.072,-57.584,16.348
581.94,-47.824,-62.952
512.644,6.1,-60.756
491.66,54.168,-58.56
473.604,118.096,-42.944
475.312,163.724,-14.884
502.64,194.224,-26.596
528.26,236.68,-26.596
593.408,269.376,7.808
636.84,283.04,32.208
693.692,262.3,13.42
755.424,253.516,1.22
880.596,260.104,-20.74
952.82,249.856,-69.784
942.816,226.188,-132.98
933.788,309.88,-124.928
909.632,391.62,-83.936
794.464,446.764,-98.576
702.476,549.244,-44.164
528.992,667.096,30.012
402.6,825.94,49.776
412.116,874.496,-37.576
331.84,940.864,-33.916
223.016,988.688,-15.616
90.524,1057.984,7.076
-15.372,1086.776,15.372
-24.644,1074.82,3.904
-29.768,1019.432,-11.956
-48.312,1030.656,-5.124
-108.336,1059.692,28.548
-101.26,1057.496,39.772
-59.048,1022.36,45.384
-23.912,1020.652,78.08
-45.14,1032.608,111.264
-73.932,1043.588,132.248
-118.096,995.764,133.468
-109.556,969.412,147.864
-63.44,979.904,182.268
-68.32,993.568,176.9
-111.752,985.76,171.288
-159.82,1024.556,205.692
-192.516,1027.972,217.404
-180.56,981.368,208.132
-109.068,954.04,166.652
-69.296,965.508,118.584
-111.264,978.196,99.552
-149.084,996.252,107.848
-158.112,998.448,92.72
-126.392,971.12,49.532
-80.764,948.916,14.884
-39.772,1008.208,-14.884
-50.752,1043.588,-34.404
-80.764,1025.044,-69.784
-118.828,970.876,-115.656
-124.928,952.088,-166.896
-122.488,967.216,-216.672
-106.872,958.676,-276.452
-50.752,944.28,-330.62
5.124,965.996,-368.684
-28.06,1002.352,-371.368
-63.44,985.272,-374.296
-79.788,928.908,-405.284
-44.896,925.736,-389.668
-0.976,985.272,-329.644
7.076,1008.452,-285.968
-26.84,980.148,-263.764
-69.052,977.708,-230.336
-103.944,1012.6,-180.804
-105.652,1030.412,-127.368
-94.672,1063.108,-89.792
-76.372,1008.452,-110.044
-86.864,975.268,-111.264
-125.172,1005.28,-65.88
-145.912,1026.508,-34.16
-136.152,993.08,-40.016
-123.22,996.252,-36.6
-135.176,987.956,-33.672
-141.764,955.016,-42.7
-155.672,958.432,-36.6
-166.164,1003.328,-20.496
-153.476,1020.652,-2.44
-137.128,1050.664,5.124
-133.224,1034.804,-9.272
-139.568,1037.244,-16.836
-127.856,1054.324,-19.032
-127.124,1047.248,-25.62
-124.196,1024.8,-40.992
-126.392,978.684,-27.816
-41.236,1002.352,13.176
-95.16,944.28,48.556
-156.648,952.576,142.984
-19.52,789.096,70.516
210.816,657.824,-98.088
271.572,604.144,-66.368
295.24,630.008,8.052
439.2,502.396,-150.548
647.82,432.124,-85.4
771.284,375.516,6.344
672.464,389.668,46.604
719.8,411.628,94.184
746.396,408.7,168.848
756.888,376.004,176.9
757.62,287.676,85.644
710.04,245.708,-2.196
649.528,236.436,-8.052
611.708,220.088,23.912
602.192,150.304,0.976
637.328,90.768,-9.76
662.46,76.128,41.48
630.252,91.256,61.244
555.588,61.488,-10.736
574.62,-49.044,-118.096
706.136,-94.184,-65.88
809.592,-15.616,140.788
890.6,1.952,222.284
859.124,-82.472,95.16
890.356,-270.596,-163.48
1098.488,-386.252,-222.528
1258.796,-320.128,-46.848
1294.42,-243.268,71.98
1263.92,-347.212,-88.084
1437.648,-488.488,-184.708
1640.168,-489.22,-2.928
1716.296,-406.504,172.996
1672.864,-399.428,129.32
1722.152,-484.828,27.084
1767.048,-516.06,48.556
1720.932,-513.864,85.888
1686.04,-496.296,114.192
1726.3,-451.156,181.536
1685.308,-423.096,245.708
1627.968,-474.58,183.244
1607.96,-522.648,163.48
1545.74,-555.832,175.192
1422.52,-491.904,279.868
1392.752,-432.124,362.096
1433.012,-454.572,367.22
1361.764,-488.244,351.36
1235.372,-489.464,366.0
1146.556,-463.6,357.704
1099.464,-441.396,322.08
1234.884,-411.14,334.524
1234.152,-332.328,383.324
1150.216,-293.776,337.208
1148.508,-315.004,280.356
1178.52,-326.472,244.0
1218.78,-319.152,259.372
1205.604,-302.804,216.184
1161.684,-300.852,197.64
1053.836,-255.468,214.476
956.236,-340.868,95.404
793.0,-318.664,115.656
643.184,-253.516,90.524
514.596,-196.664,32.452
381.128,-129.32,-48.556
442.86,-79.544,-52.704
484.584,9.272,30.988
522.404,68.808,34.648
569.496,84.18,-4.88
570.716,110.776,7.32
667.34,116.876,-8.784
704.428,145.18,12.444
726.388,159.576,14.152
736.88,178.12,1.952
800.808,174.704,-28.548
883.768,192.272,30.256
911.584,253.028,80.52
976.0,266.448,-25.864
927.688,247.172,-94.672
846.68,304.756,-71.98
813.496,406.748,-96.136
709.796,458.72,-67.832
582.916,575.84,22.936
523.624,718.092,4.148
433.588,770.064,-21.716
301.584,853.756,38.308
155.184,1049.444,86.132
122.488,1017.968,-13.664
106.14,1003.572,-72.224
56.852,952.576,-113.948
67.588,904.996,-145.424
30.744,966.972,-102.968
43.92,1045.296,-85.644
78.08,1096.536,-64.416
53.192,1071.16,-71.004
37.82,1013.088,-86.132
18.056,991.372,-95.892
-4.148,992.592,-91.744
1.464,1008.696,-85.644
5.124,1007.232,-78.812
-0.976,991.372,-87.108
-26.352,990.884,-84.18
-49.532,985.028,-93.94
-55.876,977.22,-82.96
-56.852,963.068,-88.328
-44.652,952.332,-100.04
-29.768,978.44,-93.696
-30.012,1039.44,-47.58
-61.0,1070.428,-22.936
-81.74,1039.196,-35.868
-84.668,989.176,-70.76
-59.048,977.708,-78.08
-64.904,959.896,-83.448
-47.824,979.904,-73.444
-0.732,1036.512,-42.456
17.08,1050.664,-33.184
16.348,1050.42,-24.156
-14.152,1034.56,-28.548
-52.46,1014.796,-31.476
-49.532,1005.036,-30.5
-44.652,989.908,-24.644
-67.1,1009.184,-20.008
-82.472,1022.848,-13.664
-61.732,1025.776,-18.544
-57.828,1000.4,-33.184
-34.16,962.824,-58.316
-9.028,948.184,-65.88
-3.172,956.968,-64.66
-9.272,977.952,-48.8
-24.888,983.32,-41.236
-36.356,979.416,-41.968
-91.256,966.972,-58.316
-68.076,968.68,-51.972
-34.404,973.56,-53.192
-33.672,973.56,-48.068
-43.92,985.76,-40.26
-43.676,1013.088,-28.06
-39.772,1015.772,-22.448
-48.8,997.228,-27.328
-68.32,985.76,-29.036
-84.424,969.412,-40.016
-74.176,982.1,-32.696
-87.352,1003.084,-15.372
-96.136,1025.776,1.22
-88.084,1023.092,0.488
-84.668,1007.476,-7.076
-81.008,999.668,-14.152
-71.004,1000.644,-22.692
-64.416,999.912,-39.284
-78.568,1009.672,-52.948
-74.664,1031.144,-27.816
-66.612,1059.448,-1.952
-57.34,1063.596,4.148
-50.264,1058.472,6.1
-29.036,1028.704,-7.564
0.732,998.448,-17.08
-8.784,967.46,-27.328
