acc_x[mg],acc_y[mg],acc_z[mg]
48.068,932.812,14.884
14.64,934.52,44.652
24.156,889.136,48.312
63.44,876.936,9.272
44.652,938.18,19.276
86.376,970.632,0.732
65.148,965.508,11.956
17.568,944.524,16.592
-14.64,945.744,29.28
36.112,933.3,-23.424
33.672,955.992,-54.9
69.296,963.068,-81.008
95.892,973.316,-87.108
127.612,978.44,-92.964
96.868,996.984,-75.152
50.752,1012.844,-51.728
81.984,1001.864,-54.168
91.5,1030.9,-45.628
71.248,1051.152,-43.188
71.492,1072.624,-17.324
63.196,1101.904,-7.32
125.172,1020.164,-70.76
85.156,999.912,-83.692
27.084,998.692,-32.94
31.232,1026.508,-28.548
61.244,1027.972,-40.992
67.1,1007.72,-47.824
51.484,1009.184,-29.524
50.996,1004.304,-34.892
36.844,999.912,-27.816
27.328,996.984,-3.904
44.652,993.568,-29.28
80.764,978.928,-73.444
78.324,984.052,-83.936
67.344,978.928,-66.124
33.184,975.756,-28.792
17.08,994.788,-8.052
30.5,1017.724,-25.376
16.592,1016.016,19.764
19.764,985.272,7.564
21.472,991.616,-8.54
37.82,986.492,-43.92
13.908,1002.352,-12.2
17.812,996.252,-1.22
63.44,983.564,-33.672
49.044,1001.62,2.684
9.76,986.492,4.88
16.348,996.74,9.272
11.956,990.884,24.4
87.84,986.248,12.2
147.62,983.076,-46.36
91.744,972.34,-70.516
25.62,986.248,-35.136
33.428,982.832,-40.504
57.584,944.28,-30.012
97.112,1059.936,-82.96
72.468,1005.524,-125.172
38.552,1045.54,-78.08
-35.38,1032.852,1.708
-44.652,985.516,10.248
-27.816,976.488,-24.888
75.884,978.684,-101.992
11.956,988.688,-72.956
142.008,996.496,23.18
98.82,960.14,35.136
-9.272,978.196,2.196
6.588,976.976,-44.408
16.104,964.776,20.496
38.064,946.72,67.832
79.3,944.036,81.008
64.172,953.308,65.148
107.604,915.0,7.32
122.244,936.96,17.568
120.048,979.904,58.804
135.664,991.128,51.24
63.684,1033.584,52.216
32.452,1011.136,35.624
5.612,1037.732,42.7
-10.248,1055.3,29.524
91.744,1064.572,-79.3
71.248,1062.62,-67.344
42.7,1042.856,-49.288
23.668,1039.684,-61.732
30.744,1016.016,-85.888
6.588,1007.72,-63.196
-41.724,995.032,-15.616
-55.388,979.416,-2.196
-0.732,956.724,-22.448
15.372,959.896,-21.716
-41.236,967.216,-3.416
-40.504,951.112,-23.668
36.356,925.248,-76.372
-15.86,966.972,-89.06
29.28,968.68,-56.608
-18.544,1003.816,-50.996
-16.348,1014.552,-55.388
28.548,1031.876,-73.2
71.492,949.648,-121.512
6.1,957.944,-61.0
-35.624,996.252,-4.636
-25.376,1007.72,-24.644
1.952,1014.064,-53.68
28.304,1014.796,-47.58
30.744,1018.7,-31.72
19.032,1010.648,-28.06
-42.944,988.932,-24.156
-14.64,1029.436,-8.54
97.112,1037.0,-30.744
66.612,1019.188,-36.6
96.624,1038.952,-40.016
71.248,1034.804,-77.104
89.548,1027.484,-68.564
140.788,1050.42,-64.172
25.376,1056.764,-78.08
220.82,1064.816,-179.584
432.124,1001.864,-255.224
551.44,1020.896,-339.404
397.476,1018.212,-230.824
424.804,902.556,2.196
446.276,729.316,161.04
611.464,500.444,213.256
904.996,342.332,152.012
868.396,292.312,199.104
791.78,264.74,270.596
839.116,187.636,248.392
1138.016,191.54,41.48
1238.056,234.24,-25.62
1201.456,240.34,48.556
1138.992,263.276,60.268
1145.092,213.988,82.96
1124.352,185.196,133.468
1067.256,188.124,129.808
915.976,153.232,124.928
819.596,182.512,191.54
709.796,181.536,215.208
735.904,171.776,152.5
787.388,206.668,70.516
695.644,236.924,73.932
626.104,258.64,107.116
631.716,235.704,118.828
628.544,185.44,132.248
572.18,151.28,114.436
513.62,126.392,100.04
519.72,104.188,102.48
484.584,67.588,114.924
542.656,50.02,107.36
622.688,61.244,68.32
701.256,81.496,-8.052
792.024,74.664,-52.704
812.276,-8.784,-70.028
877.668,-98.576,-92.476
947.208,-129.32,-119.804
829.112,-181.536,-16.104
855.708,-267.424,18.788
1046.028,-328.424,-47.58
1165.1,-364.78,-118.828
1185.84,-389.668,-158.6
1089.704,-389.668,-98.332
1140.456,-444.812,-65.88
1286.124,-497.272,-95.16
1372.012,-545.096,-102.48
1316.38,-565.348,-60.512
1304.18,-551.684,-71.736
1333.46,-543.388,-82.96
1444.236,-548.756,-143.472
1499.38,-535.824,-185.684
1411.296,-526.796,-152.012
1374.452,-579.256,-129.564
1366.888,-569.74,-143.96
1323.456,-522.16,-152.744
1255.38,-491.66,-121.512
1238.056,-509.472,-75.396
1243.18,-534.116,-75.884
1249.28,-533.384,-65.392
1180.472,-553.636,-13.42
1188.768,-544.608,11.712
1202.92,-498.004,24.644
1196.332,-476.044,42.212
1256.112,-470.676,8.052
1265.628,-444.812,11.224
1255.38,-419.68,20.252
1241.228,-425.78,60.024
1224.148,-430.66,74.176
1247.572,-417.728,67.588
1191.696,-410.652,92.964
1128.5,-395.036,104.92
1142.408,-376.492,101.992
1150.704,-321.592,73.688
1169.004,-277.672,33.184
1100.684,-268.156,25.376
1023.58,-269.132,45.14
930.86,-266.448,85.156
859.368,-226.92,75.152
802.028,-176.9,61.732
742.98,-115.9,32.208
649.772,-47.58,10.248
569.252,20.74,18.544
571.936,75.64,22.692
575.352,113.948,-1.952
631.96,145.18,-20.496
586.332,144.692,16.836
634.644,167.384,-2.684
684.42,189.588,-16.592
665.144,192.516,5.856
697.596,204.716,-11.468
739.32,214.72,-18.3
820.816,222.772,-27.328
887.184,235.46,-36.844
977.708,247.904,-38.552
863.516,229.604,32.696
870.348,238.144,63.684
903.288,257.42,29.28
972.828,299.876,45.384
948.916,320.616,64.416
952.576,406.26,-9.028
985.272,549.732,-168.848
852.78,626.104,-210.816
787.632,699.792,-179.096
817.4,702.72,-227.408
798.612,720.532,-159.576
654.164,721.752,-69.296
544.12,792.024,-2.44
479.216,786.9,34.404
486.78,782.264,35.136
415.532,821.792,30.012
401.624,933.056,-14.64
164.7,968.68,80.032
57.096,1029.192,120.292
136.396,1023.336,81.496
114.436,991.86,49.288
100.772,1007.964,9.516
74.908,998.448,34.16
107.848,1025.288,47.58
70.272,1022.848,85.4
105.164,1021.14,100.528
139.568,1005.524,105.408
112.972,1016.504,129.808
20.74,1020.652,197.884
51.484,1022.604,208.62
116.144,1006.744,196.42
171.532,1009.428,151.768
115.9,1002.108,178.852
51.728,991.616,217.892
108.092,983.808,209.84
184.22,979.416,165.432
156.648,970.876,142.74
121.512,971.12,160.552
115.412,948.672,130.54
122.976,917.44,87.352
172.752,876.692,18.3
110.532,945.988,39.772
56.364,999.18,38.552
71.736,983.808,5.124
80.764,964.532,-47.092
66.612,978.44,-69.052
95.404,999.18,-104.188
91.012,1003.572,-122.732
50.02,981.856,-122.976
16.348,969.168,-120.536
30.012,973.804,-135.176
24.644,995.032,-139.812
13.176,992.836,-140.544
-51.484,972.34,-135.908
-59.048,942.816,-117.364
-11.224,938.424,-133.468
8.54,956.724,-153.964
-22.448,962.824,-156.16
-68.564,977.952,-139.324
-56.608,988.444,-167.14
-31.476,1030.168,-211.548
-11.468,1054.08,-226.432
-13.42,1051.396,-196.908
-10.248,1036.024,-172.264
-27.328,1019.92,-146.644
-21.716,1007.476,-117.364
-5.368,997.716,-111.02
-8.296,995.032,-95.648
-2.44,989.42,-85.4
10.492,993.812,-86.376
-11.468,992.348,-67.832
-22.204,993.812,-67.588
-11.956,996.496,-62.22
-16.836,992.592,-52.216
-14.152,987.712,-55.144
-10.004,996.252,-53.192
-11.224,1014.064,-60.268
-10.492,1025.288,-57.584
-20.252,1017.48,-35.38
-49.532,998.448,-22.936
-34.892,986.248,-18.788
4.392,984.296,-27.084
22.936,989.664,-56.608
25.376,988.444,-54.9
21.228,981.368,-23.424
13.908,984.296,-14.64
-24.888,1000.156,-26.596
-56.852,1017.236,-25.132
-13.908,1037.0,1.22
11.956,1032.364,38.064
-26.596,1033.096,25.62
27.084,1045.784,-23.668
80.032,1038.952,-24.644
59.292,1017.48,-18.3
193.98,955.992,-103.456
498.736,882.548,-144.204
757.864,837.408,-148.352
638.548,773.236,-99.552
509.228,693.936,27.572
630.496,577.548,148.352
688.324,417.484,172.996
1022.604,370.392,13.176
1026.996,449.936,-36.844
836.92,431.148,29.28
849.608,411.872,88.084
963.312,432.124,27.816
1048.468,434.32,-43.188
985.028,373.32,29.28
969.9,324.764,66.856
959.652,282.064,70.76
862.54,235.46,119.56
760.792,233.996,128.588
731.024,254.492,112.484
662.948,257.908,112.484
609.024,248.88,122.0
630.984,208.376,114.436
637.084,179.584,60.756
630.008,171.288,36.112
564.128,151.036,57.828
532.896,119.316,115.412
638.06,76.616,95.892
781.288,81.008,4.392
804.224,59.78,-21.96
802.516,-6.832,4.636
840.58,-84.18,36.844
843.02,-126.148,21.96
900.116,-84.424,-58.56
901.092,-74.664,-52.216
980.636,-82.96,-69.296
1054.08,-141.52,-128.832
1074.332,-210.328,-161.04
1017.48,-248.636,-101.748
1010.404,-271.572,-56.364
1042.612,-291.58,-52.948
1185.84,-341.112,-125.904
1282.464,-397.72,-147.132
1324.188,-418.704,-153.232
1359.08,-445.3,-151.768
1377.38,-467.748,-122.732
1384.944,-494.1,-62.708
1415.932,-488.732,-80.276
1514.508,-465.796,-91.256
1593.076,-438.224,-117.364
1717.76,-454.328,-138.836
1684.576,-496.052,-61.0
1603.324,-537.044,7.564
1490.596,-563.64,62.708
1396.412,-571.448,116.632
1398.852,-535.336,129.32
1350.54,-484.34,120.536
1273.68,-463.356,132.736
1240.984,-447.252,129.564
1193.892,-407.724,118.34
1184.62,-362.828,105.896
1172.176,-340.136,105.652
1136.064,-284.26,72.224
1132.404,-238.144,66.612
1110.688,-229.36,80.276
1093.608,-232.044,102.724
1063.352,-214.232,116.144
1047.492,-201.544,125.172
1032.608,-178.12,81.252
1045.052,-139.812,55.632
916.952,-138.104,79.788
815.204,-124.44,108.336
731.756,-88.816,93.452
671.244,-23.424,61.732
645.868,30.5,50.752
655.628,86.376,12.2
620.98,124.928,-6.1
587.796,160.552,-29.28
612.928,203.496,-56.852
636.108,235.704,-76.128
676.368,244.732,-59.292
648.308,209.108,-18.056
716.628,187.636,-8.052
759.084,202.52,-35.38
791.292,226.432,-8.54
830.332,240.34,-10.736
895.236,235.216,-20.008
937.448,235.216,-8.296
1026.996,248.88,-20.008
1037.732,249.856,4.636
1083.36,258.64,12.688
995.276,264.74,37.088
959.164,287.676,56.364
1024.068,324.52,38.308
1007.476,354.532,31.476
915.0,386.252,43.432
863.028,493.368,-33.916
833.748,597.556,-113.948
849.608,622.688,-107.116
841.068,646.6,-51.972
662.704,677.1,-51.972
583.16,755.18,-99.064
545.828,812.52,-103.212
563.884,825.696,-78.324
563.152,858.88,-51.972
470.676,873.276,-15.128
413.824,877.912,-43.92
352.58,906.216,-58.316
282.308,925.492,-80.276
217.16,934.032,-67.588
138.104,957.944,-92.964
59.536,994.3,-97.356
-2.684,1004.548,-111.996
-27.816,1020.896,-154.94
-114.68,1069.208,-145.424
-180.316,1076.772,-71.736
-68.32,1036.512,-50.264
-40.26,1017.236,-42.456
-111.02,981.368,-23.18
-98.332,948.184,20.008
-35.624,931.592,50.02
-59.78,929.884,87.108
-90.036,924.028,142.984
-45.872,946.232,128.832
-34.404,967.704,94.672
-110.044,985.76,133.712
-86.132,993.568,156.648
16.348,995.764,122.244
11.224,983.076,127.124
-13.42,982.1,137.86
-19.764,977.464,134.688
16.592,972.096,127.856
-4.392,970.876,138.592
-43.432,980.392,122.488
-31.72,989.176,87.352
-17.812,983.564,91.012
-13.42,983.808,83.204
-27.572,990.396,70.028
-23.668,990.396,34.892
2.928,995.032,0.976
-19.032,988.2,16.592
-45.384,976.244,38.796
-15.128,969.656,14.884
-4.148,973.804,-23.18
-31.232,985.272,-50.264
-29.768,989.908,-79.3
-39.772,995.52,-110.776
-23.668,997.716,-134.932
-14.152,1008.696,-161.528
-38.308,1011.38,-186.66
-64.172,995.032,-184.708
-28.548,985.76,-168.848
-16.592,987.712,-172.752
-24.4,989.908,-166.408
-17.568,979.66,-144.448
-39.528,964.044,-104.92
-32.94,981.124,-122.0
-34.648,998.936,-121.512
-39.04,1016.504,-104.92
-39.528,1022.604,-72.956
-39.04,1030.412,-60.756
47.336,1034.072,-73.688
67.1,1022.116,-42.944
-39.284,1020.164,21.716
-161.04,1009.184,81.008
-30.5,963.556,37.332
235.704,945.5,-39.528
445.3,932.812,-117.12
654.408,904.752,-45.384
543.388,846.436,52.216
436.028,775.188,103.7
566.812,691.252,79.3
836.92,683.688,-43.92
921.344,630.74,-23.424
738.1,553.392,88.816
910.12,417.972,161.284
1245.132,379.42,-57.828
1022.848,396.012,-127.856
985.76,410.652,-10.492
986.98,420.168,35.38
1058.96,382.592,48.556
1054.812,336.232,30.256
941.352,291.092,64.172
824.72,266.204,81.252
840.824,278.404,65.636
872.544,293.532,45.384
824.476,290.36,88.816
738.1,270.352,80.764
651.968,238.388,77.104
617.076,196.42,94.428
636.596,170.8,79.544
683.932,172.752,-6.832
653.92,175.192,-66.124
630.252,171.532,-57.096
538.02,131.028,20.74
537.044,73.444,31.72
615.612,38.064,-43.432
639.036,7.564,-52.948
707.6,7.564,-80.764
786.412,-11.712,-109.312
868.152,-34.404,-167.872
928.42,-76.616,-180.804
912.804,-129.076,-139.08
908.168,-170.068,-121.756
997.228,-200.324,-141.764
1176.324,-205.936,-241.072
1361.764,-208.132,-307.44
1346.88,-242.292,-219.6
1316.624,-325.984,-144.204
1413.492,-382.836,-152.744
1562.82,-417.728,-179.828
1553.304,-452.62,-119.56
1514.752,-488.244,-38.796
1524.756,-481.656,-35.38
1613.816,-463.6,-57.584
1691.164,-440.176,-92.476
1624.308,-426.268,-80.764
1575.996,-420.656,-74.664
1537.2,-402.844,-121.024
1456.924,-359.9,-119.56
1350.296,-314.76,-98.088
1243.912,-309.636,-67.588
1216.584,-317.688,-58.316
1173.396,-301.828,-57.34
1128.5,-303.536,-33.916
1082.628,-295.484,-31.964
1089.216,-272.792,-21.96
1187.304,-217.892,-71.736
1207.312,-144.936,-101.26
1153.388,-124.684,-64.66
1053.836,-132.248,-4.636
1031.144,-117.12,-11.712
1013.82,-99.064,-2.44
843.996,-98.088,6.832
642.696,-54.9,8.784
675.636,16.836,55.876
658.312,81.984,19.032
565.836,130.296,-6.588
524.112,166.408,10.248
579.012,195.2,-22.448
647.088,235.948,-48.312
625.128,266.692,-57.096
619.76,264.984,-24.4
623.908,254.004,-4.148
681.98,237.9,-3.172
781.776,260.592,-30.256
870.836,298.168,-65.88
847.656,306.464,-37.088
821.792,284.748,-18.056
889.624,313.54,-39.772
1055.544,355.752,-88.328
1142.652,354.776,-49.532
1132.404,349.652,-6.832
1055.3,368.196,-15.128
986.492,413.824,-20.74
927.444,464.088,4.148
886.208,530.212,-38.308
936.228,613.66,-112.24
848.632,634.888,-102.236
735.172,675.636,-98.82
666.364,680.516,-97.112
561.444,705.648,-68.808
475.8,745.664,-103.212
384.788,785.924,-99.796
490.928,847.9,-101.504
424.56,876.204,-85.4
267.18,894.26,-31.72
196.664,909.632,-46.848
152.5,913.292,-68.808
167.872,962.336,-65.636
112.728,1018.212,-62.22
-8.784,1008.208,-12.2
-17.08,1019.676,8.052
62.952,1009.916,-73.444
58.804,1019.92,-112.972
-56.608,1032.608,-79.788
-106.628,1003.328,-61.976
-81.984,1019.676,-63.684
-57.34,1023.58,-34.892
-2.684,1028.46,-14.396
4.148,1016.26,-0.488
-15.372,991.372,24.888
-43.92,974.292,47.092
-49.532,983.564,47.092
-30.5,1009.428,22.936
-33.184,1034.316,11.224
-51.972,1040.66,10.492
-96.136,1033.828,31.72
-106.14,1021.628,32.94
-51.728,1018.944,12.2
-16.104,1010.404,26.596
-35.38,998.204,55.144
-39.772,991.616,52.46
-40.504,979.416,61.0
-21.716,986.248,85.156
-36.844,978.684,123.708
-32.452,965.02,143.716
-7.564,957.456,157.624
-22.448,956.724,189.344
10.98,965.02,200.568
17.812,965.996,216.672
34.16,973.072,197.396
20.252,983.32,189.1
-8.54,996.74,200.324
12.688,1011.136,179.828
27.816,1006.256,168.604
32.696,996.74,155.184
45.14,998.448,117.12
43.432,1000.888,89.548
22.936,999.668,60.756
3.904,994.788,31.476
-27.816,983.564,24.4
-25.864,978.196,-8.54
-29.524,976.732,-60.268
-38.796,985.76,-130.784
-77.592,983.076,-172.508
-69.784,982.588,-223.504
-75.396,974.292,-201.3
-46.36,972.096,-222.04
-43.676,970.632,-264.74
-53.68,953.796,-271.084
-44.896,942.572,-247.416
-59.048,941.352,-216.672
-59.536,961.604,-235.948
-68.076,981.856,-241.804
-67.832,1004.792,-242.048
-63.44,1009.184,-200.812
-52.216,1006.256,-182.024
-57.096,995.276,-188.856
-69.296,980.148,-162.748
-38.796,977.22,-145.912
-50.264,989.664,-124.44
-45.872,999.668,-112.728
-46.116,999.424,-93.696
-32.208,993.812,-83.204
-10.004,1006.256,-102.48
15.372,1007.964,-90.524
-42.944,1009.184,-66.612
-66.368,1006.744,-47.336
30.012,1007.964,-25.62
41.48,973.56,68.32
52.216,956.968,85.888
136.884,964.044,-32.94
96.868,963.8,-21.716
48.312,927.688,8.784
162.504,856.928,9.028
400.892,796.66,-30.744
406.016,777.628,-75.152
384.544,719.556,-64.904
845.948,673.196,-156.648
992.104,710.772,-179.828
832.772,659.776,-70.516
854.0,542.9,27.572
878.4,422.852,-3.904
1099.952,421.876,-88.572
1183.644,403.576,-1.22
1074.332,386.008,2.684
1074.82,328.18,58.316
931.836,266.448,66.856
1068.964,253.76,31.476
1071.892,253.272,28.304
991.616,249.368,29.28
966.484,224.236,49.288
982.832,230.58,17.08
1028.216,218.868,-2.196
1035.78,241.316,2.928
991.616,120.292,27.084
880.596,126.88,67.588
865.468,122.732,71.736
878.4,150.304,36.356
876.692,180.072,-5.368
849.12,175.68,13.664
793.976,131.028,49.044
651.236,80.764,59.048
579.988,68.32,55.388
532.408,66.856,65.392
569.496,57.096,35.624
584.624,44.652,1.22
543.388,27.572,-0.976
520.696,-9.272,24.4
636.352,-48.312,3.172
737.612,-56.852,-49.776
778.848,-59.536,-89.304
772.992,-102.724,-39.528
835.212,-173.24,-12.2
946.964,-238.144,-72.956
1038.952,-268.888,-144.204
1117.52,-289.872,-178.364
1065.06,-316.712,-130.052
1029.192,-360.144,-79.3
1037.244,-418.948,-49.532
1154.852,-499.712,-44.896
1316.868,-545.34,-106.14
1377.624,-521.916,-139.568
1313.94,-521.428,-84.668
1384.7,-544.12,-100.04
1487.18,-576.816,-143.228
1507.92,-550.952,-174.948
1478.884,-498.248,-162.26
1513.288,-512.156,-123.952
1527.684,-534.116,-101.992
1459.852,-537.288,-92.964
1421.056,-549.488,-50.02
1359.08,-560.956,-2.928
1362.252,-546.072,-1.708
1357.128,-535.336,-6.344
1325.164,-528.504,25.376
1303.692,-542.412,61.976
1306.376,-507.276,41.236
1258.064,-462.136,49.776
1236.348,-437.248,73.2
1219.756,-430.416,83.204
1156.804,-425.536,98.088
1142.896,-413.58,71.248
1078.236,-391.62,75.64
1019.188,-347.212,69.296
1003.816,-279.136,34.648
932.324,-235.46,30.5
850.34,-210.572,49.044
780.556,-208.864,73.688
785.436,-182.512,56.364
804.224,-132.98,30.5
739.32,-92.476,26.596
709.064,-57.096,19.276
656.116,-19.276,-5.856
617.564,19.52,-3.66
608.536,47.336,-5.368
643.184,62.708,-42.212
643.916,63.196,-41.968
647.576,79.788,-12.688
677.588,84.912,4.148
753.472,99.064,-4.636
825.208,111.02,-5.368
896.7,136.152,-20.984
994.3,146.4,-11.712
961.848,125.416,56.852
896.456,134.2,46.36
1080.188,173.484,0.488
1162.172,206.668,7.564
1041.88,248.392,10.492
928.664,353.068,-43.92
972.096,477.996,-164.944
1030.168,496.784,-142.008
980.88,510.204,-72.712
815.204,535.58,-24.644
684.176,579.012,5.124
667.828,656.604,-76.616
556.32,716.628,-55.144
538.264,740.784,47.336
536.556,768.844,105.896
569.008,815.692,28.06
466.04,848.876,13.42
391.864,868.884,8.296
406.748,895.236,-37.088
326.716,882.792,4.88
265.228,919.148,23.424
288.164,978.684,-65.636
243.512,983.808,-77.836
123.464,957.944,-15.128
105.896,975.268,-55.388
97.112,1033.34,-172.508
16.836,1054.08,-109.8
-17.324,1042.612,-42.212
54.656,1028.216,-48.8
25.132,1012.112,-59.536
0.244,992.592,-55.388
34.404,986.248,-43.188
2.684,996.74,-5.856
-42.944,987.468,6.832
-21.96,988.932,-18.3
-44.652,1001.62,-19.032
-49.044,1009.672,-28.304
-19.52,1015.284,-38.552
-53.68,1005.036,-14.884
-45.628,991.128,-26.596
-46.848,989.664,-44.408
-49.044,1013.576,-70.272
-60.512,1021.872,-53.192
-25.132,1017.968,-63.44
-17.812,1003.328,-52.704
-50.02,988.444,-19.764
-25.62,977.952,-16.104
-31.72,966.24,-4.148
-43.432,966.484,-15.616
-30.5,972.828,-10.004
-15.86,978.684,-11.956
5.612,992.348,-21.228
4.88,994.544,-18.544
-12.2,995.276,-20.496
-43.432,988.932,-8.296
-22.936,981.124,-11.956
-23.912,983.564,-24.156
-7.808,995.276,-42.212
-15.86,1000.4,-36.6
-43.676,990.152,-28.548
-50.508,976.0,-16.104
-28.548,982.1,-27.816
-8.296,1003.572,-45.14
-6.344,1017.236,-49.044
-12.2,1016.016,-20.984
-11.224,1016.016,-9.272
-17.324,1007.72,-1.708
-30.012,990.64,-10.98
-44.652,967.216,0.732
-44.164,963.8,1.952
-26.352,969.9,-23.668
-21.228,978.928,-29.036
-15.616,984.54,-8.54
19.52,992.104,-16.348
-0.244,983.808,-4.636
-2.928,974.292,-18.056
-15.128,980.88,-25.132
-13.176,994.056,-10.492
-5.856,1010.404,-47.092
-17.08,1005.28,-50.996
-25.864,995.276,-44.408
-61.0,985.028,-27.328
-35.38,1005.768,-65.148
-50.752,1007.72,-28.304
-43.676,1005.28,-43.92
-26.596,1003.328,-52.46
-41.48,990.884,-23.668
-40.992,982.588,-16.592
-26.352,980.148,-3.416
-15.128,973.316,-17.08
-35.38,967.46,-17.08
-28.792,974.536,-1.952
-10.98,988.688,2.44
-11.468,993.08,-22.692
0.732,987.224,-31.964
-22.936,981.368,-8.052
-18.3,988.444,-21.228
-16.592,998.448,-33.184
-9.028,998.692,-55.388
-23.18,992.592,-41.968
-40.016,987.956,-31.72
-30.988,993.08,-36.112
-22.448,991.616,-39.772
-36.112,987.712,-31.72
-58.56,982.832,-19.764
-42.456,989.664,-15.86
-11.224,996.74,-14.64
-7.076,1000.4,-15.86
-30.256,996.496,2.928
-30.988,989.176,42.456
-2.684,989.176,56.852
-10.98,997.96,64.904
-30.744,1010.404,97.356
-14.884,1021.872,135.664
20.74,1039.928,138.348
53.436,1046.516,133.956
47.58,1054.568,133.956
28.06,1048.224,168.604
3.66,1038.708,182.268
9.76,1026.264,173.728
14.152,1008.696,156.16
-4.636,998.936,145.668
-20.496,980.392,157.624
-8.296,948.672,160.064
6.344,924.028,132.736
10.004,925.004,78.568
-11.468,944.28,77.592
-8.54,955.016,91.5
5.124,969.168,49.288
15.372,962.824,-11.956
45.628,960.872,-49.044
32.94,948.184,-55.144
25.376,941.84,-81.74
-12.2,936.228,-113.216
-18.3,932.324,-147.62
-16.348,955.016,-206.18
-24.4,974.536,-219.112
-27.084,972.828,-205.692
-49.288,969.656,-229.848
-68.808,992.104,-275.232
-88.572,1003.084,-279.624
-89.304,1005.768,-267.424
-84.912,1005.768,-244.244
-91.256,1019.92,-251.808
-77.592,1022.848,-223.992
-54.168,1029.68,-187.636
-40.504,1022.848,-140.544
-49.044,1005.524,-103.944
-59.78,993.812,-89.792
-22.692,1006.988,-98.332
-18.3,1006.988,-60.268
-10.248,1001.132,-39.284
1.22,990.152,-40.504
16.104,992.348,-61.0
4.636,998.936,-39.772
-25.132,1027.728,-25.62
25.864,1038.952,-24.888
33.184,1023.092,2.928
-12.688,1004.304,28.792
-26.352,991.128,41.724
-38.308,967.948,66.856
73.932,964.044,0.0
120.536,987.712,-35.38
-11.956,1032.12,-52.704
153.232,1045.54,-104.92
340.38,932.08,-55.388
461.648,838.628,-143.228
476.532,779.336,-83.448
730.292,649.528,18.544
905.728,544.364,52.46
609.268,454.572,80.276
600.972,359.9,215.94
788.852,306.952,104.188
1293.444,398.452,-217.892
1283.196,470.676,-191.296
1017.48,359.656,32.208
1095.804,288.408,21.716
1209.02,270.596,-60.756
1153.876,252.54,-50.752
1050.664,236.192,-19.276
1020.896,197.396,48.312
888.16,173.728,60.024
865.224,175.924,91.012
848.388,174.704,54.656
793.488,162.016,56.852
758.108,141.032,49.044
672.22,116.876,79.788
669.292,121.512,64.172
652.944,154.94,0.732
611.952,178.12,-46.604
553.88,149.328,-12.2
426.512,114.436,33.184
513.864,72.712,-35.624
481.9,40.016,-2.44
662.46,23.424,-117.608
746.64,-18.056,-154.94
722.728,-52.46,-147.132
672.952,-50.264,-154.94
721.752,-96.624,-122.244
901.58,-208.62,-128.832
1070.672,-307.196,-190.32
1045.296,-355.02,-196.176
1039.928,-375.028,-164.7
1098.732,-410.408,-133.712
1277.096,-444.08,-155.428
1444.724,-512.644,-189.588
1510.848,-559.004,-182.024
1551.108,-560.468,-142.496
1597.956,-601.46,-68.564
1701.168,-613.416,-80.52
1717.76,-593.652,-82.716
1696.532,-581.94,-40.504
1734.108,-561.688,-22.448
1703.364,-561.932,13.908
1654.808,-577.304,46.36
1547.936,-591.212,90.768
1447.164,-559.248,105.896
1333.948,-539.972,133.468
1283.928,-533.14,159.332
1271.24,-510.936,130.296
1224.392,-478.24,130.784
1173.884,-455.548,142.74
1118.496,-437.248,139.324
1068.232,-426.024,155.184
1085.068,-383.324,116.876
1053.836,-332.816,74.664
994.056,-285.48,59.78
881.572,-261.812,49.288
752.496,-242.78,60.512
646.112,-190.564,51.728
583.648,-121.024,54.412
562.908,-41.968,25.132
488.0,11.956,34.16
548.024,36.112,25.864
581.452,52.704,15.372
593.896,89.304,18.544
626.836,87.352,52.216
678.564,81.74,60.512
736.148,96.868,51.972
747.128,116.876,69.784
815.692,125.66,79.788
913.292,122.488,69.54
944.28,126.148,27.328
938.424,121.756,38.552
909.876,129.564,55.876
967.46,148.596,59.292
997.228,173.728,47.092
1074.332,190.076,50.752
1134.6,209.352,35.624
1059.448,219.844,18.788
889.868,253.028,-18.544
829.356,304.024,-10.98
993.812,327.936,22.204
1013.82,327.204,42.7
1125.816,366.0,-38.308
1109.224,370.88,-43.188
971.364,412.116,-51.972
820.816,522.892,-130.296
1022.604,590.236,-145.424
1088.728,584.38,-81.496
834.48,532.652,6.1
649.528,513.132,67.1
659.532,561.2,46.36
696.376,634.644,13.908
686.616,711.504,-26.596
494.832,742.248,34.16
410.652,784.948,28.792
423.584,835.212,-26.596
463.356,870.104,-74.664
370.636,930.128,-86.132
309.636,952.332,-50.02
285.968,924.76,-51.728
180.56,909.876,-12.444
298.168,956.724,-112.484
227.164,1003.572,-144.204
67.832,1021.14,-102.724
23.912,1008.452,-75.396
28.06,999.18,-57.096
15.372,994.056,-46.848
11.712,983.564,-45.872
21.228,968.192,-42.944
2.684,962.336,-6.1
31.476,975.756,5.612
8.052,975.756,2.928
-26.596,987.224,-4.148
22.204,1005.036,-36.6
29.036,1011.38,-15.86
2.928,1017.48,-14.152
-18.788,1006.5,-29.036
10.248,1020.652,-42.456
-4.392,1029.68,-35.868
-12.444,1009.672,-28.06
-3.66,1002.596,-24.644
-13.664,993.812,-20.496
-34.892,990.64,-24.644
-53.192,987.956,-22.204
-22.692,986.004,-31.964
-9.516,990.396,-32.94
-14.64,997.96,-36.6
-41.724,994.3,-22.936
-46.848,989.42,-6.1
-48.068,981.856,-13.42
-21.716,989.42,-31.964
-7.564,1001.62,-55.632
-34.892,1006.5,-33.428
-38.308,1016.016,-26.84
-16.348,1017.236,-50.02
-22.936,1001.864,-35.624
-24.156,996.008,-14.884
-16.592,993.324,2.196
6.832,994.788,-20.252
-30.5,978.44,-7.808
-35.624,962.58,-5.124
-34.648,961.116,-2.928
-18.3,970.144,-25.132
-21.228,979.172,-10.736
-17.08,987.956,-17.324
-30.256,984.052,-3.66
-30.744,978.44,-13.664
-32.208,991.128,-33.184
-25.132,1003.084,-42.456
-16.104,1000.888,-30.988
-13.664,990.396,-34.16
-23.18,977.952,-23.18
-12.444,979.66,-25.864
-8.052,981.124,-29.036
-20.984,980.636,-12.444
-14.396,991.128,-25.132
-20.984,998.692,-29.524
-26.108,1004.548,-53.192
-26.596,1003.328,-43.92
-20.252,1006.744,-34.404
-19.764,1006.256,-40.748
-13.908,995.52,-31.476
-15.86,987.712,-22.692
-18.544,989.176,-21.96
-19.032,990.64,-17.324
-9.028,991.86,-18.3
-3.172,996.008,-19.52
-3.416,1001.864,-20.008
-2.684,998.204,-10.248
-10.492,997.228,-3.416
-5.124,998.692,-9.516
-7.564,1002.596,-15.616
-23.18,1007.476,-7.32
-15.372,1013.088,-10.98
-9.76,1018.212,-13.42
-25.132,1012.112,-7.564
-19.032,1000.4,-23.912
-33.672,992.348,-17.324
-17.324,987.224,-11.224
-10.004,987.956,-0.732
-7.076,988.444,3.66
7.808,989.664,0.488
-14.884,988.688,26.596
-33.672,994.056,40.748
-25.864,1006.988,38.064
4.88,1016.748,46.116
5.612,1020.896,75.64
8.784,1022.604,101.26
4.88,1005.524,132.004
40.016,985.028,148.352
38.064,977.464,140.544
10.492,977.22,147.62
-5.124,972.34,158.356
21.96,986.492,133.712
17.812,998.448,107.36
14.396,1001.864,89.06
6.588,989.176,92.232
-17.812,994.788,71.248
-25.132,994.544,56.852
-6.344,997.228,31.476
-29.036,1011.38,3.416
-40.748,1010.892,7.32
2.684,1006.5,-1.952
21.716,982.588,-2.684
-1.464,958.676,-14.884
-31.72,939.156,-26.352
-49.532,946.476,-46.36
-60.268,957.456,-77.348
-46.604,979.904,-110.776
-35.868,990.64,-129.076
-36.844,978.684,-131.272
-23.424,954.528,-145.668
-48.068,922.564,-152.5
-53.68,916.952,-181.048
-59.78,929.64,-171.776
-48.8,957.944,-193.004
-61.244,966.484,-201.3
-69.54,964.776,-197.64
-66.124,953.796,-196.908
-90.036,940.376,-161.528
-99.308,950.38,-123.464
-84.18,985.028,-112.972
-69.54,1034.804,-134.2
-31.72,1071.404,-147.864
-5.124,1093.852,-175.436
3.66,1080.676,-152.012
-10.736,1039.196,-101.504
-41.968,999.18,-60.756
-55.388,974.292,-35.136
-38.308,965.508,-23.912
-0.488,967.46,-22.692
32.94,962.58,-20.74
11.468,960.872,-28.548
-36.112,960.14,-14.884
-63.684,964.776,-3.904
-51.24,979.904,-5.368
-4.88,995.764,-5.612
30.988,1003.572,0.488
69.052,1013.332,-13.42
80.032,1018.212,-33.916
53.924,1011.868,-31.964
-3.416,999.912,-15.86
-19.52,992.592,-26.352
-25.864,989.42,-19.276
-23.668,993.812,-15.616
10.736,1001.132,-15.372
20.008,1008.94,-19.52
9.516,1017.968,-32.94
8.784,1021.872,-38.064
-5.612,1026.264,-42.7
-9.76,1016.992,-35.136
-5.124,1004.304,-33.916
-1.22,990.884,-42.944
11.468,979.904,-41.236
-9.272,972.096,-2.44
0.976,973.072,4.88
2.44,977.952,-14.152
-4.636,983.076,-11.956
6.1,1001.132,-21.96
12.932,1016.016,-29.28
14.152,1011.136,-21.716
-5.612,996.984,-9.028
8.296,985.76,-5.612
4.636,989.176,-2.196
-7.808,1001.376,-16.104
-28.792,1001.376,3.416
-67.832,1008.94,17.568
-41.48,992.104,15.372
58.316,969.9,10.736
101.992,952.576,-75.64
192.028,924.516,-108.092
353.8,908.412,-104.676
509.228,876.936,-134.932
726.144,789.584,-108.58
731.756,727.12,-40.748
625.128,614.148,89.06
624.152,475.312,204.228
786.656,338.672,213.256
1158.756,283.528,-2.196
1077.748,307.44,31.232
956.724,287.432,117.12
1084.092,296.46,74.176
1165.1,326.228,-25.62
1200.968,325.496,-36.6
1073.356,278.404,31.964
1053.104,230.336,41.968
1032.364,204.716,55.876
875.716,173.972,75.884
824.964,192.272,54.168
788.852,205.448,55.876
672.464,194.468,99.796
629.276,180.072,91.744
609.268,174.216,74.908
577.304,167.628,36.6
596.336,163.968,-18.788
544.852,139.812,2.44
551.928,102.968,2.196
588.04,80.276,-42.7
576.084,64.66,-50.996
605.12,52.46,-65.392
701.256,22.204,-57.828
761.28,-11.224,-102.236
820.572,-63.44,-116.388
873.276,-77.348,-121.512
936.716,-91.744,-134.688
923.052,-148.352,-92.72
953.308,-243.756,-2.684
1075.796,-325.008,-10.004
1141.676,-349.408,-48.556
1265.872,-370.148,-102.48
1278.56,-429.44,-62.708
1246.352,-487.024,39.04
1295.884,-478.24,10.004
1395.192,-520.208,-28.304
1541.348,-571.204,-55.876
1615.28,-552.416,-77.104
1641.632,-506.544,-108.336
1631.14,-505.812,-87.108
1656.272,-502.396,-99.064
1627.968,-496.54,-117.852
1602.592,-490.196,-135.908
1550.132,-462.38,-148.84
1407.88,-436.028,-124.928
1316.136,-432.856,-94.916
1264.408,-416.752,-81.252
1272.704,-377.712,-91.012
1231.712,-370.636,-73.932
1202.92,-388.448,-28.06
1147.288,-399.916,12.688
1117.764,-388.936,16.592
1132.16,-359.168,14.884
1139.968,-322.812,6.344
1112.64,-281.088,-3.416
1082.872,-271.572,15.372
1051.152,-275.476,30.744
964.044,-270.352,46.36
894.748,-250.344,66.612
855.708,-223.748,55.144
802.76,-200.08,59.78
732.488,-167.384,65.148
715.408,-120.536,52.704
656.604,-81.984,43.676
630.252,-20.984,28.06
594.628,7.564,35.868
613.904,25.376,34.648
670.268,40.504,-1.464
689.544,77.592,-23.18
688.568,94.184,-4.148
770.552,92.476,1.708
850.584,83.936,-16.592
843.02,81.984,-12.444
892.308,119.072,-34.648
918.416,136.152,-24.4
971.852,142.008,-34.404
1013.088,136.884,-53.436
993.812,132.98,-46.604
990.396,129.564,-32.208
1032.12,137.128,-46.848
1067.256,150.548,-46.36
1039.684,152.5,-10.248
999.18,160.796,1.464
972.584,188.368,-21.96
914.512,203.984,4.88
952.82,253.272,5.612
1094.34,295.728,-35.136
1031.144,330.62,-15.616
1031.876,432.612,-103.212
955.016,527.04,-153.232
837.164,560.956,-115.656
769.576,606.584,-73.2
681.248,646.844,-5.856
637.816,729.56,-18.788
633.424,809.104,-86.62
489.464,806.908,-48.8
415.532,801.784,43.188
461.404,817.888,25.864
544.364,921.344,-139.812
490.928,967.948,-162.504
284.992,955.504,-22.936
224.968,932.812,49.288
327.936,874.008,80.764
330.864,833.016,105.408
198.86,842.288,20.252
-23.912,896.944,29.036
-40.748,981.856,-10.492
-3.66,1023.58,-3.172
74.664,1046.76,-19.032
99.308,1042.856,-74.42
81.496,1030.9,-67.1
53.192,1028.704,-46.848
16.836,1013.82,-13.42
49.044,999.668,-4.88
90.036,997.228,-22.204
130.052,1013.82,-54.168
121.512,1014.064,-53.924
65.148,1008.208,-30.012
40.26,1001.864,-24.156
40.504,985.76,-17.568
21.96,976.0,-19.764
25.864,970.876,-12.688
66.368,996.252,-77.592
0.732,996.496,-36.844
60.268,1001.62,-63.44
48.312,1017.48,-51.972
23.424,979.416,-8.052
47.092,947.696,-8.052
76.86,948.916,-27.084
49.288,960.14,-16.348
75.884,986.492,-36.844
30.012,1014.796,-60.024
31.476,1035.048,-74.908
2.196,1042.124,-76.616
-9.76,1048.712,-90.524
-21.472,1032.364,-50.996
-13.664,1017.968,-46.116
0.976,1001.376,-43.432
66.612,990.396,-51.728
24.888,983.076,-11.468
45.384,994.544,-19.764
51.484,1008.452,-40.992
13.176,1010.892,-37.82
2.196,998.448,-20.008
0.0,989.664,-2.928
20.008,987.468,-10.98
49.044,993.812,-31.964
24.4,995.032,-24.888
33.672,999.18,-10.004
37.332,992.836,-3.66
41.236,978.44,-11.712
46.36,965.996,-6.588
22.448,957.212,2.196
7.808,965.02,12.444
27.084,986.492,-6.588
25.864,993.08,-9.516
31.964,994.056,-5.856
40.748,996.74,-10.736
8.296,991.86,-15.616
-2.44,986.492,-15.86
10.004,987.468,-16.836
16.104,998.692,-29.524
28.792,999.668,-29.28
36.844,1000.4,-26.108
41.236,997.472,-30.012
25.132,988.932,-18.3
2.196,988.444,-16.592
-3.416,990.396,-7.564
12.688,1001.376,-22.204
35.136,1005.036,-37.576
30.012,1002.84,-22.692
33.184,994.544,-10.736
27.572,983.808,4.636
16.836,975.268,5.368
12.688,974.048,-9.272
9.272,976.244,-10.736
5.368,978.684,-4.636
22.692,990.884,-15.372
19.276,999.912,-36.356
14.884,999.912,-32.94
16.836,996.74,-26.108
-1.952,993.568,-22.448
0.244,984.784,-26.108
4.88,973.56,-16.592
0.0,977.708,-36.6
11.712,984.052,-27.328
15.616,989.664,-25.132
6.832,992.104,-32.94
-10.248,991.86,-26.108
0.244,998.936,-18.056
9.76,1005.768,-29.28
17.568,1011.624,-32.696
19.032,1005.524,-22.692
13.42,1004.304,-26.108
7.564,1003.816,-20.74
10.736,1004.06,-28.06
7.564,996.74,-18.3
18.788,990.884,-16.592
22.692,994.788,-19.032
20.74,996.496,-22.936
20.252,993.812,-20.008
6.832,989.42,-20.496
2.928,992.104,-9.272
7.32,998.936,-21.716
11.224,1000.644,-35.868
1.708,991.86,-23.424
5.612,996.252,-23.668
15.128,1006.744,-31.232
11.224,1004.06,-32.208
2.684,991.86,-26.84
10.492,983.076,-18.788
5.612,984.296,-20.984
-15.616,980.392,-18.056
-10.248,978.684,-20.008
-0.488,989.42,-28.548
25.864,1000.156,-25.62
34.404,998.448,-25.864
17.568,983.808,-19.032
6.588,965.996,0.0
1.464,968.924,4.392
16.592,981.612,-7.32
29.036,988.444,-11.224
13.664,989.176,-14.64
-11.956,981.612,-5.124
-35.624,980.88,-15.128
-29.036,984.052,-25.864
-16.104,994.544,-25.132
-8.052,1000.644,-13.176
3.904,1001.62,-13.176
4.636,991.128,-17.812
2.928,978.928,-3.172
-5.368,979.172,8.296
-4.88,981.612,15.616
-5.612,984.296,32.452
17.568,986.004,25.132
26.84,1000.156,27.816
40.016,1016.016,39.284
42.456,1021.628,47.336
10.98,1017.48,66.612
6.1,1011.38,81.008
40.016,1013.088,89.304
56.608,1021.628,95.648
72.712,1016.992,97.6
53.924,999.912,115.9
0.488,999.668,128.588
26.108,995.032,117.12
41.236,983.564,92.232
44.896,981.612,100.04
32.452,975.024,114.924
42.7,974.536,97.844
34.648,971.364,93.208
27.816,973.56,81.008
30.256,991.128,62.952
19.032,1004.548,55.388
17.568,1001.376,38.552
47.58,992.104,14.884
27.328,978.684,14.152
0.0,957.7,34.404
7.808,953.308,31.232
17.568,962.58,27.328
51.484,981.612,-25.376
46.848,990.396,-71.492
16.348,987.224,-95.648
10.248,995.276,-114.924
4.636,973.804,-131.76
-6.588,981.124,-184.22
-14.396,967.704,-189.832
3.904,965.508,-207.888
-19.52,951.112,-205.204
-46.116,945.256,-208.132
-53.68,955.748,-208.376
-66.856,979.66,-202.764
-68.808,1009.184,-209.352
-50.264,1018.944,-219.844
-56.852,1011.624,-205.204
-77.836,1002.596,-170.8
-69.296,1002.108,-140.056
-40.504,1013.576,-124.196
-18.788,1024.068,-111.996
-1.22,1031.144,-111.996
5.856,1030.168,-94.184
19.52,1017.724,-77.592
18.3,1002.108,-57.584
10.004,987.956,-26.596
31.232,995.032,-35.136
42.7,1005.524,-41.48
49.776,1006.988,-31.964
45.872,996.008,-13.176
37.82,987.956,-18.056
31.232,988.2,-27.084
24.4,998.936,-26.108
18.056,1014.552,-23.18
32.208,1017.724,-30.5
25.864,1003.328,-37.82
5.612,984.296,-37.332
-9.516,967.216,-6.1
-10.736,964.532,-10.492
22.936,971.608,-40.016
12.932,973.316,-31.476
6.832,969.168,-24.156
20.496,964.776,-27.084
13.176,963.312,-26.108
-11.468,955.992,-19.764
-8.784,958.676,-33.428
-26.108,966.972,-28.792
-10.248,980.88,-26.352
30.988,998.204,-37.332
41.236,1011.136,-38.796
30.5,1018.944,-39.04
19.032,1025.044,-53.68
-6.1,1020.652,-40.016
2.684,1014.064,-41.48
8.54,1008.452,-45.14
7.32,997.228,-40.016
18.544,988.2,-38.308
6.1,978.196,-34.892
-5.612,975.268,-30.744
-4.636,983.076,-40.748
-16.592,998.936,-49.532
9.76,1006.256,-54.9
8.296,1004.792,-47.58
11.468,1000.156,-58.56
8.296,996.74,-55.876
-6.588,989.42,-28.548
3.904,988.688,-39.284
-10.492,986.004,-43.432
-1.708,988.2,-48.8
8.54,990.152,-46.116
16.836,989.908,-42.212
-9.272,983.32,-34.892
-14.884,992.592,-48.556
-94.428,989.176,-9.028
-144.936,975.024,34.892
-73.932,958.92,38.064
43.432,941.596,35.38
116.632,941.596,-34.16
141.032,918.172,-45.628
240.34,894.26,-54.412
307.928,851.316,-84.18
856.44,794.952,-317.932
1017.236,815.204,-309.636
634.4,690.276,32.452
579.256,493.124,264.496
705.892,294.996,254.98
1233.908,254.492,-12.688
1159.976,280.6,-72.468
911.828,260.592,224.236
998.448,259.616,206.668
1077.26,275.72,47.58
1251.72,318.176,-109.8
1126.304,295.972,-25.864
1055.056,241.316,72.712
1022.848,203.252,51.24
917.684,194.224,38.796
894.504,213.256,11.712
829.6,204.472,31.964
680.272,153.232,96.136
621.224,132.736,87.596
606.828,121.268,42.944
565.592,135.176,-0.488
503.616,116.388,6.832
481.656,93.452,6.588
496.784,56.852,-12.932
489.708,27.816,-30.256
464.088,5.856,-12.444
512.644,-42.944,24.4
612.928,-70.76,-41.724
744.688,-97.112,-117.364
806.42,-127.368,-96.624
888.16,-128.588,-161.772
922.076,-172.996,-178.608
963.312,-261.08,-160.796
1106.296,-349.652,-191.296
1163.148,-382.592,-202.276
1109.468,-433.588,-147.62
1214.632,-509.96,-151.28
1406.904,-571.692,-184.22
1476.2,-551.928,-238.876
1581.364,-550.22,-254.492
1586.488,-602.924,-190.564
1642.608,-646.112,-176.9
1715.808,-623.42,-249.124
1798.524,-586.088,-273.524
1825.12,-556.564,-258.152
1811.944,-527.528,-248.148
1748.992,-515.572,-225.944
1693.604,-527.528,-181.048
1623.088,-510.204,-160.064
1521.828,-503.128,-142.008
1417.396,-488.244,-98.088
1302.716,-466.772,-65.88
1228.784,-461.404,-27.572
1161.928,-454.572,10.004
1169.98,-437.736,0.244
1118.008,-405.772,-5.124
1101.416,-349.896,-10.98
1043.1,-303.048,-1.464
950.136,-288.164,35.624
866.444,-277.184,42.944
770.308,-237.412,17.568
628.056,-202.276,39.772
523.136,-152.5,50.752
479.216,-118.584,46.848
411.628,-80.276,53.924
382.348,-47.092,75.884
468.724,3.904,37.576
511.668,47.336,5.368
561.444,81.496,8.54
679.052,125.66,-44.164
740.784,143.472,-50.508
759.572,141.52,-26.84
821.06,131.028,-21.716
831.064,139.812,-41.968
896.944,159.82,-63.928
957.212,198.372,-70.028
982.1,220.82,-79.788
986.98,223.016,-80.764
1032.364,220.332,-82.472
1056.764,208.132,-76.372
1116.788,212.036,-69.296
1085.068,203.252,-38.308
948.672,194.956,-36.844
945.256,210.328,-24.156
1056.52,242.292,-28.792
1046.516,252.296,8.54
979.66,293.532,18.544
952.088,330.132,-31.476
959.652,387.472,-89.792
928.664,487.512,-170.312
931.836,588.284,-240.096
860.588,620.492,-162.992
692.716,610.732,-14.152
617.076,609.512,30.5
596.336,651.236,5.856
654.408,698.572,-49.776
544.608,703.208,14.884
372.344,718.58,76.86
368.684,749.568,27.816
419.68,890.112,-115.412
338.428,1007.476,-154.208
200.08,1032.852,-94.428
120.536,1007.964,-41.236
139.568,982.1,-49.532
125.416,993.324,-93.696
102.968,995.52,-109.8
85.888,1004.304,-109.312
44.408,1004.06,-94.916
-6.588,1040.66,-76.128
-2.928,1064.328,-66.368
15.128,1030.412,-31.72
-28.792,996.008,-2.44
-8.052,998.448,-37.332
42.456,1003.328,-24.4
70.272,1000.644,-6.1
39.04,1003.816,-0.244
35.868,1008.696,-39.04
68.076,1009.672,-62.952
64.172,994.3,-22.204
70.028,999.18,-33.672
47.092,1014.796,-52.216
20.008,1023.58,-56.364
-7.076,1011.624,-35.624
-1.708,995.52,-49.044
1.22,983.564,-61.244
10.248,975.268,-26.596
37.576,974.292,-29.036
19.764,965.264,-8.784
16.348,962.092,-27.084
10.248,969.9,-29.28
-20.984,976.976,-14.396
-21.716,987.956,-37.576
-0.244,986.004,-26.84
32.696,992.592,-36.112
37.332,1000.888,-26.352
21.716,1006.5,-26.108
27.084,1018.944,-52.216
27.572,1013.332,-38.552
20.252,1003.328,-30.012
-12.2,996.984,-14.396
-8.784,995.52,-12.932
8.052,994.788,-25.376
5.856,992.348,-21.96
21.228,992.836,-32.94
10.736,993.568,-24.156
12.932,995.52,-25.132
23.18,996.984,-21.96
27.572,991.616,-15.616
19.764,984.052,-23.424
3.904,973.072,-14.64
5.612,969.412,-16.104
7.808,974.78,-21.96
-1.708,982.832,-21.716
10.492,993.324,-17.568
36.112,1003.572,-11.712
30.012,1010.16,2.684
12.444,995.276,21.96
-1.952,973.804,28.304
14.396,973.804,7.076
13.42,987.224,43.92
16.104,1004.304,65.636
46.604,1019.432,43.92
69.052,1031.144,43.676
28.792,1029.436,71.736
39.772,1027.972,83.936
31.476,1024.068,103.7
59.536,1011.624,104.188
60.512,999.668,122.732
43.92,1000.156,123.952
59.292,998.692,104.92
32.208,993.568,128.1
49.776,973.316,119.072
36.6,970.632,118.828
27.572,973.072,110.044
39.284,987.468,69.296
30.988,992.836,59.78
48.8,984.784,43.432
56.608,971.12,17.08
37.332,960.384,8.052
49.776,974.536,-30.012
3.172,983.808,-33.916
7.32,982.1,-59.78
18.3,965.508,-98.332
-13.176,958.432,-120.048
-13.908,959.652,-125.416
11.956,968.436,-151.28
-21.228,982.588,-180.316
-38.552,990.396,-199.592
-21.472,989.908,-219.356
-19.032,990.396,-226.188
-11.224,994.544,-231.068
-20.74,983.564,-205.448
-39.284,973.316,-215.94
-58.56,961.36,-215.94
-61.0,960.872,-197.64
-59.292,973.56,-185.928
-61.244,985.272,-189.1
-57.34,989.664,-168.848
-39.04,993.568,-146.644
-27.816,994.3,-135.42
-20.008,991.128,-133.956
-20.496,988.688,-119.072
-21.716,994.788,-104.676
-4.148,1004.548,-119.56
-11.468,1012.112,-112.484
-15.372,1011.38,-90.768
-8.784,1006.012,-77.836
-7.564,997.716,-71.248
-8.052,992.836,-70.272
16.592,999.18,-70.028
30.256,997.228,-46.116
23.668,990.64,-45.872
10.492,983.808,-43.676
3.66,974.048,-23.668
5.124,971.608,-28.548
20.496,975.268,-34.404
24.156,986.736,-39.772
16.104,999.424,-42.944
3.416,1005.28,-47.092
-18.3,1004.304,-34.648
-18.3,1003.816,-24.644
15.128,998.936,-33.184
17.812,1003.328,-32.94
38.552,1007.964,-35.38
66.856,1007.72,-36.112
56.608,1003.816,-28.304
51.24,999.912,-28.548
32.208,993.324,-25.376
34.16,992.592,-33.184
34.648,995.52,-29.768
47.092,1004.548,-40.26
26.352,1013.332,-69.052
11.712,1008.452,-71.736
-1.708,1000.156,-64.904
-15.616,992.592,-65.88
-7.076,990.64,-52.948
3.172,996.252,-57.828
-9.028,984.296,-42.944
-4.636,970.632,-45.14
-11.224,957.7,-34.648
-17.08,952.088,-23.424
-10.492,958.432,-31.964
-9.272,958.188,-42.7
-17.324,969.412,-59.78
-23.912,974.536,-44.164
-8.296,979.416,-34.648
-9.76,982.344,-33.428
-42.7,1002.352,-40.992
15.372,1024.8,-70.76
-61.0,1012.112,-18.788
-114.68,996.496,15.372
-132.004,940.376,41.724
-64.172,910.12,12.688
11.712,852.048,-13.664
110.532,794.464,-31.964
430.416,735.172,-80.52
862.052,711.748,-162.504
774.212,680.272,-37.82
626.348,529.48,99.552
749.324,331.596,218.38
1276.12,276.696,102.724
1239.032,273.768,81.252
1013.82,252.052,222.528
1052.128,247.66,222.04
1100.44,258.64,140.544
1258.308,274.012,-10.98
1143.384,262.056,-14.396
971.852,194.712,76.616
901.092,145.668,124.928
833.26,110.288,140.3
724.192,110.776,105.896
651.48,108.336,105.408
622.2,72.224,98.088
681.98,47.336,32.696
609.268,47.824,-53.924
568.52,76.128,-55.388
550.464,83.936,0.732
567.056,61.976,-27.572
593.896,16.592,-45.628
669.292,-48.312,-67.1
731.024,-93.94,-80.032
689.544,-112.24,-61.244
686.128,-125.66,-21.228
753.96,-177.632,-10.248
894.504,-250.832,-47.336
943.06,-318.42,-103.212
955.26,-368.44,-72.956
970.388,-406.992,-46.36
1014.796,-468.48,-51.484
1143.628,-524.844,-40.26
1311.988,-552.66,-105.164
1339.56,-616.832,-136.884
1325.652,-635.864,-108.824
1257.332,-656.116,-51.484
1341.512,-683.2,-42.944
1554.524,-665.388,-92.232
1682.136,-630.984,-186.904
1798.28,-595.36,-208.62
1872.456,-544.364,-179.584
1889.048,-538.264,-187.636
1783.152,-593.652,-133.468
1714.1,-614.636,-74.908
1647.488,-592.432,-83.448
1549.156,-576.084,-42.456
1454.728,-570.228,-21.96
1342.488,-570.716,12.688
1229.028,-543.632,27.328
1171.444,-520.208,36.356
1159.976,-486.048,30.012
1115.324,-439.2,43.676
1056.764,-421.144,88.572
1025.288,-403.82,98.088
1001.864,-375.76,92.964
944.524,-346.968,113.216
863.516,-317.2,113.216
767.624,-308.904,133.712
669.048,-261.08,123.708
587.796,-207.156,88.328
551.928,-156.404,72.468
463.356,-99.308,77.104
479.216,-60.024,67.344
468.236,-13.664,26.108
482.144,35.136,13.42
491.904,52.216,18.3
536.312,53.192,30.5
589.26,42.944,38.308
673.196,33.672,47.092
794.22,67.832,10.736
864.492,95.16,14.884
884.744,104.676,25.376
1002.596,98.332,10.98
1032.364,88.816,12.2
1066.524,107.116,-4.392
1088.24,143.716,-21.716
1085.556,163.968,-18.788
1072.868,165.92,-23.424
1076.772,169.092,-19.032
1152.656,165.188,-19.52
1197.064,181.048,-16.592
1077.748,191.052,-3.172
906.216,217.16,19.276
865.468,312.808,18.544
937.692,401.868,-54.168
1092.632,480.68,-164.456
1043.588,479.46,-133.712
959.164,505.324,-115.9
797.148,554.612,-98.332
659.044,621.468,-88.328
720.288,697.596,-112.972
692.472,721.752,-79.788
591.944,691.252,14.152
483.364,678.32,84.424
413.58,755.668,42.944
408.456,873.52,-76.372
311.588,900.604,-41.968
283.772,878.156,-0.488
256.688,869.128,-2.928
188.124,941.108,-50.996
57.584,1002.596,-84.668
-59.048,1036.268,-74.42
49.288,1049.688,-52.948
86.62,1004.304,-28.06
87.352,990.64,-32.452
71.248,973.804,-15.372
150.792,988.444,-63.44
90.036,983.564,3.904
72.224,984.296,30.5
86.376,980.148,10.736
45.14,977.22,23.912
17.568,976.0,16.104
37.088,970.144,21.716
54.168,981.368,10.248
69.052,980.392,-8.54
55.632,988.932,10.248
45.14,999.18,8.54
89.304,1017.968,-12.444
87.84,1025.776,0.0
74.176,1029.68,9.76
47.824,1020.408,4.88
42.944,1004.304,12.2
47.336,983.808,18.056
53.68,977.708,30.012
58.316,975.268,30.5
61.244,994.056,19.276
53.924,999.912,17.324
69.54,1004.792,6.832
51.728,997.228,18.3
42.944,989.664,14.884
54.412,988.932,20.252
53.192,992.592,21.228
56.608,993.812,33.428
62.952,987.712,37.576
76.86,987.468,26.596
72.712,998.936,23.912
74.42,998.204,36.356
61.0,985.028,55.388
44.408,972.584,65.148
31.476,960.384,76.616
42.944,965.996,71.248
62.952,991.86,53.68
80.52,1000.4,32.94
85.4,999.18,41.236
46.848,984.784,53.192
47.58,984.54,57.828
38.796,991.128,54.656
34.648,999.424,50.264
51.728,1011.38,43.676
73.2,1017.724,27.816
104.188,1015.04,2.44
98.576,1004.792,10.248
71.004,999.668,-1.22
39.772,1008.696,-36.844
25.132,1009.916,-52.216
31.964,1011.624,-70.272
29.524,1004.792,-72.712
37.576,993.812,-68.32
44.652,980.148,-67.588
43.92,986.98,-91.988
8.052,985.516,-77.348
-9.272,978.196,-76.128
-1.952,972.828,-93.696
24.644,972.584,-110.776
74.908,975.512,-130.052
26.352,967.46,-100.04
1.708,964.532,-99.308
-12.2,970.144,-99.064
-4.88,991.372,-125.172
-3.416,1004.304,-130.54
10.004,1005.28,-147.132
7.564,999.912,-140.056
18.788,986.98,-129.32
13.908,973.316,-130.052
-21.96,959.896,-115.168
-31.72,944.28,-115.656
-29.036,950.624,-126.392
-39.284,969.9,-131.272
-41.724,985.76,-129.564
-37.82,989.664,-114.436
-14.884,985.516,-121.756
-15.128,982.588,-117.12
-4.392,998.692,-130.54
-20.74,1010.16,-105.896
-2.196,1016.504,-94.672
-4.148,1013.088,-107.848
2.44,1007.72,-101.748
5.856,1006.5,-82.716
1.22,1013.82,-67.588
-1.22,1006.012,-56.364
7.564,995.764,-65.88
11.224,992.836,-73.2
-2.684,1007.476,-68.808
5.612,1013.088,-67.1
2.196,1002.108,-55.876
-2.684,992.836,-52.46
1.708,993.324,-56.852
1.708,993.08,-42.456
-0.732,998.204,-55.632
10.492,993.324,-58.072
-0.976,980.148,-47.092
-4.88,969.412,-39.528
8.54,962.336,-42.456
-17.568,966.972,-29.28
-19.032,981.612,-35.136
-17.812,992.348,-38.064
-9.028,990.64,-41.968
3.904,983.808,-47.58
2.684,988.2,-34.648
6.1,996.984,-41.236
1.952,1005.524,-52.216
-5.612,1000.4,-44.164
-18.544,994.788,-32.94
-3.416,994.544,-47.336
8.296,990.152,-44.896
1.952,985.028,-28.792
14.884,987.468,-29.28
10.492,993.812,-36.356
7.32,996.252,-47.092
20.252,998.448,-63.44
-5.856,994.788,-47.336
-0.488,993.324,-52.704
4.392,993.324,-61.976
-4.148,988.2,-47.824
1.464,991.372,-59.78
-15.372,994.788,-62.952
-10.736,989.176,-44.164
-9.028,988.444,-45.628
-6.344,994.544,-54.9
10.248,1002.108,-57.096
2.684,1004.06,-43.432
3.66,993.812,-36.6
-11.712,978.928,-34.892
-10.248,972.34,-39.284
-28.548,979.416,-35.136
-21.96,996.984,-39.284
-7.076,1004.548,-48.312
0.0,1002.352,-43.676
3.416,992.592,-50.02
-10.004,974.536,-46.604
-57.34,978.44,-55.632
-151.524,1006.012,-79.3
-109.068,982.344,-33.672
-175.924,930.372,48.8
-176.412,891.576,66.612
-0.976,842.288,6.588
400.648,839.116,-127.856
726.876,907.924,-260.348
531.92,926.224,-149.572
524.112,827.892,105.408
847.412,627.568,136.64
987.712,514.84,106.872
788.364,377.956,307.684
707.112,245.464,431.148
1040.416,160.796,235.46
1231.468,251.32,28.548
1093.12,292.312,80.032
929.884,283.284,197.152
979.66,236.192,145.18
949.404,202.276,112.484
955.748,189.344,30.012
864.492,191.54,44.896
799.1,166.164,91.012
694.424,142.496,59.292
597.312,114.192,45.628
589.016,89.792,-2.684
596.336,82.96,-40.016
435.052,75.64,-24.4
402.112,88.572,-20.252
447.496,66.856,-0.488
584.868,38.796,-41.724
645.136,1.952,-95.648
616.588,-76.372,-32.696
652.944,-129.32,-30.012
696.132,-180.56,-53.436
712.48,-256.444,-11.468
877.668,-309.88,-15.86
1092.388,-387.96,-32.208
1141.676,-443.104,-68.808
1138.016,-538.508,-30.744
1066.28,-629.032,34.16
1120.936,-651.236,36.112
1227.808,-633.18,-31.232
1485.228,-602.68,-124.684
1682.624,-626.104,-129.32
1797.548,-673.44,-95.648
1908.08,-646.356,-157.38
1828.536,-629.276,-124.928
1891.0,-628.056,-98.088
1956.392,-606.828,-142.252
1878.556,-569.984,-154.208
1769.0,-568.764,-130.54
1666.276,-564.616,-91.988
1587.464,-537.288,-66.612
1508.164,-534.604,-52.46
1458.876,-550.22,-14.152
1378.844,-540.948,7.076
1235.616,-510.448,20.984
1151.436,-463.112,28.792
1088.728,-403.332,31.964
1037.0,-355.02,40.748
989.42,-323.3,47.824
882.548,-312.564,87.84
767.38,-311.588,115.412
752.496,-303.78,144.448
716.384,-271.816,129.076
623.908,-223.26,130.784
557.296,-143.472,104.676
502.152,-85.644,96.136
454.328,-56.608,96.624
507.52,-16.836,87.108
507.032,23.424,77.836
551.196,53.192,61.488
626.836,58.316,50.996
646.112,92.476,6.832
756.4,136.64,-13.908
762.012,138.836,-13.42
813.984,148.352,1.708
874.74,173.972,-21.472
876.692,203.74,-26.84
948.428,239.12,-62.708
947.94,230.824,-33.916
1029.924,233.02,-42.456
1081.164,238.632,-38.064
1092.876,236.436,-2.684
1070.672,253.516,-6.832
890.6,294.02,-34.404
913.536,348.432,-47.58
1026.02,406.504,-68.808
1014.796,433.1,-65.88
1039.684,423.096,-58.56
973.072,448.716,-27.572
827.648,493.612,-12.444
829.356,579.988,-40.016
778.604,635.132,-17.08
773.48,705.16,-41.48
684.908,734.928,-22.936
532.652,738.344,26.84
505.324,761.28,68.076
441.152,749.568,94.184
366.0,749.812,91.744
371.612,818.376,51.24
354.044,864.492,-24.644
164.944,913.292,-28.304
48.556,989.664,-32.696
43.676,1050.176,-50.02
59.048,1068.72,-19.032
30.256,1062.62,-59.048
69.54,1024.556,-41.968
164.456,993.568,1.952
93.452,977.952,22.936
-49.288,946.964,77.592
7.564,942.816,68.32
50.02,955.26,53.436
37.576,974.536,47.58
30.5,984.784,32.208
46.604,989.908,-14.152
1.22,989.176,-2.196
-28.792,990.884,15.616
-30.744,1008.696,-5.124
-33.916,1010.404,-25.62
-34.892,1024.068,-35.38
-56.608,1027.484,-13.664
-36.356,1028.46,-20.74
-29.768,1016.26,-2.684
-36.112,1006.988,-14.884
-45.872,993.568,-13.908
-32.696,999.668,-26.596
-39.528,993.568,5.124
-33.428,989.42,-3.66
-44.652,977.22,8.54
-30.744,972.584,1.22
-42.456,971.852,19.276
-29.524,987.712,14.884
-49.044,995.764,24.4
-22.448,1001.62,3.904
-31.72,1005.768,23.18
-18.056,1018.7,15.616
4.88,1029.924,11.956
-1.22,1036.512,28.548
-14.152,1025.776,59.78
-17.568,1006.744,71.736
-41.236,984.54,78.812
-43.676,968.192,85.888
-15.372,976.488,81.984
-19.032,988.2,90.768
1.22,985.272,91.256
10.248,983.564,89.548
4.148,989.664,76.128
-27.816,997.228,83.204
-22.692,1002.596,91.256
-7.076,990.64,111.02
23.912,982.1,101.748
18.544,976.976,89.792
-17.324,973.316,88.084
-33.672,980.88,82.716
-34.404,992.592,76.616
-22.448,1009.916,44.164
-26.108,1014.796,45.14
-20.74,1014.552,45.14
-25.132,1010.16,28.792
-38.552,985.76,25.376
-38.308,968.436,15.616
-36.6,957.944,14.396
-32.208,964.776,-4.88
-54.656,959.652,-3.172
-49.288,955.504,-11.956
-43.432,963.068,-29.28
-38.552,970.632,-40.016
-38.308,969.656,-30.256
-37.088,964.044,-25.864
-63.684,970.632,-41.968
-68.32,987.224,-60.268
-34.16,1003.572,-58.804
-12.932,1016.26,-57.34
-34.648,1022.116,-49.532
-38.064,1031.144,-66.612
-42.456,1040.66,-72.712
-25.132,1034.56,-78.812
-43.188,1013.332,-60.268
-56.608,996.252,-46.36
-30.256,987.224,-69.54
-28.548,980.636,-83.448
-37.088,973.804,-85.644
-34.892,972.096,-99.308
-70.028,967.704,-104.432
-70.028,968.192,-112.484
-64.172,979.66,-135.176
-73.444,980.636,-124.44
-94.428,989.664,-122.976
-97.356,985.028,-119.804
-99.552,980.88,-108.336
-76.616,985.272,-99.552
-71.004,991.128,-81.008
-63.196,997.228,-82.716
-57.34,1004.792,-90.036
-73.688,1007.964,-71.004
-67.588,1009.672,-75.396
-89.06,1001.132,-56.364
-74.908,987.712,-50.752
-72.712,973.072,-48.068
-73.932,963.8,-37.82
-45.872,969.412,-37.332
-45.14,973.316,-11.468
-43.432,983.32,-4.88
-23.912,1001.376,-42.944
-43.92,1008.452,-35.136
-42.212,1013.576,-27.572
-51.484,1010.648,-28.548
-40.504,1000.156,-39.772
-55.388,990.152,-40.504
-54.9,992.348,-39.528
-56.608,983.564,-22.448
-63.684,978.44,-26.596
-42.212,974.292,-44.408
-56.364,969.656,-25.62
-56.364,967.704,-19.276
-65.88,973.804,-31.476
-74.908,978.44,-33.916
-70.028,981.124,-31.964
-75.884,979.66,-19.276
-61.488,974.048,-12.932
-46.604,970.632,-14.396
-64.416,965.996,-6.588
-56.852,967.46,-18.056
-89.548,968.436,-20.008
-121.512,1002.352,-46.604
-167.14,1017.968,-45.384
-212.524,1025.532,-16.592
-157.868,1053.348,-36.844
15.86,1043.588,-58.56
228.384,1009.672,-101.748
304.024,978.196,-110.776
497.272,927.688,-96.136
632.936,843.508,-52.216
575.352,737.368,82.716
623.42,618.052,84.424
790.804,548.512,-4.636
853.268,493.124,33.184
983.32,472.14,7.32
935.496,430.904,89.548
840.824,323.544,142.008
1003.572,225.944,197.152
1140.212,171.288,93.208
1095.316,139.568,83.936
965.264,125.172,157.624
946.476,149.572,75.152
894.992,186.904,37.82
729.316,183.244,80.764
597.8,161.772,44.896
407.236,98.088,103.212
478.972,83.936,9.028
488.732,98.576,-59.048
357.704,91.988,-30.012
271.084,74.42,-28.548
387.228,3.904,77.104
638.792,-15.616,-34.404
768.112,-19.764,-101.992
692.716,-60.512,-92.476
710.772,-100.284,-54.9
758.108,-134.2,-68.076
880.108,-122.0,-108.58
926.224,-151.036,-133.956
1010.648,-260.104,-102.48
1075.308,-403.088,-46.36
1110.688,-443.836,-82.228
1144.116,-439.2,-91.256
1294.176,-469.7,-47.092
1456.192,-526.308,-63.928
1625.04,-552.416,-154.696
1576.484,-516.304,-167.384
1476.688,-521.184,-89.548
1502.064,-573.4,-33.916
1674.816,-611.22,-67.588
1871.968,-581.452,-187.148
1897.344,-525.576,-227.652
1885.876,-526.796,-170.556
1841.712,-505.08,-165.188
1725.568,-478.728,-179.096
1619.916,-481.412,-138.836
1555.5,-492.88,-79.056
1474.492,-512.644,-30.256
1382.748,-542.656,0.732
1311.256,-557.296,59.048
1243.18,-537.044,67.832
1221.22,-509.472,66.856
1156.316,-476.776,67.1
1135.088,-413.336,63.44
1073.6,-378.2,82.716
1021.872,-352.824,59.536
971.852,-336.476,56.852
833.26,-286.944,62.708
711.016,-218.38,43.676
614.392,-175.192,47.824
517.768,-162.016,61.488
396.012,-122.0,58.072
315.736,-85.888,85.4
329.156,-60.268,113.216
405.772,-6.344,94.428
461.648,72.956,44.164
523.624,132.248,33.428
657.092,168.848,37.088
740.052,179.584,17.08
920.124,198.86,-14.396
989.664,208.376,-9.76
916.464,217.648,-25.376
932.324,249.612,-36.112
1041.636,265.716,-35.868
1037.0,243.024,-0.244
993.08,233.996,47.092
963.312,246.196,4.636
936.228,319.152,-67.588
798.124,432.612,-143.716
850.34,523.624,-145.912
824.72,572.912,-32.452
712.236,595.36,10.004
702.72,628.788,-66.612
776.408,694.912,-100.04
677.1,760.06,-72.224
425.292,790.56,22.204
359.412,836.188,-18.544
420.412,870.104,-51.972
375.272,874.252,-10.248
153.72,902.312,-1.952
20.008,951.356,-58.56
111.996,1033.584,-128.832
133.956,1049.932,-113.948
72.224,1069.208,-53.192
51.24,1116.788,-117.852
-111.996,1122.156,-156.16
14.152,1115.324,-186.66
49.776,1059.204,-43.432
-27.816,1006.988,31.72
-30.988,974.292,34.648
-15.128,910.608,54.9
-12.444,906.46,74.664
-21.716,923.784,65.148
-53.924,956.968,11.956
-94.184,990.396,-19.032
-127.612,1015.04,-7.076
-133.712,1014.064,7.076
-111.508,987.956,-23.912
-73.2,978.684,-71.248
-71.004,987.468,-43.676
-21.228,1003.084,-25.376
-46.604,1002.596,-1.952
-24.156,986.248,1.952
-32.452,985.76,8.54
-38.308,989.176,-16.592
-24.888,996.74,-13.664
-34.16,992.836,18.544
-60.512,1005.768,2.928
-48.312,1013.088,-23.668
-53.192,1002.108,-40.748
-54.9,988.688,-39.528
-34.892,968.68,22.692
-39.528,978.928,9.76
-40.992,985.028,-11.956
-43.676,982.1,-1.952
-41.724,975.512,29.524
-60.756,979.172,12.2
-46.848,986.004,3.904
-51.484,973.072,29.28
-26.84,982.588,17.08
-20.74,994.056,1.464
-35.136,992.104,9.272
-71.004,983.32,32.94
-59.536,976.488,39.528
-40.26,988.688,2.684
-35.38,1002.84,-11.712
-28.548,1005.524,6.588
-40.504,1001.376,15.86
-41.236,1004.06,-12.932
-47.58,990.884,-28.548
-30.012,986.492,-25.376
-39.772,993.568,1.708
-52.46,996.984,-1.952
-54.656,993.568,-12.932
-62.464,982.832,-2.928
-67.344,984.784,-2.928
-36.844,993.812,-20.496
-36.844,995.276,-3.66
-35.136,991.372,7.564
-47.824,987.468,0.0
-47.336,988.932,-15.86
-41.968,984.784,-11.712
-61.976,988.688,-11.468
-57.34,991.372,-6.588
-47.824,998.448,-23.424
-59.048,1004.548,-32.696
-54.656,1002.352,-28.06
