# PAMAP2 dataset (wrist-mounted sensor)

acc_x[mg],acc_y[mg],acc_z[mg]
138.21095,975.4793,375.672
483.79727,559.5535,366.25876
386.3581,850.36743,392.6357
434.13095,705.37604,244.71863
314.6002,989.70197,360.77017
421.28333,908.5018,272.2586
362.61472,862.4499,334.60046
411.75232,866.5012,283.29358
384.01498,1064.8582,355.85406
369.552,975.3281,314.35953
355.12143,951.3097,369.44293
311.81277,950.0517,271.28952
255.39249,889.3179,299.63773
148.53928,743.82367,261.54544
92.41126,974.0273,284.93277
-12.287778,586.2449,307.61295
-56.270363,1002.8793,560.03235
-114.83806,2155.0684,693.678
164.10478,892.4572,443.26157
118.58023,675.3168,478.27682
78.68052,1356.3197,658.05475
151.46077,1032.0519,561.1237
155.85,933.85675,599.9176
302.6635,560.6928,272.762
289.8981,545.2943,474.73782
347.69324,240.0485,207.16162
326.16943,687.7327,286.12585
323.33798,-99.20718,59.566456
93.27695,656.2189,324.69083
-137.16266,203.7305,145.5787
-8.076023,1367.8396,387.66397
102.14682,3166.9358,914.0489
20.444113,351.2599,-52.41638
222.37183,785.5088,478.5134
58.360558,1184.4058,571.77856
-215.57419,662.6166,402.43942
-639.38965,1367.6962,494.07382
-426.22064,225.12807,103.78577
-545.3555,-290.923,151.43315
-705.20465,-56.80651,-112.76141
-970.0527,691.55115,147.83229
-846.91534,1302.5435,165.64932
-1273.116,1065.3536,267.77682
-1246.3132,1607.4114,-40.679737
-811.0033,1127.6997,627.25037
-1278.3942,1515.105,658.0765
-1061.5297,1199.9402,687.51184
-1039.6099,1099.1036,705.5222
-935.55194,1674.0293,962.81134
-672.5202,1339.5698,646.0518
-352.0499,988.00525,672.45874
-421.68076,670.36426,383.61026
-455.08185,848.20856,294.7626
-401.20944,432.86157,96.0805
-318.6009,498.80676,231.33023
-247.07097,226.7221,119.312065
-54.382248,320.21167,191.6291
-32.909245,83.56735,77.05385
101.33063,346.08478,317.63953
77.45238,46.571922,-16.063473
52.573498,388.31564,436.1623
-211.28925,-452.20557,-206.74655
-182.31813,1520.5315,955.44867
-503.6931,3880.5698,1059.596
-271.99887,-544.906,90.00272
-796.6044,1553.7057,1014.0468
-917.0485,1045.0043,528.378
-745.0051,642.8993,581.6863
-617.6093,835.3375,449.53183
-541.81415,983.3421,234.90538
-393.46228,1607.8358,264.01605
-136.03769,226.05287,86.661194
-150.75233,423.71347,71.90233
-78.62904,248.44116,-144.62209
-267.67337,393.89557,-260.06073
-692.6793,292.72534,227.10619
-1480.7338,681.6979,316.34036
-1738.5863,539.5993,-24.60769
-1670.8707,871.24506,581.7548
-1690.7654,1483.9923,686.432
-1801.2401,1121.0392,546.32404
-1365.8588,1424.3885,582.42377
-1214.4363,1274.2701,327.5045
-1034.4672,765.5368,-27.214304
-939.98987,837.25824,-1.582964
-740.7729,514.58185,-93.28912
-535.6622,507.4691,-14.095858
-388.9636,310.5604,-82.81672
-145.37341,221.9271,110.06847
-54.038097,7.448769,-145.87277
-95.59422,133.34135,222.5054
-108.26737,-92.97337,-91.257256
-209.59901,388.4327,425.2944
-193.62659,-15.198583,-166.77907
-313.3624,1563.758,1218.405
-447.89307,3795.504,1195.0063
-356.46582,-131.29504,41.288105
-719.0049,1553.3212,733.03485
-575.80756,169.89917,365.19873
-635.43,533.7852,567.7528
-698.7931,1392.984,437.2521
-428.633,480.53342,281.8063
-632.51483,-119.19003,111.68035
-490.1038,425.732,315.7735
-294.96622,-260.78827,-99.709915
-505.7904,526.45856,36.45453
-897.63727,543.4724,462.622
-1649.8794,813.09906,112.50288
-2018.6282,682.7059,66.800575
-1676.9459,778.4257,419.96085
-1915.0146,1484.9238,756.07996
-1441.758,992.7852,501.29166
-1235.7279,1243.4646,634.6877
-1094.923,909.9642,194.46034
-940.67584,724.8844,-182.76898
-784.40515,599.0734,-66.3316
-747.1216,841.7789,-137.25826
-536.4243,525.40735,-11.822967
-370.5393,529.95514,-30.569527
-181.00644,349.3574,73.942795
-97.40699,444.65405,79.69948
43.238625,-40.673103,109.29195
48.252373,445.46024,377.72662
136.09753,130.71126,341.47546
29.78315,766.1906,483.70892
48.474495,-496.51752,136.67839
-111.64662,2975.3167,1018.2679
-322.49573,2692.427,678.0863
-51.00995,-722.59924,129.30287
-487.65964,1733.2117,503.6273
-339.45703,358.36044,279.41025
-499.73163,937.00836,387.18835
-159.87558,477.61362,346.40457
-264.21408,839.73334,269.36362
-343.2234,352.66385,389.35498
-433.55307,765.5609,520.91034
-374.03384,309.29846,355.34598
-496.41803,699.3394,468.04105
-454.9829,498.2595,398.62277
-662.3073,991.79865,539.27704
-810.39325,641.1948,337.10587
-1480.6317,1428.8601,108.846466
-1778.8088,1745.3483,432.67847
-1023.0738,1660.4187,352.96994
-693.79224,1379.7938,435.74377
-544.7466,750.49927,179.40427
-494.25464,506.54645,128.02284
-469.3107,106.439705,49.14557
-612.0656,450.6358,74.407524
-581.958,442.4026,-13.899188
-447.34055,446.13705,72.34765
-287.26144,299.6302,32.36804
-103.65778,44.672085,249.05515
-267.38315,680.62067,369.02664
-841.73706,1997.3756,627.3135
-526.3115,1949.7059,636.6546
-351.02118,2230.2947,849.39355
-225.13083,1505.457,653.66895
-149.8591,1101.8628,706.78845
-42.686935,625.3291,249.89131
55.38941,750.73083,275.31335
210.17473,277.21802,-121.06298
171.9038,217.27722,98.58445
245.48198,65.21717,-41.830307
194.47942,715.10266,233.10646
329.31726,94.043365,3.6069481
212.8578,520.8724,385.98083
307.26782,-64.7353,-146.02744
94.45549,795.4567,551.6765
325.92722,-460.28708,-373.9922
-287.25775,2458.0857,1607.6844
-315.7873,3651.066,1335.926
775.1513,-1477.4935,45.771416
67.9006,2084.4607,1246.6191
-33.309517,-60.768127,437.8424
-1687.7598,1652.2904,498.73346
-1195.2936,372.1118,-160.29482
-449.1443,74.352875,341.3921
-407.05243,-729.46173,-8.834551
-747.461,497.2719,258.02588
-1006.3163,637.37256,186.85776
-1070.4242,1718.91,382.2247
-682.0689,385.0787,-47.963356
-1440.2439,1310.604,394.94565
-1088.7969,1116.371,312.0932
-1232.9867,1466.4713,774.1088
-1309.5514,1383.1805,691.1405
-1496.4044,1527.0945,1000.62805
-1202.2292,1412.1664,853.2108
-815.9349,998.7095,737.33466
-715.2046,825.97034,672.4212
-916.5793,908.63055,276.99106
-567.0618,859.7279,230.2706
-559.4407,668.55396,174.48105
-469.3521,763.8733,105.736595
-303.6225,522.4111,92.03727
-21.841644,276.12817,163.11797
-103.76766,342.66647,76.501076
-29.271442,201.88297,130.90518
-63.84364,476.67505,33.77104
-100.63208,45.26163,356.9816
-189.91446,294.4598,-115.04653
43.0762,28.69474,547.87836
-237.60448,4199.09,2148.236
-302.79437,-641.2931,28.914007
-659.60925,1510.8827,1207.3148
-811.1267,883.38116,284.1502
-810.2455,958.5015,957.2129
-174.04395,626.33203,348.37265
6.9164543,-56.039253,317.75256
-14.838178,52.450047,-74.91347
-335.42276,-185.17781,-196.60518
-727.1883,370.16995,-178.56674
-1098.5679,815.485,292.32236
-1084.4976,742.17316,145.17905
-1773.7927,620.67694,258.00925
-1815.925,962.9819,395.55383
-1428.6213,720.7714,664.8076
-1434.6759,1307.5286,830.1176
-1390.1962,759.21375,707.04425
-1558.955,1165.4761,764.5794
-1418.375,803.10925,557.7627
-1356.9604,1147.9911,503.00592
-1284.1122,721.89417,275.7992
-1027.576,616.6576,421.97427
-666.6578,310.4409,182.4807
-496.94894,515.63324,147.59724
-434.32272,174.47766,102.70576
-231.65938,374.6148,110.07127
-32.992725,7.291897,-29.786196
1.568447,185.60242,100.79166
-4.937557,-105.375824,-44.583206
-1.6090572,706.3163,66.45467
61.49725,-341.06647,-235.3608
-206.53795,1436.2284,1503.954
-199.42085,3323.8572,1323.6423
-514.185,-245.35963,391.0755
-1022.4391,1188.1577,1008.33325
-725.54156,511.55392,448.0828
-631.70306,569.47174,686.0682
-226.14816,460.14758,567.6769
-233.79027,1229.3667,686.41187
-269.31903,282.43796,129.99466
-418.1137,908.9414,321.6078
-38.268883,648.87427,-35.507717
51.401787,544.8463,349.7091
-178.66841,922.5568,509.022
-372.51434,1320.7512,788.7283
-19.607334,-327.79617,-203.44243
-397.9741,-110.32417,400.70236
-548.89276,150.72185,459.45605
-4012.8054,1376.5728,1058.7836
-2873.1099,450.1219,-231.91003
-1140.8448,1171.7491,918.1861
-1513.6061,1184.9307,668.1729
-993.5134,313.7224,-43.102882
-1070.2245,738.94727,30.472002
-611.73535,806.69696,215.30339
-712.16223,532.8636,18.646711
-301.25955,130.94518,11.297849
-317.48566,266.78708,-60.666073
-159.65796,115.832565,60.23544
-153.91096,268.76654,-53.479446
173.93137,255.96243,151.58531
9.862547,304.41104,-4.687712
204.3665,525.77893,367.7954
-569.3341,1396.7941,1014.74646
-492.2245,2111.6494,822.9342
-1141.1697,-63.896133,165.10936
-1669.4749,731.93097,903.25
-717.9613,890.6889,314.74698
-334.88968,1040.6641,436.06702
-416.32465,287.74155,358.77765
-434.28165,361.04367,138.48395
-389.34985,740.1502,351.62076
-659.5303,647.15643,312.8422
-553.7761,447.61996,190.91959
-594.3841,606.82556,243.62541
-532.54974,865.9791,453.65176
-345.60428,608.91956,370.32498
-441.0919,249.82854,488.50784
-1663.7891,837.3873,882.10876
-3207.1084,1562.2389,569.6584
-1805.8887,899.04816,460.34033
-1581.262,1128.6956,1051.068
-1329.3538,605.2367,233.9854
-1051.0868,620.32983,164.06584
-818.47894,598.261,7.3085604
-691.33575,671.9974,137.71513
-593.0521,364.0528,-63.527603
-441.39786,301.30515,-16.69305
-166.18288,206.10692,-177.66629
-143.61652,179.49965,93.72534
103.06353,-57.86746,-225.74507
60.61957,314.747,317.2299
205.82568,-310.4405,-352.47015
-93.75845,1594.6721,1372.4692
-221.48999,3940.1445,1767.2949
-59.899364,-352.47736,-72.4404
-719.422,1300.3221,943.6661
-407.29446,111.375046,377.8365
-407.86234,721.6991,718.97797
-157.48297,906.79266,282.7185
-322.49426,565.76385,705.2579
-401.94492,306.78348,204.78983
-383.0168,1099.2993,622.04895
-289.7576,233.65164,243.93143
-230.2431,1362.5675,1001.8981
-17.685284,488.7224,242.62645
-23.053036,839.004,580.0193
283.62418,672.99725,373.53662
575.2451,610.0713,479.3454
64.18302,829.65204,462.42175
-611.66077,1489.8956,768.11786
-595.1356,210.48375,-168.49185
-2481.5718,2637.846,568.5068
-1978.0021,1446.4277,532.1642
-853.77246,1590.2786,696.83136
-786.16156,1004.2637,507.70685
-734.54456,702.3139,421.08133
-585.0438,165.19312,131.06001
-408.76068,450.71045,209.13074
-117.39508,-199.54794,-301.19193
-124.53639,529.3974,12.253228
-29.012617,-506.48206,-335.7616
-62.59569,846.40546,224.113
88.63026,-1070.678,-430.4471
-145.7976,2373.9995,1576.1039
-451.66284,2966.1782,1224.2106
-870.9261,-199.94264,58.537205
-1113.9192,1164.0078,301.99548
-1168.3859,-878.3803,22.970957
-984.59155,606.1298,325.25995
-557.25793,-538.5863,-33.7106
-909.24646,468.59857,110.24165
-1194.6587,153.63322,136.39767
-1674.4293,1102.96,521.1059
-1385.5375,975.38934,239.79727
-1521.1204,321.50983,138.38193
-1683.635,643.8873,411.89603
-1371.321,1151.5522,571.927
-1471.3751,559.6813,950.2334
-1368.2253,1163.5173,721.28015
-1715.7336,661.2238,873.35205
-1684.816,1178.0808,762.54877
-1690.803,536.8449,336.2844
-1340.46,687.9105,247.10863
-1137.4718,738.00195,393.31525
-813.1685,616.40216,16.088827
-539.92804,370.0148,132.35387
-257.24753,191.6167,-115.20301
-190.72446,157.70201,124.69388
-108.43867,175.66983,-157.7743
-140.216,384.5888,266.85358
166.37743,69.50748,-88.72717
60.777935,96.584175,309.9489
417.9046,-471.47705,-491.66968
-530.5129,1057.6165,1252.7477
-986.8893,4700.469,2476.8298
-111.4621,-1142.269,-16.872316
-1252.3638,1744.4973,1014.426
-333.7625,265.40378,486.45038
-288.234,1233.0922,1043.1365
29.93331,431.93552,393.0468
160.04857,681.683,642.2418
391.42377,-7.65639,182.6765
34.463543,73.55113,-3.1754866
-20.529444,-286.2105,-220.88037
-460.5549,188.95673,-26.677328
-701.59326,158.12451,-7.241238
-1218.1436,1036.1877,181.6269
-1569.3726,1703.3221,484.99573
-2524.0767,1482.8967,827.70123
-1830.9346,1533.3845,644.90106
-1433.5184,1708.6923,1186.2759
-1437.3081,997.59705,592.4427
-1251.9065,839.8481,653.7203
-1171.8125,826.0839,487.98502
-1079.9956,677.70685,231.16771
-726.17175,491.88623,218.89748
-603.02386,590.68524,87.87192
-495.60666,402.74744,123.22341
-202.94133,278.90988,95.503456
-252.44154,506.8646,53.263092
-114.890976,113.445175,123.54217
0.48080528,499.47443,157.78986
159.4855,-6.634775,56.0307
158.43951,447.2826,146.79672
284.45932,-795.674,-214.41663
-33.657234,3234.1191,2162.9712
334.2229,1396.9656,1064.7465
-255.2593,124.56044,609.7598
-1137.0693,1350.7339,542.63086
-957.3611,8.086431,355.0938
-720.8507,1373.289,769.06464
-224.70682,203.0298,376.43143
-584.52936,1182.4183,591.2069
-234.44931,-146.51006,-8.42143
-50.453533,-86.71213,31.517004
-349.2477,-467.4587,-296.93433
-773.9135,297.66315,-55.654606
-892.28217,168.68422,-26.514658
-2084.9016,961.1593,713.59454
-2935.8604,1144.6902,441.31888
-1757.7747,292.67435,-197.31035
-1699.8948,1499.8705,866.98065
-1359.0703,1044.4753,974.7956
-1363.8807,247.02896,486.6495
-1360.2501,647.97534,609.9566
-1411.7769,389.1599,418.93448
-1453.6914,1050.1238,212.46072
-1368.7301,275.85513,-21.462595
-1013.2379,773.2867,160.90001
-724.59125,285.468,-29.846464
-473.46753,345.87402,56.438435
-186.76643,19.992346,-32.5618
4.2771583,303.96167,102.5498
120.24666,-186.32716,39.019123
80.543755,486.10406,223.51904
39.121235,8.978532,-8.554904
166.38037,1373.8398,956.8247
-55.786213,1520.0131,1104.7666
393.36926,508.15378,534.73535
-541.8729,837.2355,961.1405
-1039.754,650.3237,582.9686
-1739.4778,509.43893,409.02737
-1402.435,669.60516,58.615067
-479.5775,-310.28738,-125.575745
-433.31332,264.71378,20.78361
-725.426,346.19675,300.2043
-523.9077,585.12134,333.47693
-627.9895,-11.564838,190.92842
-1351.7748,812.09546,463.69888
-2052.275,808.15906,671.3772
-1999.5627,737.0041,377.99887
-1435.3916,368.31198,359.19934
-1267.3918,1321.7664,820.5845
-1339.0518,219.32408,822.6794
-1752.643,554.3552,531.98315
-1582.7175,70.64818,246.95374
-1522.1661,851.55206,604.5494
-1482.2487,333.61963,115.61276
-1275.4619,548.68445,215.14641
-937.3572,332.65762,61.966568
-764.2345,685.26483,194.98724
-534.1014,220.53426,139.2072
-361.24045,595.6723,92.90151
-128.21751,11.613036,103.36699
27.779062,406.4392,88.2888
132.47365,-354.165,-48.864296
112.80646,349.8763,31.070532
102.03421,-843.3513,-274.8397
-444.35858,2725.8606,1882.321
78.688774,2111.32,1032.1705
-9.070185,-4.4755917,572.3064
-654.938,1095.0413,739.6637
-670.1464,302.66772,643.2499
-895.9559,924.6988,489.21027
-640.7989,253.49901,511.6338
-884.66656,765.8276,241.0244
-513.2766,272.10706,351.1434
-411.72083,1140.4734,684.3619
-122.24487,562.8544,303.54935
50.78976,1060.9806,652.9758
21.83695,509.34128,239.67644
203.47226,604.15625,474.68536
-16.032194,1047.8248,616.1098
76.46339,311.85074,424.80685
-293.3806,855.3626,950.25214
-274.64795,340.58115,751.0638
-1092.8859,566.7267,722.9027
-2167.0767,2021.5237,694.5998
-2086.573,1819.3091,497.58737
-1221.7799,1139.7708,461.14066
-943.77435,908.0717,579.0122
-652.9403,729.94916,260.21005
-468.88077,647.8518,162.05093
-394.64478,295.87225,126.86788
-305.14236,219.97116,-2.2179835
-243.47061,201.20204,-9.462643
-150.67488,488.99124,-43.90269
-87.70589,438.16467,40.53639
-50.790314,575.59863,46.27822
-21.319479,205.28876,290.06836
23.674536,315.1863,56.996513
-446.3671,-244.08618,468.25787
-948.0686,3711.227,1230.9669
-736.2999,799.50385,149.68219
-1279.3274,644.068,454.3511
-692.0588,559.63544,379.9133
-350.7024,232.75148,737.3333
-275.99963,765.05927,337.41797
-382.36673,449.3647,302.43356
-499.2168,753.1806,234.9416
-584.8641,388.55664,178.21867
-673.1591,680.58325,230.6821
-691.9997,470.78903,244.35951
-715.4335,777.9687,283.85126
-705.6889,774.6147,570.08215
-965.6612,731.2978,562.2311
-1610.4955,1591.833,568.55286
-1580.1996,1825.1587,1061.9885
-1513.1147,1591.2825,763.8397
-1395.576,1553.8436,624.1806
-1116.0408,919.09717,350.26733
-780.2853,985.7084,181.0358
-642.464,436.8391,-98.638374
-480.33243,460.23425,-153.84998
-334.70346,238.95573,-146.3651
-226.00305,70.27288,-76.66319
-111.72781,-79.069885,-173.98132
-50.751503,259.73993,148.99278
21.527428,170.90398,35.97312
104.09018,467.1907,327.46442
82.37948,29.20238,-0.6521929
-25.094143,724.0217,917.3587
-567.32745,3978.479,2017.6259
65.78952,-13.884007,383.55008
-733.57166,1264.8345,767.5219
-886.1599,666.5735,274.53094
-809.5253,422.3562,603.9877
-437.1954,882.9242,565.01404
-244.88593,456.437,669.80585
-257.72412,774.40405,530.52155
-104.57352,451.9905,563.32324
-57.701756,620.2893,552.90247
-44.493702,590.4882,615.4158
-171.0205,756.55676,387.8211
-30.342201,548.73474,421.771
-193.7461,844.90027,474.31927
-360.7733,623.8027,551.9302
-454.27048,542.26373,259.8056
-1033.2402,1487.1326,364.0881
-1373.1208,2090.0654,712.3341
-1118.393,1972.1578,720.761
-1083.9154,1851.3867,644.1848
-925.68085,1164.6456,537.84326
-958.2362,1238.2141,216.56593
-711.16516,841.66565,191.59912
-543.32117,772.05286,-23.585554
-360.4029,110.80934,-8.058626
-319.19424,313.73132,-33.19225
-130.12326,-82.54014,-101.364624
-144.3659,300.3439,42.7679
155.77927,-44.621822,-3.3508835
9.857621,666.91895,268.90765
90.59379,-115.631714,264.8449
-429.45404,911.4226,387.37045
-414.66266,-1070.6407,113.3812
-1919.0217,3113.549,1182.7357
-804.25934,2498.6802,765.31
-994.2415,-795.25287,343.05524
-1743.9009,1743.4902,882.6531
-642.1548,-717.23267,721.7725
-979.7605,915.272,1066.4684
7.3640637,-458.81924,554.2768
-646.80536,251.73093,652.35986
-500.18832,114.00149,313.52512
-711.3288,341.82156,472.7344
-917.42926,678.499,408.27057
-1256.209,929.87933,687.59485
-891.4358,679.38135,206.53893
-1046.4436,1127.1304,432.4465
-1078.9763,528.5021,408.2073
-1290.6425,1132.7867,439.37106
-1451.8088,735.7247,407.68185
-1822.8116,1108.7299,482.40173
-1735.1162,658.888,104.50298
-1595.0837,826.5585,377.93558
-1025.9298,321.62704,-138.76294
-967.18286,945.75055,-29.400705
-614.99695,411.27615,-138.39693
-520.593,941.433,89.03439
-205.21936,160.54272,-71.82821
-289.96838,911.8766,175.84535
-118.25278,16.778692,16.663504
-117.213326,875.7779,239.52594
2.4902077,-40.305565,34.9952
-280.26584,1012.7958,312.67273
-139.24707,-1308.2443,-178.93372
-966.01447,3460.2996,996.03986
-255.47606,1878.8536,563.1874
-550.0894,-201.88792,430.6451
-918.2885,1547.781,305.426
-584.7369,-591.36566,251.46713
-368.29138,820.9938,370.38922
-233.72763,-497.38773,-17.107113
-688.21967,559.70984,442.51987
-768.7581,276.0302,535.82446
-1022.43555,1337.4064,448.4466
-1122.2762,996.90326,488.10492
-1103.4539,1086.9469,453.22565
-1049.5494,1031.6238,378.69925
-864.6498,923.1965,265.23355
-926.18445,1125.8148,497.4592
-980.6285,1231.0026,322.13034
-1204.3186,1095.9121,439.85928
-1384.9634,1583.4354,406.8299
-1437.4358,1257.411,190.36809
-1230.8944,1412.7827,85.841484
-735.737,587.3124,-150.962
-683.65906,955.4732,-235.35551
-452.77563,376.4006,-168.37094
-235.31688,899.77924,-22.510027
-70.52672,153.85106,114.50603
3.9374096,504.69553,95.58505
82.07754,-210.63182,85.44546
11.421728,521.17395,143.27397
96.356926,-280.6373,49.081448
-207.8155,1031.4946,303.74725
-5.066653,-640.8414,-36.124832
-1185.1445,4630.7295,1747.5243
-134.63332,1688.3696,596.9827
-124.16416,-445.2756,400.499
-568.0398,1815.2046,588.33075
-178.4953,-136.5055,599.97906
-385.5646,1489.7904,615.78064
103.42794,79.057106,224.61246
-139.81802,1120.216,426.81512
112.39496,262.37076,282.49136
11.355429,1031.7786,366.9338
76.51666,544.10645,76.52317
-83.06,1013.58514,321.7135
-114.23554,605.3079,253.08496
-281.947,787.2714,426.23196
-281.6741,556.4234,448.8061
-498.6856,932.51025,791.3219
48.341164,531.5556,690.91364
-691.7828,1208.0579,829.8484
-2374.401,2650.2952,340.84604
-1575.3583,2497.2327,380.44547
-757.19763,1249.658,315.85492
-695.8135,1492.9714,359.97122
-494.51337,330.17197,34.800163
-435.94617,914.4236,312.4032
-228.17851,-24.230047,-100.42666
-262.1775,445.75433,118.66436
-89.547386,-369.83994,-220.06879
-123.9928,409.73453,102.08362
109.17704,-512.379,-245.00778
131.25081,642.2948,318.87268
359.09073,-765.6204,-501.612
-605.2232,2539.6758,2200.9954
-245.0445,3855.926,1552.9303
-186.42378,-666.1793,119.16837
-734.7532,1777.322,757.58215
-557.7451,388.44882,299.78406
-596.7871,965.6942,613.41406
-384.4998,634.7498,227.53801
-225.47093,778.93713,481.39914
-90.144394,669.9461,329.7862
-546.67206,906.26624,301.57898
-245.73679,567.9083,229.93521
-351.88217,709.2539,441.87213
-115.536026,0.6232331,258.03128
-17.086494,-63.172234,93.09982
-90.243774,75.595924,150.51991
-872.2975,943.9479,535.76855
-1892.8715,2063.8098,529.48456
-2279.0237,1762.1848,721.4564
-1733.5468,1454.1248,421.62158
-1213.1353,1236.1886,580.31506
-1064.7921,992.53864,411.25522
-1072.5573,773.5503,227.16983
-1000.804,950.232,124.21232
-787.9811,546.45135,109.81288
-632.9668,470.64548,132.12134
-541.7004,366.75867,-87.39127
-384.20966,657.0055,67.607925
-165.2882,189.29558,-107.09709
45.159187,775.54803,-10.220933
186.65253,-140.19319,119.20236
338.3568,487.41815,83.535736
31.28223,-202.52364,254.57217
-255.19583,2654.424,1284.4237
-340.3121,1511.6565,317.29947
-623.60535,739.11633,416.3786
-707.5298,1084.9032,501.77826
-951.4268,741.3267,272.8546
-267.45096,180.38287,127.243225
-220.93147,-370.8974,-120.37809
-669.51465,-163.59045,-242.31119
-887.8369,84.2011,-65.753494
-1107.5826,391.75485,46.904255
-1407.8632,1044.4867,208.09114
-1500.919,993.044,605.42523
-2016.794,1182.4359,455.8834
-1452.5236,557.4054,297.1589
-1573.4783,514.87665,623.6258
-1626.0717,1359.7465,831.42584
-1843.1263,236.11322,697.3891
-1532.3921,447.0788,380.36133
-1497.6534,770.33856,496.095
-1526.5647,832.73395,337.51395
-1300.0449,716.0604,69.53985
-822.2681,428.4642,91.46986
-544.9215,168.0283,157.93681
-310.69464,170.82962,-105.91767
-313.14133,232.80359,128.52841
-254.12175,479.94516,-96.235756
-223.5431,571.1754,90.08328
-45.37439,220.90909,34.105656
-58.464012,531.9497,216.62347
-33.613384,-184.05766,29.847794
-8.31462,1133.0028,990.827
-103.96868,2713.3628,1580.1187
-540.31104,683.98773,345.97806
-1390.6876,1159.5757,758.83826
-1353.296,752.7319,107.51965
-292.2305,1.3919748,273.36316
-361.67715,-173.34802,9.757556
-200.06194,-177.7222,75.596596
-749.6944,870.1106,443.29688
-322.14767,2104.5112,300.91428
-671.7871,844.4421,361.07373
-865.33026,1263.7993,211.62204
-301.21152,459.89624,146.96004
-663.8611,-12.080431,441.26343
-1658.5968,1004.85046,285.2129
-1923.032,595.51434,330.6638
-1748.3948,307.26004,700.5051
-1806.9746,1051.1151,787.91626
-1497.1858,584.46747,493.20914
-1510.9452,970.3861,677.91833
-1503.1844,778.86,223.56413
-1317.7645,548.48425,3.2489917
-1040.5522,594.0334,22.505447
-686.548,342.37747,12.33108
-498.1037,179.33522,14.00077
-263.36374,-41.5763,-66.94677
3.7185786,69.35655,-181.27005
233.21698,-330.52603,-82.88647
372.5539,-209.51141,-203.7421
263.03104,-367.41364,103.56146
-166.85974,3687.7092,2037.1732
-48.757053,747.24426,301.79025
-1303.1133,1040.3276,681.9603
-1519.4131,970.87555,234.54477
-1282.815,868.1738,594.79175
-418.4904,738.9013,543.83624
122.29203,150.99104,654.5305
-20.060184,1140.4722,734.5288
-219.81064,1326.0409,818.03876
-510.83206,-159.73099,-146.44702
-178.19466,-218.58675,109.18187
-103.430855,-99.2503,-181.50151
-336.74545,-137.84875,-53.47878
-599.25165,-74.29465,-171.10489
-1822.9863,1130.8027,496.57037
-3653.0144,1119.2728,1006.6255
-1956.0343,438.73013,-363.01627
-1737.1816,1308.1967,1167.6221
-1220.9176,679.68304,797.2876
-1158.3525,272.00687,379.3288
-1278.7095,129.32845,346.57294
-1336.441,741.0614,225.79309
-1155.4052,341.40005,197.55022
-1061.7542,864.20074,116.467804
-1125.2926,534.9308,227.02902
-784.7092,355.5869,149.24562
-466.17847,384.77826,108.932884
-333.6932,417.598,129.99733
-109.218124,308.69543,195.60622
-112.98874,481.1265,183.52638
-72.191055,342.74274,380.63028
-103.90592,205.63751,41.59639
30.177877,-222.0518,323.1771
-423.31592,2737.2122,1364.7468
-707.79126,158.7681,496.58768
-1465.3071,1356.1924,800.9913
-992.9767,571.64844,365.0905
-656.4108,780.96014,683.8201
-292.13202,912.349,697.6425
-28.709383,224.16539,412.65146
-130.8139,875.92755,641.01917
-88.73886,532.45544,361.64758
-51.601357,571.94604,806.77136
-10.75808,1159.9254,835.5898
-225.01724,109.805984,323.09055
-141.19908,378.70596,74.87267
36.259174,-381.1971,-113.32031
44.338936,-184.8189,-46.424583
-1333.9086,37.352287,838.7079
-3933.724,1848.7952,878.54144
-2446.8423,625.54474,-105.10435
-1308.0702,491.93976,646.21936
-1339.38,926.50885,577.45575
-1166.706,-259.19937,269.9751
-1008.3169,385.9724,224.5475
-1152.6635,561.88226,412.71283
-1009.2836,944.7946,321.5524
-997.4068,613.0439,283.26825
-654.62634,498.0824,120.45959
-401.19305,416.49564,372.97385
-97.82974,313.0773,17.986864
93.31491,325.88788,43.91212
269.31152,-30.723627,25.378525
8.459549,166.94394,79.1115
94.60793,-94.18693,305.71762
-324.4259,2207.4045,1518.0757
-573.1253,854.73114,636.79364
-858.0579,399.75674,272.26782
-1177.7836,1320.9814,977.7238
-1223.4177,520.57227,371.7921
-648.9805,257.1213,40.677715
-530.4038,355.80753,287.69293
-117.030525,-176.87108,119.04544
-147.7611,4.9934926,156.42493
-292.94843,103.9217,128.58192
-685.49475,553.46405,435.75964
-1671.5012,378.04678,639.65155
-3049.4878,1211.0157,540.2071
-1771.8301,-192.79941,-197.97781
-1607.4728,1282.2352,910.6744
-1532.8243,913.78815,801.5824
-1212.6183,124.505714,412.3525
-1287.963,805.1224,378.8642
-1272.5048,600.8701,336.6362
-1318.3085,731.713,130.7175
-1166.6948,539.53015,298.71857
-1074.977,695.97217,323.5438
-692.2607,183.69417,195.46115
-532.3773,503.14343,231.49535
-246.66507,201.60043,171.1193
-89.53954,316.54877,167.63953
88.60518,195.009,208.81001
201.6389,304.4051,174.42525
274.69037,27.035728,194.72385
211.18431,388.53494,256.38287
129.0359,55.97534,506.22736
-319.30124,2121.09,2110.0742
-255.89838,1549.6765,824.45807
-728.5264,589.36676,743.2803
-956.1767,940.96625,813.7995
-670.6977,89.75511,285.80914
-392.3395,246.26357,290.00403
-64.231094,-119.478325,-51.892372
-165.89453,-26.264277,-10.390053
-378.67688,118.590324,-9.440097
-814.3184,346.1245,102.08119
-1266.7004,513.1759,214.79881
-2038.1635,1035.3293,614.72845
-2267.6064,974.7754,286.1698
-1542.6263,287.85132,348.3594
-1407.7799,1234.9777,907.0644
-1315.1425,690.48047,838.225
-1461.345,720.3296,661.511
-1557.5267,598.66034,513.4751
-1493.2034,662.3786,531.535
-1361.3204,703.7889,427.22723
-1293.9045,486.0559,281.55795
-1123.7249,499.87787,215.53185
-836.78174,519.3421,124.97835
-709.76263,651.628,393.43396
-488.24777,311.38922,50.87184
-144.6611,218.63344,115.4816
-87.52703,112.00784,44.39144
105.01844,250.0047,141.33969
170.27159,45.08145,-10.296172
246.2306,197.11317,240.50392
30.057888,-172.38783,-58.303566
-66.8206,1323.5648,983.73334
-730.8105,4006.665,2423.0051
-264.19077,-848.06506,109.596016
-738.19806,1095.898,781.713
-314.16486,601.8211,369.10574
-246.06242,768.5948,310.30524
54.60469,244.2789,-97.08733
1.973401,134.46535,32.805546
-202.96387,281.24362,-143.7114
-439.5006,371.1429,252.07599
-630.8296,375.49716,-16.898615
-911.4217,653.89984,218.66042
-1855.5527,810.8259,688.3953
-1972.6436,1032.9963,320.8123
-1395.7764,161.2542,287.48126
-1555.1022,1016.18964,876.6554
-1720.4186,702.4622,660.1752
-1778.7491,537.9413,566.2345
-1643.0131,577.6716,365.5567
-1554.5636,990.51245,567.224
-1182.5118,408.46475,124.74795
-954.57825,807.7663,310.51794
-499.10538,323.2538,15.060523
-518.4071,452.63504,162.79053
-370.44266,337.2361,-38.973
-235.26253,536.0231,218.20995
-24.876677,45.215084,-98.80979
15.138741,431.38354,281.89154
218.96556,-7.545812,-175.95755
25.94708,696.51544,398.20422
179.89536,-368.3111,-455.95877
-89.91563,2171.14,1592.8596
-118.32238,2772.5361,1704.6768
-19.367603,-553.82776,464.43768
-924.4467,1556.4398,895.9268
-1049.2269,613.624,206.52673
-761.71466,365.57355,219.26807
-166.1926,1226.2096,1152.5908
305.4095,977.95056,768.30896
35.330753,114.84637,475.19272
-59.735455,1245.2196,528.9335
319.75848,-128.29608,33.87783
253.42186,1673.8828,920.23035
149.08907,200.85266,163.77231
-34.59405,1012.48334,592.15015
325.60867,264.616,282.01703
206.00125,956.22424,595.0016
6.930341,683.2017,348.2516
17.282515,579.63007,484.78394
-915.18317,905.529,516.26166
-2066.9487,2576.6082,513.5784
-1803.8033,1586.3206,911.64795
-1117.8749,1227.9255,853.75696
-618.6786,696.63983,683.9391
-555.11163,789.2496,588.69617
-508.0964,659.07605,335.0863
-240.12491,509.71838,269.26007
-93.451485,224.591,92.51684
-48.53896,336.9767,-98.68043
86.55989,138.70764,-101.65716
188.21872,625.39014,-59.804966
240.84825,-401.51257,47.006264
294.09418,365.3667,127.17015
-46.82466,-194.50961,444.9889
-614.4568,4029.7595,2110.0647
-261.47482,294.6523,232.04555
-1024.3881,793.53174,707.467
-1073.7463,679.9249,344.79242
-886.47455,95.04105,375.27917
-254.29257,-166.82474,38.77652
-591.5172,-484.62668,161.70598
-903.5706,356.98688,38.514446
-933.6628,271.8598,322.07755
-1334.626,419.33295,77.308784
-1984.5149,1722.4264,410.66574
-1470.9927,327.20883,60.922638
-1514.4524,1013.8908,323.40228
-1231.3738,1124.2981,669.07996
-1181.8442,759.3723,494.02954
-1314.5692,871.902,585.1511
-1472.6023,622.9197,656.2089
-1499.643,1058.7374,623.83905
-1492.2166,616.2295,553.99304
-1393.3004,824.40265,454.4542
-1289.9727,562.4268,469.2778
-896.09827,661.3171,195.35199
-615.297,345.65414,151.29726
-527.53357,557.2526,190.03395
-179.66693,167.94772,-12.898998
-169.05597,390.5653,78.39441
-39.081085,-22.95815,92.56508
44.209534,289.42902,73.803444
151.14862,-103.56606,51.403637
-91.98021,205.00972,171.69006
122.029465,-230.4226,23.246311
-277.10236,4400.5015,1885.8864
333.56268,520.8244,867.80884
-953.0253,1051.5983,791.53156
-1391.9703,915.2366,182.80423
-1046.9236,473.77298,724.5298
-581.59576,969.60284,477.17105
203.59303,253.03041,605.1115
-107.37645,1515.3351,836.7449
237.19504,278.4134,246.9469
90.91748,397.30847,323.09943
181.20157,353.53946,75.50194
251.96196,223.97241,-7.7807117
312.90515,-181.49931,-16.511005
-96.79473,156.45265,73.26952
-681.8951,112.4082,408.25742
-3594.592,1396.1218,1088.405
-2837.063,523.91144,-207.92014
-1657.3456,538.40564,730.5253
-1683.784,1370.3271,1086.5375
-1096.387,256.16455,508.57312
-1228.1744,334.91852,317.837
-1469.6335,935.4619,240.93173
-1113.7275,491.08008,-82.77597
-898.74585,599.83215,184.40556
-671.43317,492.8191,-5.9559565
-695.4366,733.2229,95.94988
-407.72867,256.1173,-102.42729
-214.20145,575.2026,37.14342
22.984632,-24.674623,57.932682
220.22046,392.7641,175.61072
368.99026,-205.7961,67.12979
214.30122,368.6026,246.04968
-190.18376,-531.76874,136.12782
-870.6038,2831.2805,1120.5355
-879.9096,2489.7175,540.355
-1229.8839,-468.0998,488.49695
-1413.9679,1118.1843,494.00635
-677.4848,-441.27905,471.19467
-506.91037,559.1287,589.179
-95.22526,591.2914,765.391
270.79556,771.3352,801.72205
-396.97125,1962.871,1291.3461
-65.723755,406.75085,540.4622
-212.17511,-543.8908,45.95148
-7.9371634,215.12746,290.1259
39.8696,-435.8447,-109.47219
-408.38297,413.93106,-83.99049
-2585.75,376.2522,1309.6713
-2413.85,1631.7206,215.80553
-1601.4254,119.64402,226.20642
-1726.0212,643.6053,943.80676
-1287.0253,840.34515,505.68875
-1486.4259,607.73364,453.31018
-1369.543,676.4569,148.08467
-1268.2798,897.83124,-12.5277605
-1012.92053,465.51196,-13.3964
-878.7492,892.7552,-53.292274
-635.62756,220.78058,96.83445
-404.22858,494.64307,101.15574
-187.44969,199.2589,-82.45122
-93.19726,386.20483,93.15264
160.09206,49.67811,54.651146
124.42994,547.80945,204.61082
103.85257,290.6749,114.08218
-118.10158,795.25604,325.70822
-582.0957,-164.06728,172.16139
-1108.8158,3298.9617,1332.5132
-888.53827,834.4553,629.33856
-1471.3384,113.970665,571.362
-1056.9048,659.0084,724.1838
-317.2828,172.56448,809.0475
-151.7493,655.2317,999.70416
-243.12276,705.47327,891.15393
18.273043,153.75156,656.8057
-239.2906,535.3161,579.34503
-107.14366,91.9746,157.64804
-436.00696,652.0002,285.57825
-318.9741,126.93538,150.31467
-1409.464,881.73236,347.1561
-1986.6654,1010.2153,393.8503
-1391.7549,602.02203,318.72076
-1417.1044,1153.3031,642.79834
-1540.3895,1290.309,758.4976
-1521.9886,1045.7255,514.0766
-1346.9457,1122.7296,614.111
-1152.7549,997.73346,376.16614
-950.3075,594.74585,89.01987
-810.5732,618.476,85.51464
-637.5566,445.6443,-112.20614
-426.86047,228.2927,-58.75684
-336.88272,313.54465,-10.661781
-131.6924,82.143616,-128.31506
-93.88465,351.17484,132.37093
69.97585,5.7397804,68.43255
-152.618,414.35184,309.21826
-317.11026,-104.64239,337.6215
-919.87244,641.20685,517.7466
-1168.4391,-583.1181,667.5513
-2265.281,2413.6816,1340.1598
-992.06335,1235.7002,702.36145
-1064.332,-767.006,417.43402
-1239.3372,758.4291,755.5069
-605.83185,-207.5171,550.4741
-774.6971,196.56917,378.5381
-755.8784,132.35663,626.1143
-926.20123,589.68335,433.88068
-833.9361,375.56317,346.53378
-895.88293,487.58612,369.27524
-727.0821,489.4729,281.70486
-990.61475,574.7702,460.3977
-1121.1686,529.578,444.85522
-1355.0741,847.3871,498.02914
-1466.951,755.37964,562.1403
-1577.9404,1079.3727,529.211
-1641.7529,1015.51105,562.22095
-1482.2245,994.4776,242.84949
-1090.202,689.16064,280.2555
-751.7127,442.24142,98.936104
-610.1168,640.65936,295.5437
-371.3775,478.84937,152.095
-254.56175,381.59338,213.23149
-184.00818,456.20734,82.68011
-105.06999,241.88528,97.278404
2.1860044,259.6349,-8.330038
97.94259,242.06212,97.0264
134.87265,227.29211,23.344072
80.31177,-172.81754,112.62809
-312.77176,3301.6487,1577.1184
-409.7463,979.66864,676.67194
-400.067,863.58234,733.55334
-540.261,920.1683,463.43863
-786.2222,455.5562,437.33514
-423.0777,1037.7759,447.81842
-194.71536,753.4767,404.81146
-270.12054,691.2789,334.85715
-15.067074,501.61383,314.89343
33.406128,754.71936,286.95026
34.464825,574.79803,285.23987
-231.36205,1234.2349,442.5977
-188.12234,286.82385,75.39062
-417.1176,428.30637,387.53757
234.71014,488.64832,485.00647
-123.74651,827.36053,869.1985
-860.9081,231.9577,329.33884
-3241.528,1961.4181,909.35596
-3182.8691,-208.69626,229.07274
-1420.8398,1096.2052,666.4522
-1246.8461,645.71783,852.8582
-1012.8029,694.69214,234.21826
-1048.7457,742.43744,-65.87607
-677.6706,919.90515,45.610645
-431.58908,386.3828,-47.12317
-346.25116,457.2858,17.74936
-205.55017,-224.10373,-143.09119
-9.088783,367.9602,67.170815
7.2247176,-128.83453,-55.046337
144.70262,562.1171,301.4544
176.04666,-244.31914,-223.01738
226.95706,1833.7521,1513.8823
480.95572,1880.5842,1332.1173
207.22623,169.37735,377.0969
-1178.7125,1161.6249,475.54456
-1556.211,592.201,434.21695
-1156.8987,1399.69,525.6758
-354.52194,762.10406,314.6304
-168.99612,899.972,529.04443
26.23284,391.2789,362.23718
50.067875,565.9175,573.42163
-13.051388,747.4501,650.1528
-48.037464,907.5532,303.42026
-100.34452,299.77594,259.79166
-202.86533,792.8921,335.16183
-350.52548,755.83014,357.78412
-301.2,1017.1906,92.648254
-143.65916,853.42847,194.063
-284.61874,899.6326,868.92847
-721.2944,1158.4756,985.53357
-1959.7449,1546.6562,337.804
-2345.1733,2175.0532,482.6074
-1566.08,781.3444,710.6019
-1211.7244,1332.7339,370.04633
-1062.2155,515.60547,400.34476
-805.6747,593.89044,162.62589
-566.5187,292.2417,120.87873
-464.46466,315.74228,-31.007324
-209.49693,-261.53238,-97.070206
-49.96784,307.73462,-26.758707
63.763638,-129.50786,-153.39876
68.7427,528.88605,155.16591
243.96545,-607.0879,-284.85382
127.065544,2519.5876,1623.7892
286.551,1146.8698,1045.8928
-490.5797,260.7508,448.5928
-1014.5212,1241.6517,708.59216
-727.92914,595.368,496.58777
-694.81036,967.9604,674.5477
-231.4381,582.5662,292.50458
-149.64073,1039.1295,287.1532
-38.57025,379.03558,188.53827
-167.5558,896.5964,198.03482
-251.03767,519.06177,-31.942087
-503.8083,648.0161,222.33316
-567.66437,842.8263,409.11743
-503.44772,534.29785,726.51447
-641.75037,658.19324,772.6809
-516.64746,904.9269,733.2921
-703.00104,884.39075,375.1356
-2129.0007,2486.6821,241.59685
-2005.935,2405.9668,415.3285
-1188.8556,1570.9515,335.88828
-1250.2026,1601.2284,282.88638
-892.88214,707.93585,202.89865
-606.2155,788.1438,88.003365
-537.14075,141.76147,26.354256
-453.54037,282.52518,-107.0546
-290.82208,-87.45406,-140.99251
-200.1558,205.99158,-78.152115
38.43485,-221.56252,-242.88947
58.364635,436.00256,29.55164
183.70421,-288.93753,-14.581968
197.70297,874.74677,232.98032
98.16972,-1300.2225,290.89413
-923.4994,4489.858,1769.3818
153.03,3390.3137,320.779
-235.0762,-970.36816,508.48193
-611.80414,1928.6267,648.2434
-277.2902,-16.456335,352.97537
-266.76654,1051.8927,473.13464
58.033752,642.3627,99.98068
14.887582,1042.643,427.79984
187.4718,322.59933,232.16058
64.04303,1049.0737,210.36809
-10.208775,558.56335,272.8288
2.9272711,991.4697,230.29869
-43.782112,564.9241,299.4755
-48.156586,1038.4971,496.40375
81.06857,471.54047,434.16016
225.03996,1058.186,671.3692
-470.04974,1105.6378,478.15665
-1962.0656,2631.6218,269.23514
-1558.9116,2727.7524,643.2656
-861.18506,1241.6609,352.4631
-678.86115,1324.1979,582.7125
-513.5575,225.72711,224.93933
-284.9785,496.4762,230.15454
-261.11618,367.50534,70.57694
-136.58623,438.25275,63.847393
-24.5413,-99.40378,-149.4373
38.87008,374.667,56.118927
98.25971,-165.04222,-199.81847
75.91405,454.09732,210.97723
-40.692184,-514.42926,-363.55057
-272.5989,1973.3303,1417.9775
-404.08298,4040.09,1668.2462
-605.0466,-401.3301,-103.37789
-1123.3241,1720.481,684.9667
-643.7401,270.7441,303.10037
-571.1482,1255.2014,677.6828
-75.60678,362.8287,313.16296
-281.7723,1611.3812,720.09973
-259.09445,-132.23975,-160.12178
-379.99127,878.14343,236.10837
196.72102,-606.4985,-397.23758
-9.16183,31.384968,-124.09637
-238.75203,-219.05022,-233.81813
-1572.099,1267.7433,715.951
-2527.6384,1094.8497,684.8535
-2357.391,828.7632,-74.607346
-1707.6337,117.82989,619.10803
-1564.0028,1654.3546,1013.5167
-1678.3516,336.3224,416.83875
-1424.2046,376.87027,322.1996
-1633.4968,683.0285,181.08392
-1458.2811,378.54437,15.622593
-1085.1893,252.96815,140.81819
-681.8958,457.43674,104.398476
-579.1006,188.26573,11.121858
-497.52676,414.90613,183.01146
-358.40598,280.39703,-7.9378695
-212.28378,711.7704,223.94077
46.157997,107.02814,47.930813
125.905624,612.9264,259.91904
130.71979,-2.756634,41.48149
335.44266,645.5267,640.275
267.1337,1555.6337,901.97736
532.95544,1012.51117,915.91516
-877.59796,438.44528,404.4681
-2214.6033,775.44336,636.6791
-2178.4175,326.56503,85.223404
-613.71704,743.4128,425.99954
9.134126,506.5241,666.084
-677.3374,1911.2938,912.83966
-88.32061,510.38187,229.2018
10.877994,96.605286,355.0644
275.50815,734.83984,770.9811
335.96307,134.24045,306.8169
-125.92358,1260.4502,608.7143
-225.58241,1041.3092,504.03433
-239.92223,-29.25401,133.54532
-549.3429,800.3983,445.7226
-829.62695,443.55154,588.5546
-2449.0076,1314.4954,556.8391
-2735.2854,1429.1571,295.00305
-1701.4012,319.59662,368.3566
-1355.1271,1047.5573,765.58466
-1154.097,483.91196,195.02644
-1040.336,407.2825,390.3938
-795.48083,487.58475,147.18008
-541.64575,253.06473,162.71564
-318.6585,154.9738,12.583097
-171.98656,149.28494,78.44115
13.880211,104.41043,-23.333454
167.99551,43.84274,205.12479
204.02837,-180.23785,-89.2424
382.67197,93.20665,349.70053
360.03256,2779.8271,1348.5602
-12.136415,342.97058,422.34012
-765.51013,809.0572,725.2045
-967.46,572.9016,462.16678
-1155.8601,414.46948,633.2614
-946.5772,441.18625,406.25656
-835.9633,1316.9138,405.99222
-1013.6571,572.057,442.46167
-1097.3712,337.00604,155.21977
-520.53705,148.84468,101.52483
88.57901,-391.7591,86.78309
-166.02664,-367.80426,226.42184
-351.68976,266.01584,68.00547
-1548.3429,631.4389,1013.85236
-3194.346,1137.666,880.1681
-1931.0029,699.6284,-504.70538
-1525.2015,752.3153,769.32825
-1481.8563,1165.1285,945.7509
-1091.4619,3.7907376,408.42526
-1444.9308,392.60916,313.73413
-1363.5903,-55.091732,329.10828
-1447.8594,724.55914,326.3223
-1176.3337,128.38806,251.84483
-998.72845,599.29297,189.05124
-850.76373,558.576,290.54022
-641.59985,487.7463,203.57909
-355.1878,171.96715,114.062965
-253.37912,539.08154,142.34514
-66.26416,256.88235,255.53885
68.37378,407.2276,147.44728
199.18263,-110.63165,190.20366
13.719665,243.76212,124.29634
-207.80833,-261.12665,290.28983
-723.427,2422.5652,1532.0671
-1169.311,2444.975,1464.9556
-978.5821,378.19916,454.27698
-614.0652,536.27844,456.33054
-290.16946,104.05379,449.86685
-80.85213,-182.7924,148.4095
-255.3357,32.444836,42.5692
-580.82776,202.89621,76.24205
-648.46216,242.28914,233.90804
-614.47925,631.7889,88.86722
-1218.88,348.19385,372.66876
-2856.585,1032.578,750.14246
-1603.2041,517.93854,-513.1768
-1316.2728,842.4906,574.70233
-1312.662,925.6022,946.8514
-1433.596,521.14105,547.1796
-1798.4169,212.91493,536.15796
-1594.1567,412.7337,328.62054
-1790.5004,557.1107,612.43097
-1521.2877,279.00726,226.5225
-1354.3171,613.6719,191.72
-924.4968,282.50198,232.79378
-542.0502,326.54044,47.670956
-359.10132,225.33217,146.61606
-239.36781,218.95415,29.687376
-16.426336,-147.00449,48.732075
69.05836,-19.825787,31.061945
266.02435,-70.86699,-47.83458
-71.70872,401.14618,-105.14949
-90.64419,-24.676552,209.98866
-471.09445,3189.2856,1569.0063
-258.44675,1778.7086,821.7496
-621.57294,522.8527,494.5369
-2038.8817,1462.3105,664.9014
-667.9438,101.56334,137.69514
-346.63782,-817.47974,140.24376
-352.96115,-668.5831,77.72005
-1007.4317,668.2927,279.34906
-904.77203,1778.5848,158.43607
-533.5589,1094.2002,297.95648
-1369.3812,619.7517,447.1265
-1138.8104,13.322563,-180.47783
-1538.5515,961.11456,448.39236
-1275.1012,439.6467,540.70416
-1350.7957,544.77527,703.38745
-1330.1376,382.12656,627.9273
-1649.8116,706.38196,809.436
-1682.942,723.9056,563.6043
-1468.4755,1008.2626,799.44165
-1565.9869,1017.63477,513.0678
-1236.3123,543.9855,309.9359
-856.81274,625.71747,217.39474
-597.3031,291.8655,118.621056
-413.13235,207.30391,-31.929272
-311.36407,197.40605,14.706696
-89.579926,16.264315,-36.841034
43.254604,168.25395,106.67112
177.99817,-40.80603,-166.88696
85.50117,331.40393,307.8455
-31.74085,-341.3198,-208.50935
91.90649,1658.8661,1075.573
9.058955,3599.9282,2071.9824
-190.75296,-462.70102,407.3193
-1409.6945,1728.2119,917.7039
-1090.3702,579.2557,262.9779
-501.58405,542.29126,597.048
-169.54056,-242.67567,9.704242
-327.24713,163.97345,244.7492
-190.78653,39.961956,-63.015137
-408.84317,643.1961,264.1763
-427.9472,311.38406,47.51877
-1223.4908,971.1603,456.23767
-1799.7461,1079.3827,430.5094
-1550.3105,742.18713,542.7913
-1480.0585,351.9193,376.9001
-1419.842,839.24725,704.15155
-1498.8602,363.7734,771.1771
-1684.0261,903.93634,827.8188
-1564.275,402.67615,545.29486
-1592.629,942.65045,688.8416
-1641.5068,519.37286,274.12616
-1318.4369,538.5598,291.2157
-902.11725,288.2116,95.656456
-760.3548,608.52344,266.98395
-545.7284,241.16803,-3.0495067
-401.63016,330.08902,3.7802694
-69.45972,-20.761572,-61.048035
-57.30198,185.84003,49.078117
61.574966,-133.20566,35.135345
-44.003765,514.16345,246.40967
124.225815,-165.19775,-40.739124
-19.921566,2353.0044,1634.1068
-38.98438,2122.1353,1111.4032
314.3404,-160.50488,464.3577
-676.8662,1591.2385,1055.8242
-1002.13324,921.0852,255.52779
-572.21027,393.85693,148.30986
-218.78113,-94.39163,181.00546
-222.93472,27.137638,31.276272
-128.75406,12.308101,64.560036
-362.96466,3.0924954,-162.79515
-993.58813,512.3262,490.7877
-2121.7104,914.9187,770.6776
-2112.5942,913.47546,112.593666
-1372.3918,260.60016,369.9463
-1151.1185,1103.278,862.4762
-1160.1691,768.54236,746.49445
-1187.4867,424.3739,625.5868
-1463.0582,877.84436,514.5478
-1634.1835,839.21814,501.4342
-1484.6886,781.0357,361.75937
-1372.9877,615.958,390.2023
-1258.7104,639.0557,124.793686
-980.28046,414.70825,181.34137
-647.9208,480.9716,87.07488
-508.41675,344.246,12.428878
-373.0236,256.48584,150.71092
-159.00188,234.41121,56.167316
-81.51944,346.10324,131.13174
81.9814,159.5177,113.29707
112.92446,545.5138,238.15988
128.66925,57.426266,80.780785
16.057106,1837.9233,1323.1531
201.88939,1702.3413,1145.4315
618.11475,54.27459,657.82086
-466.43884,935.0639,709.52234
-1012.7748,383.74792,360.8078
-1745.921,1331.1145,725.6194
-1819.8629,822.0114,-46.200394
-54.6112,222.55847,-108.06531
207.07626,-926.2804,-37.1501
-204.7166,-391.65048,252.63127
-571.2034,312.13998,431.1036
-905.31854,328.07922,560.1018
-2006.1617,1763.222,692.90564
-1634.8252,1077.6686,671.9834
-1573.6696,523.6949,439.46677
-1204.564,1191.7921,746.08484
-1046.2651,476.31836,650.6113
-1210.4896,1112.2172,711.60016
-1648.3934,640.3305,387.49893
-1540.1636,1005.39276,43.616085
-1330.482,711.14795,-11.49308
-1255.0459,816.5242,48.998802
-944.6657,254.26515,-121.84281
-908.9825,809.86084,128.47327
-754.4435,275.39517,-49.711853
-604.41797,719.0989,119.3021
-385.15247,311.04675,-51.116505
-229.51382,860.87396,133.146
-52.9343,107.29577,62.833466
125.44917,585.42535,250.42767
205.18181,-146.14722,114.976074
148.882,531.2207,303.05438
-137.27107,-773.1859,-101.382866
-788.717,3211.4575,1648.1575
-567.2724,1334.2743,906.1694
-923.29785,98.750565,436.36053
-559.4177,906.50323,654.1937
-278.54126,151.9677,780.4748
6.0291934,945.5579,822.9997
4.2893085,376.72562,646.3735
-297.6536,527.88763,456.12152
-274.64273,543.2328,239.73242
-106.45662,118.47059,-16.184683
-354.69287,283.58057,-65.67985
-457.6008,-58.876972,-112.94491
-1155.1802,365.1032,483.54126
-1994.0579,1603.1012,975.2707
-1219.9167,746.8006,109.48509
-1264.816,881.47327,539.9051
-1334.7507,1064.2296,769.4399
-1757.4213,869.03064,491.7985
-1879.6038,786.0794,406.4063
-1613.4908,668.25665,74.92794
-1472.4568,692.0326,-30.92738
-1124.9545,424.42767,-141.79282
-796.64685,552.14966,-27.148352
-534.079,416.57278,-148.90779
-570.43243,517.71857,80.53178
-396.28082,418.37372,-62.57932
-263.28033,585.98047,213.2588
-59.255917,153.91475,11.964348
-49.759865,736.6512,308.6234
131.83885,92.32025,173.30466
-89.81983,666.10596,503.3473
73.57039,-616.1797,62.521072
-640.6142,2201.1162,1712.6093
-381.4738,3042.3162,1149.1581
-616.6227,-667.14124,-89.276306
-765.5113,1008.06946,305.57135
-428.67453,-826.437,-9.617433
-562.47394,-201.29816,269.12183
-708.7089,-314.21313,160.79173
-1278.6752,294.6699,544.37756
-1973.7928,608.1377,510.32297
-1750.6824,1307.5637,275.6267
-998.1505,418.5694,348.45694
-824.5112,1066.4055,541.64764
-711.3771,577.81476,399.37732
-911.02997,862.61115,410.2498
-1091.8706,784.5003,279.4512
-1440.1921,898.35815,328.01245
-1415.824,750.1037,132.9149
-1720.8026,983.03754,198.51015
-1602.2908,822.98865,207.13962
-1167.3154,533.1319,24.763418
-1100.5376,556.7316,64.58439
-909.77515,818.877,21.577568
-528.77625,506.92163,69.08154
-369.98096,650.8623,106.7906
-183.24333,255.53493,18.137264
-150.69926,469.5522,120.80524
-39.726257,138.14577,20.78362
28.931513,427.67285,177.0791
181.78407,-94.49264,94.26666
102.0161,1602.5759,724.5458
-59.263367,1281.7402,631.7245
-165.92813,659.1318,281.90652
-431.9586,1047.2574,655.7522
-764.822,1142.2631,626.7351
-1216.0919,761.75916,391.42627
-1214.4696,660.1468,179.8448
-451.3922,-110.17667,-94.2006
-161.42796,-280.66446,-101.57647
-264.2871,-134.53386,0.38375315
-632.6714,457.50223,278.09485
-1296.7455,462.97946,558.4517
-1985.7285,806.53754,551.40784
-1634.8196,558.4275,19.994307
-1296.5273,464.56296,597.6524
-1128.9924,1041.3799,706.9295
-1242.6365,576.8939,739.1348
-1292.9331,520.2797,437.6715
-1472.6807,798.307,560.00134
-1627.7877,742.5875,475.4794
-1460.003,751.54407,358.6628
-1270.792,848.52576,281.69
-1208.6793,538.46643,156.09691
-912.63605,664.57227,-91.87762
-669.2415,422.8333,43.887753
-467.86575,431.90564,-16.32584
-235.73407,283.8116,94.16275
-143.12508,89.537476,-58.136673
32.012524,7.0373354,121.05263
48.482464,75.25974,-187.00163
175.44151,158.91795,304.4408
-146.9505,2565.8433,1506.9772
148.6936,486.94373,581.6323
217.2978,396.41043,680.20245
-417.77884,835.8574,794.5438
-1681.5344,1472.0454,452.9042
-1506.1721,853.14606,-140.62344
-829.25507,441.10117,190.5174
-165.7188,-167.23808,-10.317391
-185.20575,-387.27014,12.849907
