# PAMAP2 dataset (wrist-mounted sensor)

acc_x[mg],acc_y[mg],acc_z[mg]
-760.44604,246.73723,288.13242
-658.66925,428.14667,234.84914
-604.6157,582.2488,179.31433
-530.7576,715.34296,165.28752
-495.10373,677.88367,238.53767
-598.7599,615.39014,323.83224
-966.6675,680.1543,453.65234
-1185.6735,688.7735,467.83176
-1427.3667,558.2982,488.0613
-1560.4858,519.345,572.80554
-1598.9573,443.794,630.8565
-1575.4049,385.97025,541.6092
-1582.7832,379.75583,471.3053
-1605.9683,441.96793,317.52692
-1235.5267,-21.29847,188.06038
-861.24255,-123.00163,224.59367
-697.2271,354.80856,92.51506
-601.543,351.145,38.69854
-555.75507,276.35532,-11.545462
-513.14777,160.74991,-14.432269
-453.2084,160.00017,-5.037985
-476.10788,204.49184,-3.6015134
-527.2271,351.65768,39.787636
-622.8018,488.74908,189.90974
-902.8185,629.75604,347.22055
-1166.7418,563.08673,498.72556
-1522.8027,504.47928,697.48895
-1871.7715,438.62595,842.733
-1586.3458,174.00827,652.91565
-1128.5497,31.01061,498.12903
-850.09814,139.66447,371.1811
-712.99927,329.7046,315.73312
-614.1909,482.49463,252.94081
-518.8388,627.89014,212.08391
-486.6901,710.858,247.70233
-531.60266,600.0036,307.92505
-768.08795,604.54315,440.53986
-1068.4188,588.4062,534.17163
-1227.868,500.54736,532.33234
-1408.2842,417.23108,558.86865
-1496.0105,456.16403,607.90015
-1466.6155,483.63193,585.4933
-1399.3683,490.08774,456.62558
-1466.9465,459.2312,396.99146
-1474.8915,351.60538,373.82074
-1148.6576,275.4664,295.34207
-853.7776,226.26088,175.8903
-665.457,200.68784,95.25386
-579.9096,203.52373,67.705025
-517.5929,212.28123,47.69207
-492.69446,210.55382,38.807976
-460.96188,214.99698,29.235035
-500.0732,238.6409,9.142891
-516.48975,320.87485,52.94365
-663.79803,417.3083,178.4341
-952.02637,488.65704,320.526
-1303.6495,517.7003,479.10022
-1701.6058,562.6771,758.3329
-1875.88,450.2318,854.78784
-1496.1707,177.36685,704.0101
-1111.3884,28.252344,533.7905
-869.07446,151.17769,340.60278
-635.6633,245.77623,233.88434
-549.59125,556.17676,192.9093
-429.18335,721.4607,181.74303
-337.0389,694.9952,191.23247
-400.5113,597.61395,293.5055
-707.83075,601.99506,406.40268
-1225.5242,657.70636,503.23492
-1420.102,587.3972,496.70773
-1492.6663,359.9351,503.64334
-1631.8887,370.56274,628.8757
-1450.1309,360.76462,634.9587
-1348.0505,500.4099,491.548
-1397.9797,531.2682,390.03638
-1358.3021,384.72897,294.80487
-1085.1835,189.46626,223.52611
-811.7623,101.416115,152.03717
-683.654,178.80447,90.34695
-586.7873,203.88445,42.96562
-551.4164,218.11914,9.232694
-474.0547,208.31816,-1.282622
-440.00912,191.51617,1.2699308
-449.37732,212.30328,-10.311975
-517.70123,306.27878,63.660328
-746.0706,459.2735,220.41853
-1184.513,544.7647,381.26074
-1505.1348,571.7921,537.6843
-1877.5167,640.5435,835.4478
-1823.3254,459.0859,792.4192
-1302.634,-73.29618,479.5796
-1052.8423,18.683496,350.8638
-772.9926,173.35059,219.62811
-685.0588,419.76337,158.77802
-577.79254,722.5526,105.093025
-462.52023,769.7379,117.551796
-401.4972,618.54266,164.93901
-457.34357,499.562,225.54036
-846.06805,586.1877,384.3793
-1179.505,704.1563,488.7984
-1214.5442,643.62744,489.80826
-1426.7812,476.11105,492.90265
-1527.8824,425.06528,567.57324
-1447.7914,414.42896,546.01215
-1385.8219,507.99716,460.25073
-1504.0256,476.1153,405.5931
-1429.009,322.43558,295.6554
-1105.9205,265.39017,212.70811
-844.3458,214.80142,166.51755
-701.52386,239.55803,101.91011
-598.9116,254.1003,47.27528
-532.85706,233.45816,0.9092918
-493.19876,219.71294,-6.54277
-488.66415,261.79855,19.21106
-545.6536,289.29654,43.829216
-580.6021,322.3663,85.66424
-746.3798,407.96704,185.22563
-979.64764,467.86307,312.6717
-1174.2084,496.04825,527.4546
-1467.6843,528.359,709.5478
-1681.4174,414.04962,749.0401
-1495.7416,184.64906,615.44257
-1082.756,99.83838,526.369
-872.2012,177.91084,379.44202
-697.7447,298.97784,242.24158
-629.1094,507.37656,203.98175
-536.29034,661.74506,184.0643
-496.94604,723.0679,236.04866
-536.8814,651.2432,342.22113
-815.1836,617.58923,423.0019
-1104.7404,610.2882,474.64404
-1248.8397,503.31708,447.36914
-1466.0891,450.8311,489.38214
-1534.3795,544.39557,606.04
-1510.4587,577.1292,564.1731
-1405.9095,489.46283,452.6411
-1391.5471,361.09845,353.72324
-1293.8938,288.05887,292.57166
-1052.0009,235.282,274.33884
-799.86224,183.50635,198.83531
-634.18365,241.92316,80.01156
-547.3324,217.99487,35.32737
-505.41257,226.46567,27.45868
-443.62408,213.43063,37.53479
-447.63873,230.41722,53.380295
-553.8809,314.64413,73.393265
-617.4397,390.56982,163.21712
-742.4342,484.211,333.01498
-1017.39575,474.71823,409.82126
-1303.7218,382.74344,473.53003
-1491.0186,450.52518,700.75995
-1605.1616,414.2152,766.5336
-1365.719,65.56314,432.7029
-1052.9413,28.183334,354.97263
-792.7177,169.98125,258.17313
-672.8134,382.20255,243.59096
-590.2483,565.612,210.2234
-484.86386,659.9265,177.60669
-454.823,650.2379,235.10294
-577.447,580.53955,344.16797
-877.31366,620.0915,475.92374
-1184.5635,632.6233,592.3725
-1325.3013,521.8886,563.9458
-1512.3387,311.34137,554.43085
-1522.934,340.3536,591.80536
-1374.0055,394.7436,535.6607
-1258.2499,454.86703,409.24142
-1408.5745,496.38943,358.00092
-1342.0146,357.0676,285.96088
-980.7918,259.33658,182.6304
-751.23346,215.42105,111.50689
-613.2372,240.2686,86.41559
-568.3776,257.55487,54.79184
-533.08856,253.19312,50.020065
-514.8463,233.80263,25.904846
-553.1815,242.92172,28.30675
-636.6494,252.88307,58.244797
-718.41156,284.11945,107.79928
-855.4434,360.72116,246.27495
-1138.4884,408.02518,364.46326
-1409.8186,387.53107,488.52872
-1507.2761,414.48807,592.2365
-1515.5636,331.19772,597.80505
-1388.1938,202.26776,550.373
-1094.7937,187.65115,498.992
-831.78143,297.0738,368.1604
-620.7233,340.21,308.13135
-532.6659,411.804,275.51263
-472.3962,549.92004,259.30905
-498.9428,584.40216,300.9009
-574.08777,600.3211,389.871
-882.82446,626.01984,482.94937
-1197.7996,683.48975,530.88367
-1322.3872,447.36014,494.83472
-1488.4357,357.35583,521.72217
-1716.3918,481.4781,650.13074
-1624.7881,470.0432,560.5379
-1451.4801,459.77945,414.7583
-1457.168,346.11227,271.11502
-1254.2139,264.9194,192.87428
-932.22974,170.84,168.15396
-722.9676,223.46677,97.926865
-618.83075,221.78896,17.71579
-555.5327,197.62506,-25.755033
-535.7919,202.6887,-18.636097
-501.21533,178.02536,-27.032938
-516.89716,183.34015,-33.13754
-566.51575,182.81923,-33.893307
-704.8011,324.12625,39.49405
-959.8811,423.63437,313.9182
-1399.5367,416.01294,478.7652
-1678.7682,428.79868,557.9962
-1759.99,372.39056,749.44714
-1660.4939,112.5993,656.7407
-1297.2826,-61.097843,538.3664
-1012.1892,148.27818,434.034
-719.52405,302.25705,285.2505
-572.3396,466.64078,241.36497
-474.0023,584.9563,223.35274
-409.08902,562.38403,187.18068
-506.18,591.50146,282.6039
-623.12585,535.1231,335.5514
-944.14215,649.9198,412.15186
-1283.1484,696.1763,546.4793
-1280.8414,385.37228,478.40027
-1516.7725,397.2333,541.9767
-1734.7108,342.9144,660.24176
-1542.3882,318.60144,496.81387
-1370.1967,379.13858,376.4105
-1519.5863,398.28885,312.03342
-1304.092,201.97968,215.8385
-945.8762,38.692005,186.1541
-725.36383,334.74585,102.85198
-618.572,269.42126,25.827724
-529.28534,281.3012,-9.871679
-518.06775,212.86737,-26.563438
-458.8672,166.81097,-19.252567
-468.30054,204.76122,-20.689806
-553.00275,251.63252,-8.103237
-707.9717,327.00507,66.18743
-918.8696,387.28983,186.39845
-1295.1644,421.08746,333.91776
-1578.1497,451.401,456.6627
-1772.6237,657.7257,832.9086
-1540.7809,437.37415,763.96124
-1228.9829,-25.347546,461.28735
-1023.073,-60.697598,448.71573
-762.2549,29.332378,322.55502
-603.51483,377.30576,226.58394
-484.81064,664.9892,196.57866
-393.07388,720.6992,204.12173
-364.54907,620.3299,243.38657
-516.6286,528.5234,382.21237
-833.6673,460.36295,459.9198
-1136.6705,420.01236,506.09235
-1318.1571,340.49832,484.80316
-1405.5808,337.52097,419.79605
-1545.9451,488.28198,504.5895
-1464.9113,549.2169,471.38806
-1389.121,516.5908,321.67462
-1441.2373,471.4316,259.3199
-1341.7256,340.1438,203.11436
-1105.5659,290.8774,139.7238
-870.08014,238.54579,94.735405
-743.6319,218.46367,47.582474
-658.405,241.84291,14.5750675
-584.5261,238.88268,-9.012357
-514.2356,230.5875,-12.793192
-475.49048,228.38922,-29.80761
-541.36346,290.22382,-19.550276
-607.9154,407.32056,40.88746
-656.4071,482.8842,233.90466
-899.33905,562.92053,371.40164
-1218.4954,516.87616,558.41907
-1248.3369,352.08386,750.5674
-1246.5566,298.53763,819.44403
-1301.5605,391.42935,668.9085
-1180.172,383.0068,521.0071
-907.2921,447.35022,435.04236
-752.9007,387.2432,451.28363
-645.78107,476.1234,454.79144
-610.1147,651.06537,461.55518
-596.60657,755.15,390.59863
-636.1975,611.5553,270.3166
-755.4614,511.9367,225.895
-980.73254,477.0876,266.4905
-1176.1248,340.10495,246.57906
-1291.6191,296.26672,146.21379
-1526.1156,428.18747,131.9562
-1790.4105,771.03815,250.9463
-1534.076,654.4346,153.28352
-1403.3967,572.8378,46.307705
-1395.354,481.2432,4.256613
-1190.302,325.69556,-23.042198
-950.7783,273.57156,-34.40202
-750.4172,243.07524,-44.114334
-637.86786,268.98187,-46.547737
-558.0439,302.96027,-65.06076
-515.01855,296.08823,-81.868904
-536.00366,291.16592,-75.96443
-588.7941,342.54126,32.06391
-738.79297,359.9201,113.46503
-821.6511,377.79605,234.9294
-1122.4736,365.36475,402.45105
-1454.4237,228.79733,402.21133
-1411.8776,297.10397,568.1883
-1360.7391,433.6078,761.3398
-1277.6115,303.4463,657.0985
-1157.4818,148.07867,479.67157
-958.6673,115.70856,516.40125
-737.02295,182.30588,472.00085
-564.1588,367.48438,335.44153
-519.4109,508.68167,331.4554
-534.65204,562.5795,346.26154
-548.6482,592.4077,363.87906
-637.96875,514.01825,391.0716
-811.88007,484.9009,420.48575
-996.40137,465.91782,430.74786
-1114.6353,427.07877,445.90027
-1277.1042,408.11667,412.42834
-1581.3867,504.617,521.66473
-1656.3209,467.38763,538.0284
-1487.3931,383.40353,426.10544
-1369.1527,365.93112,372.4125
-1309.9656,280.26053,337.12125
-1075.2252,270.76672,269.432
-796.53455,286.8008,188.62663
-608.7472,240.81834,113.053635
-515.039,240.827,86.9172
-465.3028,221.80968,53.895058
-440.60138,238.6756,69.55157
-418.96133,229.0214,87.035545
-469.3947,259.88394,91.34367
-556.2784,338.0856,136.69647
-697.8476,409.59793,262.91693
-992.8306,503.70032,396.18317
-1307.9514,471.78317,489.1793
-1460.8835,478.17926,634.7986
-1615.8176,621.5206,784.8222
-1463.6086,381.95935,570.82806
-1191.2628,61.8526,369.8044
-905.83124,43.44937,370.22253
-713.2456,249.09996,293.95914
-594.6029,449.0875,203.931
-467.88507,642.54675,159.00758
-419.90787,667.2881,179.62662
-460.39545,567.22107,252.94398
-616.4741,483.9679,355.00055
-886.34955,516.066,433.66125
-1123.7264,576.67633,510.16495
-1244.527,517.4156,449.93213
-1395.7808,516.2457,434.02374
-1497.2327,595.5777,515.1098
-1425.3367,435.93948,417.62225
-1340.7423,401.07523,318.60403
-1335.423,378.45438,262.8346
-1267.4641,379.8466,217.78299
-1099.662,348.8568,207.38512
-852.8544,289.07364,152.00194
-699.0741,264.76648,89.512886
-581.566,249.3697,42.21661
-514.116,240.74655,39.898098
-458.5615,233.86284,37.490917
-480.24698,263.26877,57.796227
-548.34875,296.76486,72.16497
-652.4234,346.85217,138.58714
-815.2421,420.7148,276.50668
-1132.6805,437.2068,375.59225
-1237.8888,346.4108,454.739
-1458.7036,390.19574,589.06165
-1673.1593,384.90982,667.2077
-1496.665,212.41219,551.1977
-1133.5676,119.196884,413.41818
-882.37744,398.07617,232.02007
-732.74615,417.79926,189.06294
-604.2776,471.71222,179.61014
-530.08716,623.3259,163.43011
-542.7301,657.3298,202.48694
-580.9085,590.8642,257.63214
-889.04584,650.59155,386.82092
-1193.2687,691.31226,511.07327
-1231.561,538.5442,469.98206
-1397.868,466.95953,496.5618
-1575.1018,453.5171,598.6336
-1525.0183,408.87582,526.7539
-1333.5371,352.53436,355.68958
-1299.809,363.79666,263.31216
-1399.7665,378.48883,225.16975
-1168.5564,317.03088,183.17892
-954.42316,345.68323,120.020996
-812.65173,328.89737,61.277557
-711.54474,306.9014,24.70233
-623.6436,267.89056,0.016570296
-569.1763,234.76852,10.829142
-526.1856,241.55807,17.83032
-555.79675,264.68863,64.08305
-599.02325,311.234,107.64285
-688.59375,440.37088,269.56113
-950.2118,517.64056,410.00208
-1095.7196,476.3395,498.7938
-1157.0786,387.64957,624.91437
-1391.4617,278.04413,741.7883
-1545.3204,254.44783,660.5765
-1344.5037,235.77097,536.2825
-1028.3778,254.02696,386.45193
-872.7123,526.4669,302.3129
-743.21747,549.72186,265.82092
-695.76587,596.2506,253.0593
-578.6045,652.2237,206.18846
-595.3237,705.04,286.77448
-725.96594,602.8116,373.76328
-979.3399,606.7515,445.0688
-1142.5248,489.4318,441.80035
-1230.0726,442.44864,385.71866
-1486.1085,573.7509,436.65387
-1517.3231,663.8653,458.74158
-1522.504,578.42236,375.9065
-1551.9812,412.24088,268.0245
-1506.8304,310.65744,170.46515
-1339.2617,228.10901,112.48501
-1066.2822,207.3628,99.8994
-872.7257,212.81981,91.349686
-700.0231,230.73607,32.892685
-630.5179,223.86003,7.2881503
-544.9717,202.04303,-5.0366607
-521.3515,188.99133,-0.78053236
-525.3934,221.69797,6.2798524
-574.5548,306.91498,57.149876
-606.95544,418.85092,186.42326
-828.766,558.3469,394.28067
-1053.057,565.39844,521.96606
-1183.1119,410.19464,700.0617
-1388.7432,233.3677,743.1954
-1564.647,224.46933,593.0558
-1401.5117,188.22322,516.27313
-1147.3474,448.1669,422.45035
-926.2007,640.0634,313.43634
-771.7758,515.5646,267.0521
-705.9439,619.27277,229.85463
-602.73694,692.025,175.29474
-520.95496,693.1871,178.9971
-661.08826,610.39233,235.22813
-880.2715,581.7723,267.82574
-1105.7747,505.38464,290.49945
-1151.4714,401.4206,303.06262
-1287.3455,465.35434,359.5281
-1473.1495,643.94055,521.15234
-1482.3693,597.93396,523.74475
-1403.1473,486.5844,353.56186
-1484.0643,357.47354,255.63618
-1455.5721,208.16,247.23624
-1068.2596,172.8437,202.5072
-794.1191,204.64496,159.26707
-613.2443,252.47719,94.09206
-527.379,277.6215,40.666443
-465.87915,238.48236,28.048357
-434.8292,217.68883,35.193737
-457.73636,234.71269,65.6591
-587.7742,324.39523,99.82626
-733.5799,421.76147,221.99817
-924.71423,504.47836,400.58093
-1192.4996,403.60294,439.62695
-1393.2316,295.4881,507.41315
-1599.7245,348.3118,677.67847
-1580.8265,342.57547,619.09576
-1337.773,234.85608,424.90594
-1054.3204,176.45485,330.7384
-801.8324,276.64484,241.77422
-653.83954,418.5953,159.48106
-571.7206,525.46967,96.4138
-533.86176,568.23505,90.03917
-549.0246,536.331,117.569374
-651.30426,504.79868,218.00456
-891.8334,530.50195,299.48282
-1141.7373,652.16565,410.50772
-1180.6636,606.57697,488.77216
-1225.6472,540.7365,534.487
-1263.3927,590.0212,637.8909
-1242.6937,511.80417,616.90344
-1176.9531,458.34552,522.63715
-1380.3792,407.55573,454.23584
-1455.6924,203.73729,388.75592
-1185.1471,190.5364,300.0614
-974.4099,168.51414,296.0667
-757.7268,246.39815,242.47174
-614.26117,253.70311,101.35421
-508.83804,247.06755,58.11953
-496.2861,233.9945,59.482727
-471.54874,244.2922,93.27911
-500.05075,265.06418,86.60259
-569.6119,350.04422,157.28638
-762.16766,425.59705,282.6788
-981.69257,438.6199,338.8434
-1220.9996,375.98373,377.1975
-1444.1018,386.01804,550.1309
-1655.0592,424.8791,679.7743
-1539.0171,285.76077,561.9738
-1172.6765,82.45628,425.62756
-860.44775,113.80421,317.16702
-673.63245,235.58673,185.42474
-565.38104,450.21814,108.01731
-528.0931,554.7535,90.83895
-476.22684,612.97784,111.8911
-554.3585,557.3718,196.73055
-708.313,459.67352,273.74948
-1014.4869,544.83813,389.50732
-1245.415,605.6202,532.5868
-1352.7936,572.7811,578.3646
-1405.8662,539.1224,600.4212
-1371.6869,417.38614,547.2005
-1236.1147,399.42432,410.41342
-1316.6826,422.08362,356.64044
-1292.537,286.19412,325.88748
-1018.1339,306.21268,318.21402
-817.2966,280.56702,253.46698
-670.4074,309.5037,153.68112
-617.89215,327.6312,89.58889
-550.4498,291.26846,55.657104
-504.58218,248.0641,43.30479
-502.41162,270.0338,47.12741
-559.19556,322.90268,70.61566
-654.697,372.71817,116.80014
-762.57587,409.05826,253.72273
-988.581,406.622,358.94583
-1165.5675,369.77713,461.29944
-1265.7328,376.98117,584.89136
-1522.7664,440.6751,720.03314
-1450.2322,262.81653,606.9347
-1152.0527,123.084145,508.68292
-851.1802,259.06662,388.05295
-640.71265,273.90323,236.93579
-549.2271,405.8251,187.92973
-523.0494,564.03235,201.13722
-496.37192,603.325,221.67897
-520.7077,547.6239,292.1312
-638.1424,510.655,396.9375
-906.60767,540.20844,446.82117
-1078.1816,524.05444,465.11456
-1254.6307,438.4158,388.25
-1530.7822,499.51065,381.3799
-1473.1627,611.088,410.80078
-1297.1315,529.60175,319.76373
-1324.21,461.5527,239.04494
-1306.1039,368.6841,172.84195
-1032.9989,301.1216,129.68816
-823.67957,248.4276,93.790634
-698.3525,228.59859,69.82548
-602.7717,239.43195,31.6039
-535.0374,256.76538,-1.0166847
-533.6803,282.79068,-10.897905
-596.9927,357.49326,9.253872
-743.0736,448.75586,75.725975
-807.13934,425.74304,121.88422
-871.3518,430.07956,230.29967
-1030.1155,426.04218,368.59247
-1141.8398,369.2981,428.1887
-1154.3082,395.55176,513.8714
-1314.733,476.73633,614.26965
-1367.3754,370.21045,622.40454
-1054.7646,201.8367,439.1787
-704.35736,156.22832,310.3049
-577.2522,270.56635,302.32767
-506.5556,408.2976,251.6545
-479.22375,514.3273,221.64482
-483.37982,558.9189,272.45285
-599.0029,545.10565,349.48816
-816.7495,484.96045,406.26196
-1127.0868,443.5795,495.22043
-1243.6621,301.79486,502.95206
-1288.904,227.80244,434.92007
-1410.6125,311.35117,496.8355
-1401.1636,485.5163,579.4603
-1196.8944,513.9213,436.05124
-1078.7058,442.54828,303.87247
-1189.7544,425.93994,269.85873
-1045.2393,284.911,199.44159
-843.98816,332.60715,164.84703
-666.4669,317.20493,113.638504
-549.11505,306.30005,96.9246
-483.90164,304.0167,76.063194
-448.0286,275.39655,61.116276
-434.53876,256.67334,63.487713
-537.3222,302.2994,107.86817
-673.9101,294.7106,131.18982
-821.9364,330.20755,215.81895
-1036.3522,355.1377,359.7612
-1329.6,310.36017,392.73227
-1497.5282,334.07898,525.93097
-1528.2129,432.4546,704.3238
-1392.5532,299.39008,616.70355
-1152.5002,147.05731,438.88116
-909.1187,131.33,362.04947
-694.0326,220.2416,274.25226
-579.2828,345.54852,237.83893
-464.393,478.87912,202.82742
-416.16626,511.76212,190.36967
-448.94443,523.1937,255.29762
-612.1604,501.1975,311.87534
-825.808,485.4621,379.99442
-1023.2047,511.8836,500.87473
-1233.4495,486.68002,551.575
-1416.9597,388.18967,487.2182
-1510.3263,424.76892,541.1941
-1469.0938,435.55298,481.87085
-1336.512,457.5102,394.44775
-1322.3557,431.4805,308.6326
-1279.669,326.2874,255.02492
-996.80994,267.17038,215.23041
-771.535,279.4412,187.6802
-618.74133,275.35638,108.73654
-538.5592,265.43088,46.07089
-468.14902,235.49731,37.610348
-456.95413,238.23216,30.480146
-496.97372,287.7058,42.198948
-613.83466,341.66003,75.65576
-702.98334,338.0071,114.94653
-831.0159,381.569,263.06857
-1056.6229,366.86102,364.2528
-1321.3074,355.54507,459.0439
-1404.1564,421.69305,625.9039
-1470.0994,483.12946,731.63776
-1336.3711,255.61867,553.46014
-1047.61,101.819466,387.12433
-804.574,91.04045,378.47653
-634.3683,197.4115,271.02814
-531.6589,430.69894,208.0972
-491.16214,559.6917,207.51324
-501.2162,606.9617,261.50775
-605.88605,600.19086,356.79404
-736.7338,517.29675,405.4127
-1061.8529,525.2308,511.12573
-1214.6104,445.23227,540.055
-1225.2948,347.26065,433.30545
-1449.7313,412.80078,489.1847
-1455.3734,481.78912,543.9395
-1298.3525,476.83456,464.78387
-1200.5077,472.14,358.55435
-1241.0842,457.6339,308.70056
-1158.1522,341.64267,249.38214
-909.3743,222.30602,203.95296
-731.88464,233.89288,161.92422
-626.5364,220.49792,106.07112
-548.3577,232.92778,64.60242
-511.35825,224.86197,60.59986
-487.69855,236.31319,57.66114
-552.8032,281.83124,90.13981
-673.6229,303.06192,106.96016
-787.84204,357.82028,204.10837
-911.2114,386.44263,344.5999
-1232.9292,414.4759,437.4866
-1367.7975,376.57678,522.8719
-1451.5299,384.6985,634.838
-1470.2288,268.53745,574.1921
-1226.3385,104.2561,399.83533
-976.4515,139.36444,347.72617
-779.57916,282.58768,329.74442
-673.7754,392.0446,268.79227
-574.30304,519.55255,254.25928
-555.9001,583.9813,277.80307
-595.4134,524.3687,309.50024
-726.14386,553.1244,402.6928
-921.4176,591.94714,498.9372
-1042.1447,610.4598,523.3371
-1125.3506,489.21756,476.47638
-1286.1746,464.49664,443.7059
-1350.0477,546.3589,499.24222
-1444.2336,527.1421,409.5086
-1440.6101,467.57495,327.7243
-1407.7683,463.33572,318.2982
-1439.9009,413.52808,301.84436
-1279.7169,306.5671,216.94493
-997.54065,185.66037,156.7958
-831.25604,221.67274,125.15711
-717.30023,233.07574,89.87687
-619.75256,219.85579,90.02455
-549.2152,208.14047,84.052605
-526.27625,211.59785,87.81017
-494.86472,210.73184,112.59094
-494.19577,267.9541,181.61711
-487.9485,389.99042,297.96118
-698.3668,516.9677,452.74695
-1008.05237,557.7101,516.29565
-1159.5127,405.86887,580.33813
-1518.8401,337.61066,631.3897
-1724.415,284.92368,608.7427
-1378.8993,294.858,504.3814
-996.7433,295.96063,343.76767
-836.4464,387.88568,244.98328
-721.0852,537.24646,195.62675
-635.5275,625.3953,163.24783
-536.69354,714.16394,161.96938
-542.15924,710.67676,254.89667
-775.4182,663.02594,380.02023
-1058.4885,685.3095,469.84598
-1197.391,535.4335,443.92447
-1289.2184,401.737,397.70984
-1508.3821,570.00214,523.8017
-1501.6716,535.9806,583.73456
-1324.9604,480.38922,404.47394
-1449.6805,458.84283,334.0096
-1558.8732,430.54526,239.7462
-1390.0463,321.08664,135.74167
-1094.9292,-8.682812,207.829
-888.38617,303.09796,119.46266
-736.0907,272.29727,35.455173
-640.6907,206.82149,-12.791506
-573.07275,185.89711,-31.424997
-527.1554,169.26735,-37.124077
-479.76688,207.43835,-33.940914
-541.9884,341.13538,7.42736
-578.5311,432.34744,99.515884
-868.6548,473.43512,276.52606
-1214.5282,538.16797,472.9369
-1416.5748,454.13052,726.2845
-1654.8607,180.41422,699.6451
-1651.6133,18.498701,698.8507
-1290.5723,43.570724,751.995
-976.6819,310.82678,469.39218
-731.62683,459.6275,268.2893
-638.5316,373.85254,271.13968
-605.22064,584.54016,292.69073
-548.53815,606.8479,242.21217
-556.5446,676.1062,276.04874
-673.21246,679.8639,350.04935
-958.389,771.17267,395.31393
-1137.1213,649.34424,403.18668
-1284.2645,462.3689,431.89914
-1492.0745,488.16013,559.1582
-1595.7427,616.25494,590.4083
-1531.0848,639.5587,457.81772
-1488.918,572.4881,321.6454
-1689.7312,470.2662,273.11612
-1500.1177,141.82626,263.60934
-1025.2241,69.88133,172.40894
-759.77094,217.25262,90.8544
-596.9879,182.71768,21.184776
-514.3947,243.30261,-4.9171762
-482.88507,192.34975,-0.17098631
-428.73853,197.31874,-25.017126
-480.87497,220.54869,-6.5455523
-533.2528,306.73047,12.2200985
-691.715,429.5021,140.88943
-1049.8778,585.1111,364.70782
-1242.9669,504.49097,450.2487
-1465.9658,488.07666,685.3888
-1705.4559,390.13477,864.6201
-1617.9022,287.52707,689.15234
-1206.5319,117.63889,505.95175
-868.6439,109.44407,384.09088
-714.26544,314.6649,302.6504
-592.9421,341.343,219.16905
-565.05475,587.1829,149.43611
-519.9342,724.1436,158.05702
-555.53516,754.8039,233.22481
-712.7521,657.62024,325.35614
-1044.288,653.8719,457.94876
-1145.2155,501.55966,432.34866
-1324.3544,532.0082,427.77136
-1587.8931,731.5709,553.2133
-1532.2886,655.43756,521.31573
-1455.5739,640.1955,417.1805
-1593.0149,492.25858,372.27066
-1553.9058,292.64526,222.20107
-1307.54,170.85776,292.4094
-943.42694,1.2884349,231.39995
-705.89404,165.75494,74.75462
-570.35706,231.05064,22.65376
-535.1421,248.81781,13.269173
-465.58438,220.42825,3.0703886
-484.75027,223.75122,11.568974
-496.9277,232.66496,-14.201089
-555.152,377.3147,115.18476
-727.11505,538.80646,278.6914
-1055.3923,520.6556,390.50644
-1365.8441,413.2036,556.32294
-1815.6324,466.06274,801.51624
-1800.7686,418.783,734.0721
-1323.2908,193.64644,409.35184
-987.0756,12.907918,389.81412
-827.5857,21.243526,314.61273
-748.439,335.9096,218.46744
-712.9728,667.741,229.40077
-580.82153,734.53,194.43423
-580.8004,780.10425,215.94994
-743.7379,750.549,415.41437
-960.16504,683.0532,480.60242
-1078.6188,646.973,438.2899
-1313.4631,551.5889,398.37628
-1561.6707,638.98895,518.3763
-1523.4733,598.45026,562.69965
-1553.6234,559.3155,492.88312
-1672.2212,516.9212,381.8343
-1678.1573,411.72186,333.16034
-1473.1101,260.08728,277.47958
-1034.9009,107.77962,156.43048
-828.95435,180.41644,84.356865
-690.391,228.37207,46.59638
-630.7632,212.9337,18.005056
-560.3807,191.53493,-3.5552354
-526.7757,215.71231,-16.444304
-478.33078,217.51675,-32.177467
-467.8284,305.3409,14.925385
-515.87964,468.55936,199.9209
-796.724,619.2397,378.2048
-1019.22754,675.2497,500.202
-1247.1234,466.29343,644.55853
-1730.9163,262.0324,750.5009
-1782.0117,172.16838,661.45184
-1317.491,175.66676,625.169
-991.76025,148.90317,450.8519
-800.57446,683.36993,224.41325
-674.6462,676.9363,214.92395
-632.4281,495.9537,218.13023
-645.12115,540.03076,171.8408
-726.20374,644.82855,233.41862
-908.31055,666.22656,279.73575
-1071.4963,728.87286,360.25186
-1113.1787,600.3232,347.42133
-1367.3806,666.53516,416.81818
-1436.9333,724.74634,527.32886
-1424.2434,684.38354,514.8703
-1464.7885,622.81793,418.85486
-1678.8499,480.2795,393.37057
-1529.8595,275.98465,281.72623
-1238.7585,240.82849,230.41298
-980.145,78.272156,233.7579
-791.1767,202.71066,116.52989
-662.9346,198.43468,21.8545
-573.9674,213.16696,5.5786824
-559.5272,220.75656,7.7011147
-559.45197,230.0846,12.847272
-597.6568,290.9563,40.33168
-620.2813,417.73312,127.556046
-680.5315,515.08966,301.19556
-833.2831,584.0094,443.81693
-982.51373,630.2626,618.9983
-1184.4808,413.38986,684.0539
-1602.0756,314.8598,700.20197
-1682.8534,289.7438,633.37256
-1264.6171,261.96948,535.01105
-902.19147,280.38602,340.2121
-750.771,380.7461,259.7752
-697.2803,501.61737,194.97475
-656.9922,643.2411,165.23737
-675.653,756.1799,143.47546
-705.5003,736.7709,223.44609
-919.2084,686.81195,349.19702
-1079.986,688.66095,439.2949
-1114.2915,559.7709,371.67645
-1341.3346,671.9281,461.9501
-1459.5955,673.1113,547.26624
-1390.6205,551.1209,454.36017
-1500.5695,535.8906,381.50095
-1734.2776,349.23743,350.60617
-1535.4904,273.68103,272.91354
-1179.2252,181.1308,227.5528
-881.2299,81.876816,180.77686
-749.88007,257.59158,76.174515
-622.6652,188.5621,-4.2706747
-577.6552,236.80492,-11.705089
-580.1758,236.8854,26.812735
-615.8421,263.8221,33.76191
-627.8853,306.03287,46.25904
-654.6283,428.7625,158.18541
-800.63007,516.88055,277.1986
-1025.7228,658.9485,502.38733
-1055.5518,561.136,655.53204
-1286.2123,374.56644,608.131
-1497.5691,233.16965,594.57574
-1329.1139,243.84612,586.5409
-973.1125,234.23265,446.90607
-783.5863,274.79556,310.9308
-690.84357,383.3925,236.52463
-710.9406,521.63873,231.07718
-707.14417,625.01843,237.51863
-740.90234,696.03577,253.46968
-836.6479,690.0333,366.14227
-1022.7133,693.9133,456.2645
-1087.8145,614.6501,418.71884
-1213.2826,537.75446,392.02643
-1341.424,614.1496,460.44925
-1337.0422,633.9363,476.43954
-1336.3234,600.05725,429.13647
-1498.939,589.5226,390.95215
-1676.8497,390.1943,353.9681
-1338.384,231.2974,255.42229
-1000.0818,184.90999,199.7199
-815.134,176.15482,167.625
-717.9347,266.72253,96.601105
-627.66034,233.90573,32.90899
-574.8123,233.47408,28.70367
-547.6382,204.38133,12.380782
-541.66656,227.09387,14.516696
-560.3975,307.97116,53.850876
-589.59064,450.0024,195.9132
-820.8163,551.7131,371.52866
-991.5607,564.6737,524.6986
-1205.7701,480.42203,699.83997
-1589.1832,320.85596,718.5609
-1655.3016,73.32644,537.072
-1318.8605,93.44732,510.92163
-1025.3245,202.42143,421.71454
-848.59314,379.61508,286.4206
-696.2699,468.7713,179.3004
-637.75024,596.198,129.1566
-597.5561,669.24725,155.87617
-634.6889,626.8229,180.03693
-780.1182,658.2677,289.94415
-1097.6996,805.1399,428.88943
-1081.431,705.2532,371.70914
-1201.1082,665.8645,384.04358
-1407.6392,664.4598,469.93256
-1339.9274,591.90845,460.76642
-1377.022,530.40314,446.71326
-1500.9218,484.85373,394.3889
-1494.4021,381.35153,322.168
-1332.6947,287.57935,238.1203
-1088.9816,215.79861,209.11404
-894.1259,174.20056,166.98589
-748.2428,211.38512,91.121506
-640.96124,185.89394,52.38083
-568.9556,199.50659,41.79762
-566.85754,206.55849,49.777405
-571.501,238.27278,28.9903
-600.9533,313.6224,66.312996
-626.91223,434.341,197.31227
-783.57227,511.4871,343.31052
-1006.1688,562.7142,487.11737
-1177.7916,473.14783,661.778
-1458.768,324.9155,669.6759
-1621.6544,149.22388,542.573
-1347.1492,145.21289,486.26968
-1005.9656,238.52094,403.75696
-849.3994,329.66748,285.8463
-747.6666,498.7331,182.01968
-665.99677,656.38,143.11147
-622.4363,680.27594,164.88876
-620.0915,636.5878,219.94516
-733.43176,603.3771,334.65265
-983.1284,701.9018,422.17966
-1102.711,635.7877,418.28516
-1171.2019,527.5199,361.58685
-1349.1158,585.76917,458.73972
-1326.5718,603.88275,506.22995
-1351.7355,586.7257,443.02145
-1441.649,580.02765,398.1631
-1559.7457,426.5269,307.9156
-1516.7383,246.50633,247.86423
-1108.9988,129.49512,197.05365
-870.8784,135.37733,168.81905
-752.7805,222.84454,96.01904
-679.9814,226.56908,62.697166
-604.3936,222.34326,33.850246
-538.84717,184.38431,15.27183
-482.72125,168.46634,18.342575
-518.6612,254.70233,25.489704
-633.0454,462.93005,140.32738
-848.2554,561.7953,303.02054
-1063.5151,629.9517,469.76178
-1236.4749,547.2433,599.765
-1565.2858,402.74936,679.5799
-1701.1268,227.01234,588.33765
-1389.1759,77.02837,458.78976
-1026.2069,110.37583,366.90158
-854.9788,366.558,252.74094
-771.90027,467.46155,194.911
-695.6597,602.5944,86.89699
-619.5321,738.8229,91.24523
-582.16907,689.5584,117.273705
-687.17944,692.2398,258.31342
-960.0319,749.9725,392.41278
-1048.469,732.07214,363.44775
-1291.5532,693.71075,413.5954
-1469.7328,643.99713,520.2792
-1553.3187,577.7175,597.2777
-1450.9497,357.0358,498.9632
-1525.1302,376.41077,398.20325
-1606.666,335.6328,313.51355
-1320.0417,270.99664,252.2031
-1002.9356,110.31827,211.62906
-819.47064,194.38986,104.10221
-714.3865,207.57849,31.413437
-636.57623,196.32684,0.10024789
-556.5209,177.09639,-4.7086544
-501.3388,155.12115,-1.0159497
-463.08923,172.95564,4.8650146
-435.19904,251.48238,19.215773
-540.09375,448.3935,171.21768
-802.81903,567.1031,388.00168
-1238.5022,572.0485,489.0442
-1522.6296,475.07483,490.345
-1813.6735,387.1267,645.5035
-1719.6868,83.16489,530.0232
-1355.3015,6.6082196,503.42813
-1020.6714,195.33643,504.16766
-797.62756,412.9194,312.30927
-602.33466,545.2755,232.17218
-466.16678,621.3577,162.42685
-405.29892,625.8728,192.1618
-506.54626,529.6613,260.35922
-684.35126,539.8305,368.48746
-999.745,629.3206,444.95456
-1207.4174,604.355,454.3976
-1320.292,483.70538,443.96698
-1481.0562,506.50397,524.3616
-1515.508,536.6233,555.13934
-1472.718,508.83853,424.44934
-1541.7505,481.01083,325.19995
-1575.7389,312.58386,254.42545
-1330.6913,260.4875,229.4059
-1070.3074,232.43127,199.49928
-854.0281,222.91786,114.899414
-713.97485,238.30704,28.126314
-617.0731,221.34378,-4.317182
-559.80383,195.26704,-12.857333
-504.0389,181.55508,-0.30099532
-509.2324,239.1495,20.113792
-573.0215,285.11707,49.057674
-610.76556,380.9416,196.17279
-850.9211,501.7058,439.88712
-1165.3553,440.87448,466.91678
-1424.13,307.74524,561.37213
-1737.8378,372.09824,781.68945
-1617.762,261.5243,657.93
-1210.5753,96.69488,472.69025
-941.47986,69.44686,395.474
-808.04175,174.85284,299.34137
-684.0897,453.34378,180.83296
-589.41125,679.28503,162.15219
-519.1381,714.59656,129.00905
-580.8765,708.83936,236.90776
-732.33484,630.525,324.14307
-1039.4695,694.54034,482.68158
-1128.0696,700.1249,463.46088
-1346.7719,600.5283,441.7402
-1505.0114,476.20267,525.1215
-1521.3247,452.36612,525.99164
-1521.3269,452.08307,458.02228
-1535.3817,398.00793,388.39777
-1500.2708,393.08456,330.91568
-1274.9044,330.34576,328.18768
-1005.6906,207.52637,183.88724
-794.2463,200.89879,74.84097
-691.92444,196.53041,46.367565
-604.3242,191.78094,38.980923
-549.2824,198.95479,38.594635
-495.4066,217.0544,26.04933
-519.6824,278.96796,37.307426
-557.5357,339.26813,65.71889
-627.9113,428.98993,200.11653
-907.33435,569.8166,337.91
-1124.8546,527.5502,501.89386
-1379.3529,414.4046,644.7485
-1671.5621,363.3492,747.4045
-1587.6484,229.93097,660.0635
-1175.6554,201.92406,515.9502
-835.3478,191.2325,350.25754
-739.1502,304.4551,268.45126
-670.56354,438.09494,208.3172
-596.7256,569.1526,136.22595
-576.6302,678.955,147.03166
-628.08093,674.9678,240.91425
-748.7505,624.27264,343.33817
-1024.4028,680.6188,431.41116
-1139.9805,551.59955,403.75217
-1318.1849,498.1091,440.94965
-1463.7234,553.73083,558.5175
-1440.429,539.49884,575.2833
-1397.7394,491.658,455.75803
-1562.551,437.35236,421.18985
-1557.2017,279.53287,351.5682
-1249.725,206.80049,250.17488
-957.39,143.93922,184.58496
-794.5701,188.70439,134.24571
-675.1845,212.83229,75.45889
-547.204,203.58199,11.533389
-485.63232,210.43289,-21.0738
-438.57605,208.28867,2.1045797
-496.69196,285.0351,46.107655
-583.84247,365.80804,120.46825
-703.9677,430.05963,267.34622
-971.7303,502.5259,330.68228
-1169.0499,414.16772,509.98615
-1413.4703,317.2687,662.41125
-1767.8105,273.26227,692.67584
-1690.208,218.62746,633.2981
-1189.5834,190.06528,535.36926
-861.0301,255.59476,360.99796
-716.9957,341.05167,243.70166
-603.6013,451.32748,187.92476
-543.70044,613.6875,153.10275
-495.19275,675.009,172.27457
-581.22217,635.94824,267.93646
-793.12506,567.9287,416.98175
-1079.0721,566.7003,484.628
-1187.3108,481.04288,472.09766
-1337.5902,451.81146,446.7791
-1431.2433,506.57303,556.4899
-1393.3046,467.9746,533.37415
-1350.2576,439.24496,416.31134
-1549.845,437.05222,382.46457
-1466.2347,292.6544,344.7784
-1176.7045,256.32397,279.26566
-960.88837,232.27487,241.43849
-783.48785,234.2031,155.82913
-660.1349,225.63591,118.2192
-547.54834,203.92793,50.52453
-495.94223,211.77153,42.143936
-472.38336,210.68098,53.095074
-504.936,265.67886,78.94273
-575.24384,349.99518,116.04585
-660.5939,416.85904,234.55061
-961.7277,494.43823,334.72388
-1151.7556,412.04953,441.06613
-1431.6243,381.63318,617.5478
-1732.7056,357.14975,695.55054
-1610.0295,185.93152,537.3725
-1187.8662,127.017586,505.14838
-898.33124,137.20233,403.50034
-750.0177,334.93326,268.24185
-637.7457,506.67316,171.97702
-599.2042,631.51965,160.2068
-565.6169,689.6846,195.95547
-613.8413,642.10535,332.62985
-774.08014,537.80676,392.91797
-1058.3914,606.3575,489.4199
-1224.4928,556.48584,472.71158
-1407.6012,505.40927,488.19586
-1457.4707,522.9616,553.3506
-1414.4163,432.89014,507.47156
-1347.3158,437.8106,415.54132
-1474.0918,432.13647,354.99817
-1365.753,337.31293,283.2249
-1186.1436,289.07166,265.13513
-933.1983,212.8445,197.7386
-772.5234,217.51266,106.839386
-670.8452,219.93787,42.217297
-600.2047,257.9454,25.98725
-511.34988,245.45204,12.330228
-509.08908,272.8529,24.83614
-531.52014,287.44342,42.407566
-576.089,375.6877,90.07233
-654.9142,432.2201,221.45563
-930.0889,466.57816,301.8615
-1179.701,363.76166,401.46988
-1543.4196,479.78256,698.28766
-1707.5607,470.281,658.57324
-1520.2738,248.43263,533.5746
-1167.8453,-21.719378,575.6723
-926.48676,135.85678,459.76273
-732.65247,498.24847,270.04102
-618.62317,490.56223,240.10095
-557.0511,550.3583,223.8921
-516.40955,605.0075,209.29523
-578.8468,632.60645,268.4422
-829.7618,670.2273,400.72726
-1112.3314,696.39136,486.40726
-1182.3822,524.0822,440.74255
-1316.5696,411.42233,482.94144
-1553.9731,554.2714,655.571
-1588.2579,503.47464,632.55396
-1509.7435,495.45792,504.46426
-1606.334,371.57724,437.17297
-1688.4866,317.72562,287.10117
-1282.7781,108.76373,186.87315
-858.7915,10.67392,177.71568
-667.49695,359.14523,60.210766
-551.1602,285.65976,9.305401
-499.73,231.45436,-37.90474
-414.9084,131.06404,-39.81511
-381.3748,168.23622,-21.652405
-402.55716,246.63063,13.217237
-441.6043,383.1859,72.35301
-645.8315,567.2552,296.72357
-1024.2173,551.0312,409.43933
-1347.5554,368.29703,487.16754
-1682.667,365.7379,625.9258
-1937.4375,372.47797,702.7472
-1623.3844,273.36987,514.57184
-1137.9495,171.05917,466.28604
-880.1794,199.478,371.9094
-757.74744,333.43896,259.6037
-629.81476,505.2587,187.88884
-566.55676,650.0407,181.91081
-499.59048,628.2381,168.66649
-610.1839,616.4424,318.96118
-839.88367,598.69574,444.70474
-1031.7465,684.6431,431.77634
-1178.1503,701.4842,408.72916
-1407.9032,677.1923,446.87213
-1546.0541,668.6101,480.14832
-1544.4514,567.9093,413.3039
-1581.8824,548.3805,355.33362
-1638.2319,572.19574,283.84424
-1660.9427,445.59708,260.30914
-1372.5269,302.62762,206.13173
-1023.03296,211.90526,138.02454
-865.85736,263.5071,91.26597
-753.8626,295.2736,50.618393
-637.0907,221.81287,6.6947627
-539.10364,171.49707,-12.558734
-502.1456,182.52156,4.779142
-480.73044,221.00296,9.940766
-448.76633,301.31448,116.73876
-584.55316,440.28278,228.0187
-942.8563,602.1694,380.95807
-1087.6377,556.789,559.22833
-1400.1753,447.76825,562.00323
-1804.7858,368.46027,578.32965
-1743.1149,402.09814,577.42004
-1347.4194,305.7735,502.16437
-1069.9756,403.5355,287.23694
-937.79663,535.95795,213.06631
-885.2095,557.25934,159.37595
-765.61115,711.1558,72.14011
-695.77344,808.19073,89.324646
-752.4333,862.6804,176.92538
-915.01196,872.86084,274.50974
-1096.1578,882.5532,329.62262
-1251.6846,697.63477,352.3371
-1525.4395,843.26495,513.87866
-1722.4211,642.3537,588.37024
-1822.144,486.63818,519.25757
-1944.9851,350.15863,380.3907
-1734.52,243.05296,215.98096
-1461.2871,209.92154,285.72278
-1055.3446,209.15997,183.54816
-797.45685,374.12656,15.193768
-678.8912,329.51923,-64.66416
-618.797,264.48483,-72.36461
-579.93604,222.67937,-64.20953
-574.6756,228.4043,-22.912914
-556.53174,271.64444,-15.782452
-535.97723,343.08633,24.027962
-519.5674,505.7536,187.3778
-679.092,601.5974,404.533
-862.24554,600.4352,508.204
-1064.2162,450.86383,622.54315
-1434.6289,294.71387,713.13367
-1844.5115,289.3334,731.7372
-1671.5332,378.34,646.877
-1235.9031,271.51395,520.2127
-943.2235,414.62997,342.44955
-845.1755,533.01984,268.1376
-738.8255,592.2439,149.10612
-711.68396,713.5629,119.9582
-710.3051,772.9975,137.77687
-864.79913,815.43915,243.33446
-1083.0343,802.33453,382.65372
-1157.4506,700.3841,381.59128
-1392.9847,747.3798,498.46344
-1518.3604,695.54706,566.0374
-1611.4629,563.12244,530.70374
-1709.436,449.04965,436.09238
-1826.3367,340.33688,388.36575
-1606.8813,260.49203,297.78336
-1325.797,280.98376,257.8368
-1036.6969,212.82617,171.05788
-844.9615,235.76878,53.406734
-689.7572,198.10411,-10.175188
-598.51917,169.1341,-27.387224
-512.0179,161.60272,-10.175958
-464.81088,180.78168,5.4058123
-476.56973,262.81644,6.880832
-467.76398,382.56894,61.359795
-547.211,557.11725,218.56412
-886.56995,747.25916,410.751
-1046.0671,725.8613,634.11884
-1210.551,375.83014,638.1184
-1704.6195,260.9733,619.00604
-1767.0806,294.1813,772.1852
-1411.8643,238.09543,745.64777
-982.13904,350.88913,431.72293
-769.95197,473.76315,250.0834
-669.774,502.34763,195.29306
-601.5896,577.0846,126.06086
-599.0584,695.91583,100.249535
-678.83997,747.4615,152.09846
-871.3418,699.3655,236.84796
-1045.8356,677.4465,310.57947
-1197.3074,635.7045,318.0193
-1449.9431,737.3664,406.1367
-1536.464,734.32715,481.51678
-1587.1155,621.9892,441.88477
-1662.8463,536.7277,345.4377
-1788.2518,401.54968,316.17834
-1538.5212,226.4133,284.2991
-1157.5396,217.67366,242.09332
-923.74713,176.57431,175.38344
-747.4097,187.72568,88.82912
-625.2624,158.40329,17.303766
-522.4667,152.6704,15.940397
-445.9099,157.88388,1.2605371
-386.2148,217.04294,-16.065306
-492.85715,407.50586,-10.075764
-584.5712,574.6823,97.15604
-710.39557,602.6103,274.2748
-889.9436,535.1993,485.30707
-1274.5867,488.59323,674.2254
-1732.7532,453.28726,753.74475
-1769.5399,335.8119,562.6167
-1458.5212,240.61461,527.97437
-980.4764,182.92804,393.5813
-804.2687,266.33853,301.6347
-714.6341,357.1014,206.26923
-683.1068,565.50214,112.11513
-632.90173,698.31323,93.3425
-648.48047,790.94965,124.42526
-747.6156,696.593,269.96188
-1052.4292,701.96594,415.59006
-1162.3375,655.424,461.03278
-1265.3617,655.5423,463.85992
-1437.5552,671.612,506.37027
-1485.6293,647.60175,499.15152
-1448.1609,562.8639,414.05832
-1558.2979,503.11362,403.6869
-1558.9958,402.57922,390.55383
-1309.7139,318.81204,246.66953
-1144.3411,207.54779,207.80193
-954.1099,103.41473,135.31593
-791.226,123.25818,85.070175
-651.6494,108.14533,54.74845
-583.1479,163.51112,54.616325
-556.8808,185.50629,25.97943
-547.68677,253.36256,1.9885128
-520.6198,399.94482,38.01855
-552.01685,480.82248,186.75272
-797.574,603.49023,339.00162
-1023.30145,762.2991,615.0082
-1233.2704,556.67706,718.24445
-1616.8185,306.74115,582.1772
-1583.2391,168.82718,570.1274
-1206.4093,156.47482,483.7423
-935.0376,266.02707,283.6028
-791.0953,622.82715,161.97337
-709.42554,619.1377,148.47134
-691.1437,654.41595,169.34483
-727.2652,652.69073,205.38075
-835.0955,648.4942,303.53745
-1026.0944,682.4112,397.65903
-1127.71,708.3059,460.5927
-1231.4762,658.8278,484.60492
-1428.8466,742.89166,615.0879
-1414.591,567.4244,568.8296
-1408.364,526.96655,478.56598
-1593.0432,523.4122,420.88834
-1655.2555,381.1969,317.2813
-1463.7261,323.9319,301.35013
-1117.7557,197.44115,216.60779
-851.2622,206.9938,108.84742
-742.1323,285.77887,50.78173
-666.3239,240.18771,19.92457
-621.7368,237.19408,13.373566
-568.2125,175.55879,0.3425308
-547.52466,236.68343,-3.6377554
-517.7555,314.5936,19.220741
-531.146,495.94263,174.30957
-675.3339,557.3694,331.426
-920.48645,690.4625,588.0954
-1068.2236,484.3019,666.8032
-1469.7728,321.88388,611.20703
-1699.3981,274.09494,605.58655
-1481.9293,339.86417,708.1643
-1039.3848,84.56431,499.30246
-858.2725,446.77515,269.70227
-787.32385,523.81396,260.19974
-732.2614,333.65106,162.42484
-734.0798,590.25336,137.56546
-738.3495,737.81366,190.42416
-780.29236,836.0413,277.3057
-1028.802,839.70605,403.48697
-1148.0477,568.52264,397.30884
-1240.6565,500.80646,412.28168
-1387.115,730.54285,528.3629
-1444.2334,693.84064,530.1078
-1494.9857,701.56824,452.61337
-1719.3156,542.7218,355.47845
-1618.2943,328.7138,278.50232
-1352.6229,247.16481,277.47864
-1057.971,188.48647,184.43773
-842.4712,236.95076,82.48394
-739.2831,266.58304,30.896366
-668.73694,261.7923,4.5150704
-634.5667,221.63681,5.152122
-593.2611,215.42506,-10.860508
-603.5906,300.97208,2.0524476
-606.0574,401.00443,73.01364
-618.2435,492.22766,180.96794
-779.8497,647.10254,394.69943
-872.41266,736.3686,638.50507
-992.6196,573.5697,550.6554
-1414.3835,357.36777,653.80975
-1474.1545,162.6894,733.43164
-1188.6781,313.99002,639.429
-928.0654,340.10843,414.13638
-726.9846,673.7598,233.48973
-623.6439,599.0173,222.77261
-619.6695,508.81836,207.87367
-761.0755,629.39325,229.96248
-872.7108,638.92896,278.12143
-1092.7615,733.52625,366.31424
-1091.0752,647.9455,356.67926
-1077.1115,565.2988,306.98325
-1322.3018,701.5168,437.02963
-1344.4769,690.8583,531.27783
-1296.4321,633.1685,433.50702
-1442.7365,575.16406,343.04706
-1560.7224,485.03738,301.9095
-1437.9028,348.8774,302.75903
-1212.0496,232.46771,275.4006
-906.97076,176.3117,160.59666
-760.692,223.9722,107.50421
-675.5234,242.11655,64.07951
-613.32916,222.46692,58.126904
-575.119,220.24658,25.267998
-563.5601,241.11644,38.749805
-578.57184,319.10452,47.376347
-629.0836,447.14288,162.91377
-757.43585,499.92288,267.5425
-944.63007,582.5314,475.79227
-1124.1936,482.06302,667.6969
-1513.723,353.36816,682.6475
-1677.5961,191.62206,603.3297
-1403.5936,146.4932,582.923
-1033.6296,222.83942,434.5957
-837.0888,382.82196,261.19736
-767.5428,468.95285,183.19183
-691.7737,573.7283,128.47607
-654.1927,641.28595,139.82484
-704.70557,689.1817,140.16147
-849.5996,732.2442,254.13393
-1104.9264,822.3223,404.31937
-1116.8351,654.0861,343.87302
-1318.0685,695.03485,447.37186
-1463.9529,686.31396,603.1198
-1426.0216,591.83215,590.5525
-1515.9194,582.7862,484.3912
-1624.7205,399.47763,395.25568
-1617.1154,290.21164,300.89856
-1309.9688,192.42122,257.61514
-925.618,97.40141,213.2987
-760.8851,279.6162,94.75832
-619.9311,245.08269,13.116115
-570.80994,278.87253,5.5802035
-513.9195,234.83737,0.50212175
-488.87915,215.9233,6.2747188
-526.8993,266.8653,-2.851225
-591.97485,380.30707,87.29583
-685.1861,471.0565,239.71541
-915.5616,537.60236,333.04214
-1096.5159,437.28616,445.756
-1406.3048,391.45575,655.2988
-1880.2708,444.17462,790.7549
-1684.3175,378.8254,719.5375
-1042.045,252.01314,554.00977
-794.0554,214.75984,302.02155
-682.7152,231.91232,232.42876
-676.59436,465.19797,201.99022
-614.781,666.39514,175.95761
-612.69794,787.8774,150.79024
-652.29584,744.0502,268.49097
-951.7381,654.9335,417.2497
-1090.968,585.599,441.3889
-1210.7101,578.3034,363.71835
-1508.5198,708.6372,433.77695
-1460.1957,658.3027,460.1535
-1401.7281,592.8863,408.27884
-1559.157,579.02234,353.96
-1686.202,426.4557,320.09985
-1434.057,252.7475,269.6234
-1057.6613,164.37143,185.1679
-851.6185,159.06183,116.65013
-753.3279,226.97006,81.97201
-643.9985,215.01865,31.82593
-552.9311,218.39688,8.688243
-501.1066,197.66054,-19.021095
-520.06116,269.8684,-5.1372576
-530.32227,321.88742,13.072862
-592.53314,439.44415,169.4464
-815.9716,566.2893,324.09048
-982.36456,593.9768,527.1831
-1148.7421,464.86823,659.3981
-1559.6526,347.83267,694.8925
-1744.4772,252.86913,665.7861
-1354.7488,182.52167,612.63446
-899.2244,173.04825,454.882
-745.905,274.58008,312.03912
-682.2609,402.03232,275.792
-637.4331,566.2211,231.76785
-594.8944,701.1203,229.66943
-608.15533,723.014,290.37405
-736.20355,621.9704,400.81784
-1037.7542,648.39874,504.85556
-1143.9579,452.6573,483.75473
-1255.0312,391.48853,425.0568
-1456.3782,555.6574,605.28
-1515.7585,573.7127,631.3319
-1518.4059,539.59033,523.1323
-1607.2197,417.86212,455.66064
-1657.2997,271.90656,317.67505
-1314.0463,242.98474,236.1379
-973.0982,166.331,230.73561
-759.9881,219.60251,129.33156
-609.19446,205.91429,22.703218
-520.72754,217.79631,-12.977259
-447.33475,203.69016,-19.812626
-402.47592,198.39441,-3.9724462
-432.73163,236.3895,37.140007
-478.22864,308.20712,79.01059
-606.2388,403.5217,192.95493
-865.876,443.4279,313.49597
-1252.1384,419.5968,402.2979
-1674.8223,511.84293,695.32117
-1883.6985,544.308,816.7435
-1535.7661,142.32475,521.0764
-1165.4623,-118.93143,441.01193
-914.9612,1.1718965,395.8
-775.9045,185.0592,295.43472
-672.80884,497.38275,242.32155
-569.5852,725.7821,201.17705
-492.65073,741.9163,225.37212
-588.4808,660.3003,360.5574
-766.31793,554.1501,465.01093
-1019.4306,577.851,547.29016
-1140.6895,548.4579,505.2205
-1363.8535,520.1908,462.96036
-1511.0703,542.6873,513.5826
-1535.609,449.9027,475.8808
-1529.7877,429.48605,361.02267
-1549.5327,467.61768,313.39218
-1552.215,383.6626,318.14008
-1226.3087,264.3624,221.2094
-922.685,262.2441,125.71025
-755.5613,226.6569,92.68547
-673.8369,251.24681,80.89859
-602.914,231.96465,62.853928
-563.46875,203.54916,38.304264
-516.49866,167.46765,20.336649
-540.5877,213.97511,47.28217
-576.6826,295.16867,88.54775
-717.5548,380.2933,211.84148
-1058.1918,533.7768,312.9447
-1179.236,506.64517,497.34915
-1350.009,409.79538,622.7583
-1682.0753,376.1612,640.94403
-1732.1034,283.2708,737.0379
-1409.909,207.1295,575.80096
-973.6437,693.0486,168.53972
-709.911,562.16907,183.89877
-684.20483,452.5705,236.34502
-592.101,505.96625,135.51497
-615.6371,756.1944,122.68928
-624.3057,726.065,163.36748
-906.5982,706.0417,282.7103
-1145.7208,742.24915,392.4703
-1256.4473,565.2109,391.278
-1441.7009,651.7856,497.48126
-1639.386,632.9698,606.9526
-1677.9485,361.81735,493.57178
-1624.1206,300.99664,334.44595
