# PAMAP2 dataset (wrist-mounted sensor)

acc_x[mg],acc_y[mg],acc_z[mg]
-1094.6982,2561.9824,116.43636
-786.5813,1345.58,65.07672
-713.8704,286.25256,127.06506
-660.35254,-483.6694,-2.4947016
-619.14056,-977.31616,72.78672
-715.5185,-854.10846,71.85012
-805.8643,-657.2368,86.11769
-1177.6143,586.5426,243.48967
-2012.4526,2689.325,559.4382
-1242.8771,3449.5964,730.5064
-216.81093,2402.4158,512.3606
137.60287,1321.0002,260.03018
417.15027,900.6637,247.65758
605.80133,175.15346,92.24072
852.0054,-88.50717,36.948875
854.00195,-21.670448,73.552536
712.28455,257.93304,16.729362
488.57153,1469.4891,-7.9025645
-273.4886,3606.9143,75.96601
-1107.4363,3429.6394,293.40497
-1035.5856,2170.606,285.45297
-929.82385,966.39325,172.42557
-803.5737,166.21164,148.43253
-707.0157,-616.22363,-32.57837
-664.37836,-867.175,53.835423
-716.85876,-738.267,24.48162
-803.6482,-259.52063,147.81512
-1323.3153,1436.3634,238.19232
-1604.5745,3066.905,538.2285
-847.44946,3184.018,687.3734
-132.87018,1759.4825,469.69766
162.87253,830.5964,210.27151
472.86636,263.99692,111.24541
959.1471,-58.283108,0.5665964
980.3997,103.27436,157.07312
823.0302,111.12792,33.78993
550.9103,834.3587,33.90089
-11.104794,3114.1936,-266.52545
-852.4267,4729.007,-400.467
-1664.6002,3147.046,177.77109
-1380.9595,1252.9684,177.29118
-1036.8193,291.30536,181.80298
-834.1291,-478.84753,66.79166
-702.933,-1049.4656,30.221924
-687.38153,-687.15283,79.76793
-762.1664,-426.03503,0.5085934
-1104.7278,-4.098266,193.31395
-1886.7654,1962.863,885.6832
-1621.6447,3112.4695,1274.1099
-535.4716,2560.9424,1020.1785
-58.678936,1410.0084,639.6825
337.74356,924.6484,281.85312
517.67145,573.3404,155.42519
738.33905,200.02347,-18.50253
881.3939,223.02267,-181.90895
786.75397,221.37857,-257.78336
474.63348,887.01874,72.85328
-70.64805,2806.449,817.00995
-1015.3696,3899.824,819.1415
-1242.3115,2204.4075,877.5453
-831.9051,1145.4586,543.4264
-686.10626,320.09818,325.24683
-496.52335,-164.87793,169.86821
-504.91034,-686.05536,17.1585
-666.88654,-579.3622,-101.37976
-948.12134,-439.41003,-12.584708
-1287.9908,688.5478,126.47148
-1577.4509,1661.9088,250.59189
-1444.5256,2538.2305,717.4495
-741.46655,2829.2769,452.8447
-168.60265,1880.5042,422.37167
322.56686,1069.2681,226.43047
591.7876,504.16498,81.75649
894.0837,140.52963,46.495243
937.1481,41.158497,20.537085
753.6112,87.35582,50.774475
523.8892,681.04346,63.959484
53.72197,2407.4658,83.215645
-940.0097,3896.8965,151.42914
-1534.5309,3197.7563,363.3654
-1205.3676,1741.4497,235.43861
-869.79443,553.99396,127.126884
-573.484,-338.58057,-76.58045
-478.76715,-988.5152,-173.25943
-527.45886,-700.2733,-33.010193
-834.9844,-615.809,143.8458
-1125.3395,247.52625,186.30884
-1786.7592,1949.903,279.16974
-1517.4202,3153.755,939.1918
-584.87683,2726.1338,806.57074
-139.6498,1501.6332,596.0136
249.67995,922.8747,276.18893
481.3554,380.239,155.1429
777.9979,69.14487,31.945105
922.74194,110.81675,43.931572
782.3419,175.11333,80.93049
538.28906,602.9212,159.12798
109.52763,2617.7139,149.26723
-1428.9844,4358.9224,529.2072
-1831.8187,2872.097,592.9022
-1281.442,1375.3088,206.26794
-928.87213,317.2342,74.80746
-612.69965,-168.20891,-18.546219
-498.67462,-715.0481,-141.96028
-566.75964,-670.37744,-135.29796
-737.77356,-750.4611,-137.17221
-961.17426,108.00632,163.84406
-1150.9749,1473.8073,313.7539
-963.64624,2721.1113,1055.4141
-705.6841,2783.785,1170.673
-84.39386,1483.8677,921.235
101.93037,976.7577,651.4443
390.10034,433.34897,465.89023
565.0789,195.59154,273.45917
819.90674,-99.01399,-10.244253
789.5499,106.68492,2.015854
713.98047,450.328,87.54467
361.85034,2232.6375,585.81213
-578.4461,3918.3308,1033.8293
-1343.3297,2804.8281,1108.4259
-949.612,1597.0253,656.30273
-695.7616,747.04877,429.1828
-581.43256,117.423874,144.7439
-568.81055,-550.7182,-128.66142
-641.5484,-670.2652,-196.44585
-849.98785,-633.9837,-109.11857
-954.0315,36.2064,138.85689
-1136.0426,1048.5153,811.0586
-1024.9803,2199.3362,1591.3636
-947.4947,3154.5205,1795.509
-61.80769,1759.5632,1205.6111
172.1108,967.04846,663.29315
414.44336,583.42834,234.93898
610.942,182.66142,-30.67103
970.38275,41.616215,-262.48706
1107.4152,121.36568,-236.94519
987.32764,588.5919,107.01587
440.84644,2181.954,1103.7732
-677.60803,3287.7874,1881.6713
-1268.1339,2438.943,1500.8247
-1010.86743,1247.9542,964.96893
-711.8225,627.8483,530.84454
-493.657,97.44963,92.4915
-554.6475,-247.05586,-137.08556
-634.5297,-452.29285,-469.06665
-762.8729,-436.93967,-498.00443
-627.2365,33.49979,26.878054
-928.3686,650.8671,653.5015
-1112.5256,3156.6687,2479.4277
-668.11633,2988.687,2457.355
193.81209,927.2125,1199.4246
422.3323,308.05518,615.72125
627.55975,-24.807514,198.98434
602.7508,-146.13377,-25.214888
574.5953,-217.61104,-230.15744
562.63763,-157.06055,-215.28786
692.05273,645.49915,358.90155
236.06747,2086.3347,1623.7191
-479.9082,3326.2969,2213.172
-908.3,2427.172,1767.7332
-700.55743,1204.4641,843.12463
-666.5415,478.43542,346.09708
-642.74207,-280.77634,4.7506075
-715.9877,-676.8706,-21.387543
-789.0133,-684.9418,-31.997545
-954.4221,-691.2257,-37.470997
-795.1117,1209.8699,280.41223
-1098.6567,2037.4697,668.151
-927.93176,3866.2607,1385.7068
-99.77303,2815.4497,1052.2728
295.39447,882.8601,503.479
521.3563,504.9135,139.27693
694.35016,-118.30633,103.64917
737.98047,-223.48091,-75.66612
699.2558,-155.36261,-204.73181
569.7599,198.68459,-14.9364805
535.63245,850.96875,288.92737
242.83885,3060.1382,436.87186
-1049.9534,5070.983,839.6688
-1423.4186,2744.9065,873.4892
-959.01184,1219.7261,271.03427
-780.7024,54.779205,196.29053
-705.16516,-462.94894,-59.570816
-684.841,-831.9468,-153.81068
-699.79333,-681.68396,-43.918613
-990.42535,-498.62595,32.17783
-1028.0857,1268.4258,338.34848
-1263.7052,2144.0176,972.0543
-927.7157,3852.9192,950.6106
-97.76158,2402.1653,806.9988
316.79803,923.87897,251.48698
496.07245,671.5528,143.76964
635.3352,287.73502,140.85835
839.0819,-5.6993313,10.640091
846.83405,-160.20808,-27.508171
725.49493,-65.53385,-42.25669
613.143,825.8182,280.57745
265.12012,2457.005,604.5061
-1005.45276,4212.1353,496.53854
-1444.2281,2942.2632,416.01706
-805.54193,1332.6708,115.565796
-675.1619,487.7795,140.7314
-461.5003,-158.60893,9.534215
-569.5272,-762.5078,-24.885616
-618.3199,-788.6376,-120.51882
-1021.5822,-974.7888,-59.303654
-1306.0773,292.2909,0.84852403
-1472.666,2048.4995,-778.4323
-1387.8438,2979.198,-1380.642
-1162.1727,3070.3801,-917.28467
-241.86308,1565.8423,-854.8984
104.91589,792.9212,-535.3077
484.86566,337.02905,-308.66193
709.4558,181.8077,25.192438
1125.0035,-108.8764,111.18095
785.5087,236.4703,-240.38629
596.88293,910.1014,-1615.9976
-426.4805,1288.4116,-2062.149
-1810.5735,1712.2214,-2408.4358
-1927.9872,1731.9803,-1836.3002
-1293.3656,713.40045,-897.2875
-929.38293,284.3388,-109.69243
-498.06976,-179.50381,144.4901
-583.1936,-504.97076,264.65253
-686.71063,-774.8448,561.0697
-1118.7633,-158.06834,600.0122
-1398.354,770.99786,-980.8027
-1780.2754,2213.4236,-1433.7079
-979.7414,2714.1448,-1341.1638
-340.5284,2188.382,-814.8796
289.95016,1027.4929,-303.6235
546.1171,399.7766,-24.187933
980.3582,38.776245,56.0112
868.783,70.47079,133.38072
784.00037,30.858873,171.94579
368.49435,712.6319,249.5719
134.70973,2218.1367,-262.4257
-1119.9158,3131.5044,529.51
-1328.3959,2525.7078,476.14935
-1007.5348,579.80414,626.5622
-525.04266,41.126114,130.7207
-439.69443,-689.3169,351.91797
-99.29915,-1055.3281,409.36035
-701.0116,-1854.428,972.735
-580.13,-836.5477,-60.317795
-1783.006,1471.0449,-136.07047
-4913.4487,4655.2812,601.04144
-881.0975,-1394.472,-1313.991
-2938.5088,359.96353,2462.2349
-1225.9229,-91.00799,524.0219
-1033.6997,-773.4373,823.1031
206.87427,1.8844082,307.88635
501.28067,87.7218,636.53217
550.10864,431.11432,191.82518
15.073089,422.63083,310.14404
-71.25262,949.712,214.87476
-372.23862,1404.6328,623.87305
-421.922,2424.2583,687.68195
-661.33325,2496.8438,872.251
-172.4697,1483.5195,551.3336
-184.47746,399.1366,473.7317
-255.15532,-82.52958,109.03863
-621.8314,-284.5262,228.78941
-661.0858,-359.52417,17.224695
-894.9826,-21.357924,314.8344
-298.35825,776.0734,388.9149
11.975968,1835.6664,657.0727
579.9295,2941.0803,811.899
532.27386,1883.5688,869.2335
584.81586,1223.3451,279.3248
505.21802,366.60703,165.23027
533.12213,18.368416,-64.21475
437.06818,-317.79602,-116.01612
518.8909,-350.49847,-215.77986
479.7813,-223.32895,-114.26108
850.26544,1071.8767,123.090645
929.8992,3269.034,573.01654
125.24126,3943.8394,708.1193
-199.69789,1999.5328,815.2944
-207.28636,1043.0719,427.64297
-417.6338,167.88943,383.1142
-453.18558,-258.66998,16.471737
-605.05176,-578.0584,33.310776
-696.4958,-411.9687,-180.35411
-1174.8152,42.29352,276.8096
-897.37115,1578.3389,215.08508
-646.15857,1990.4299,1067.2516
-226.50343,2831.1094,1277.4664
302.59726,2342.7864,768.02875
641.2413,1075.0131,403.82748
662.4123,526.4586,109.8092
745.5142,259.09943,164.61325
631.1915,-118.299164,98.22658
683.09406,-163.61267,75.68397
579.3797,-29.784039,51.188515
565.6174,1870.673,18.150812
-453.83298,4418.977,44.717327
-1009.38025,3463.75,405.2363
-814.54926,1422.9777,231.7595
-746.51355,450.72174,112.33899
-494.6033,-336.0647,133.36855
-340.48227,-528.9684,82.38894
-342.38834,-669.63696,125.99671
-411.6578,-502.321,-49.003345
-684.6556,-122.799446,105.627144
-1284.8593,1734.5199,-189.2244
-1682.7227,2991.406,228.7977
-1121.2219,3155.0308,828.7878
-355.2245,1923.2449,495.50647
-5.276816,1055.7896,439.39563
330.432,190.19867,274.3498
610.4,-21.280561,246.92741
837.7779,-42.36179,377.38434
821.20105,112.23934,252.16286
562.91125,294.0987,152.38605
314.96136,2164.6167,-261.3794
-683.2181,3681.218,-357.1698
-1418.135,3254.924,-224.11768
-1068.0687,1921.8835,-277.41687
-951.4391,1067.6244,-53.282642
-718.83075,89.69257,78.364296
-673.7414,-614.6807,-79.8247
-594.57086,-1011.47614,-19.196373
-761.64355,-847.63275,-28.609386
-720.9173,-553.6161,211.88092
-1166.2012,1042.7711,43.82089
-1910.5244,3391.0884,155.329
-1048.9788,3956.7156,773.0591
-148.00366,2105.2756,618.99133
235.63867,1088.3885,633.5442
585.8772,-86.21996,386.2955
624.83386,-772.916,-355.64514
865.9423,-377.8939,-108.81153
663.13635,873.88293,-82.277115
170.47917,1360.7079,-6.932493
-202.00049,1939.019,-761.94147
-544.697,3830.432,-1062.086
-1344.5862,3602.4292,-106.29638
-1259.7517,1925.4945,102.81885
-978.77704,903.98413,22.48895
-934.39624,-264.77136,178.69203
-935.39844,-806.0091,30.016333
-875.7856,-1395.0052,-204.7241
-1041.0255,-882.9769,12.716922
-925.8254,-637.14716,285.8923
-1562.632,1172.3943,56.198605
-2171.0112,4625.089,504.64197
-877.7971,3456.7722,1087.7594
-32.391758,1397.5787,421.01874
214.88605,829.1546,466.18146
420.0213,212.6618,252.71608
456.1164,74.77232,161.53773
664.18146,-113.01861,108.455086
680.407,134.5009,128.02824
549.5862,-35.110054,67.46027
214.89453,1634.2952,-256.28308
-1632.0577,4670.336,1043.6731
-1526.082,3482.4517,1286.0817
-960.41644,1268.0441,195.6563
-760.97534,256.2005,189.4672
-528.7581,-194.56343,262.83228
-471.57086,-511.34903,170.03406
-424.71906,-813.49023,-58.030704
-786.5569,-574.4924,-68.56404
-934.27844,-308.45206,-28.677374
-1160.9913,918.03796,412.52963
-1548.7125,1592.371,1020.8744
-1428.8951,2428.426,1394.3868
-860.8781,1400.9978,958.782
-305.21005,878.14923,782.5155
219.94066,533.13403,541.7436
556.04346,129.16576,291.4347
888.5969,16.168613,166.27126
864.4946,113.09409,247.03609
637.589,76.458885,85.181984
158.0725,1189.8538,655.2919
-1629.33,5037.413,1201.5521
-2494.51,4917.7163,935.06964
-1734.127,1665.9382,397.3137
-1378.3376,524.7916,123.1357
-962.7379,-458.07425,-129.38144
-886.85986,-752.9187,-256.71545
-708.0194,-894.85657,-111.925224
-871.71027,-547.54956,-96.22495
-981.8839,-733.56,-204.54472
-1238.4652,799.5999,259.9245
-1497.5748,2467.1616,735.5737
-981.4808,3798.0632,759.1673
-192.45216,2751.0383,730.79004
179.46503,1327.5006,390.88266
396.7014,756.54803,190.22556
597.0031,195.60835,92.35899
783.39703,45.587708,48.72533
731.53894,-32.795727,79.99059
535.1695,8.487653,69.55968
606.76404,466.1089,18.783955
-12.578828,3356.309,367.66928
-1089.536,4512.696,799.7883
-1013.5851,2614.7253,642.02814
-914.30396,1106.7567,188.3491
-590.469,159.52774,88.559715
-649.9409,-496.4184,-224.64812
-562.43494,-1078.6656,-289.3696
-771.2745,-714.63043,-222.24774
-1067.0043,-592.00385,25.059448
-1740.942,1248.4595,524.5541
-1735.7944,2681.8027,1451.9858
-839.3276,2443.7354,1664.2892
-170.13744,1629.7107,1071.9694
253.33421,1062.7732,686.3741
423.71255,727.64026,463.81992
520.6607,246.95848,173.0506
803.7495,26.794373,-109.88984
765.9209,212.17502,-66.764046
611.30646,347.52585,135.66338
192.3685,1464.6733,617.6604
-473.97113,3422.5938,1033.4155
-1680.3422,3739.6174,1318.1525
-1484.936,2281.257,789.83
-879.8088,976.44507,408.50092
-736.1357,0.039851893,157.5738
-651.1762,-433.71347,-50.874714
-545.65875,-956.95056,-111.881
-716.8802,-790.3306,-177.24013
-794.3026,-677.62427,-40.96225
-1168.8357,647.5934,194.86642
-1633.4841,2487.2625,974.16986
-1234.9523,3545.66,965.9663
-350.13605,2370.384,746.64874
271.0679,1070.914,507.99814
659.5008,558.43225,398.03387
950.6929,-166.0164,178.0459
871.88684,-266.74307,-123.35904
720.38965,149.27591,-44.501938
336.6376,1029.2233,89.40632
-271.90482,2893.0994,366.40472
-907.35736,3801.635,520.54456
-1343.9077,2865.028,713.0394
-1130.0718,1670.0325,433.6692
-928.36395,551.0634,196.46628
-846.0154,-350.41843,-70.372826
-732.73285,-773.7531,-91.73604
-785.3991,-777.52124,-137.6304
-810.656,-848.3904,0.4998062
-768.63666,-113.33421,144.41924
-1272.371,1639.6447,715.44495
-1431.1066,3291.0984,991.0567
-638.11707,3050.5417,862.2423
-79.079956,1413.5194,689.1543
158.88043,857.13617,305.0962
476.8689,221.76918,133.10898
741.2823,-90.089966,-51.410824
784.1515,-41.600517,0.82798815
739.8192,146.73372,73.477974
521.88525,755.5655,274.94653
21.90094,2928.6753,550.6252
-824.48303,3648.1926,826.27924
-1290.282,2690.931,882.51526
-998.5275,1554.8867,482.54642
-777.5997,576.529,324.0244
-653.8856,-42.713062,85.20739
-681.06287,-636.217,-78.79709
-671.0857,-768.1617,-236.77417
-919.66583,-721.7404,-205.41241
-1171.5444,-127.02436,374.74753
-1422.4994,2169.5034,945.8649
-718.3634,2089.2559,1829.8322
-434.5042,1855.0486,1922.2032
0.4157644,1342.5565,1114.0634
259.5362,631.00256,557.79895
415.65292,501.9656,163.74965
565.2008,152.12868,45.00262
709.54865,95.86893,-284.8143
657.80005,222.84258,-33.270058
525.9163,446.7629,124.892845
221.18423,2022.5566,791.157
-391.99713,3543.0437,1457.2524
-1339.0192,3225.642,1592.5924
-1342.066,1706.6533,1040.6556
-1159.666,682.60626,679.3569
-790.3046,-315.15237,169.01399
-664.9479,-738.4456,42.46499
-474.10492,-939.2743,-116.58046
-741.5759,-779.1413,5.9148765
-828.9435,-516.4495,-58.784767
-1198.8239,1291.3832,837.2828
-1321.4873,2638.8948,662.47766
-566.1685,3496.1218,375.03958
-8.924973,2164.3586,499.99237
127.67515,1429.9509,177.22707
339.8736,524.4729,155.13556
414.66678,-136.39386,-115.50523
717.1699,-388.3942,6.6198454
673.21045,110.644936,225.73303
614.88324,66.18754,235.38048
330.89105,1041.0372,249.02127
-304.3058,3683.1892,870.9424
-1131.1868,3690.3022,986.0733
-1004.7373,2024.9178,752.74915
-857.8628,1163.6821,551.6808
-594.7701,81.281975,192.22783
-664.58923,-467.9402,-123.11032
-558.1155,-981.3164,-165.89836
-775.5713,-717.982,-206.47998
-874.5446,-765.71747,-78.17714
-1172.4701,883.0295,257.03253
-1527.6924,2204.091,1247.2524
-1226.7252,2376.7175,1736.8284
-582.3559,1703.9635,1374.414
-84.75709,1123.0747,1150.5106
219.10362,559.31134,675.78394
442.9754,217.79204,382.18222
731.3532,58.828682,158.68188
763.0422,32.27461,89.83946
685.78094,110.264946,53.444553
343.34235,1480.2261,783.39386
-396.4615,3239.4998,1567.4901
-1040.9888,3141.3567,1509.3188
-1028.9979,2158.0034,1093.6022
-815.1735,974.93787,465.84088
-669.6071,174.4111,104.480125
-632.1014,-537.7235,-164.42079
-602.8681,-936.5352,-237.15279
-712.31024,-918.125,-245.36322
-849.90607,-76.43647,211.63737
-915.185,1516.771,698.7359
-805.64575,2473.0166,786.895
-333.65192,2825.6484,921.2481
-65.399185,2130.5044,776.80524
121.407196,1255.3966,577.5295
310.2397,471.87195,240.10191
522.44495,-29.80945,52.82835
725.84894,-206.12868,-34.337452
707.65643,-59.34428,42.219646
587.8739,143.76434,80.6555
368.6213,1184.2725,436.22925
-134.89076,3073.9504,945.31366
-1019.9203,3582.1965,1063.1205
-997.4034,2231.6138,790.1215
-824.59644,1342.5308,550.8598
-644.91266,340.5188,284.04764
-557.00946,-326.62552,28.321491
-476.94974,-1009.16693,-139.25705
-578.6112,-845.89026,-213.39134
-765.2249,-748.9724,-77.58539
-1108.0609,546.28357,255.54434
-1777.4172,2302.6492,894.8019
-1261.867,3336.8174,1316.5319
-311.13287,2144.8835,1076.9271
70.8253,1048.3959,745.481
242.6581,490.36285,403.77368
517.58685,-33.628384,77.53853
740.0334,-10.386496,-16.518871
714.7779,155.97777,62.6236
582.1411,420.09525,174.72935
316.86664,1359.0337,298.63962
-75.52096,3250.9612,485.17636
-1487.1421,3975.3755,1074.3157
-1734.4867,2495.2947,813.6664
-1291.0137,1318.4495,402.2928
-964.0531,26.619585,95.80715
-692.51666,-551.50867,-118.38647
-571.6034,-1058.2313,-359.739
-699.07184,-820.80237,-233.52885
-810.5099,-763.99817,-111.876076
-1201.1603,839.1058,385.4484
-1434.6682,2332.3862,1050.0469
-947.60297,3008.341,1216.182
-291.14456,2112.8313,1097.4457
30.953735,1212.9823,749.21295
239.88174,605.25586,409.14728
460.4206,176.97968,263.02167
704.86237,-75.96537,93.403404
764.48596,29.484514,17.194094
756.07794,-16.285667,25.436338
494.17297,948.85254,413.34595
-404.10684,3715.0022,1203.156
-1399.6293,3921.3928,1230.5955
-1230.3585,2097.1855,970.1873
-880.5183,1021.5165,455.94562
-613.8905,-188.19595,109.93163
-560.222,-398.55862,-45.04106
-577.55597,-905.7285,-143.3031
-774.7189,-596.33093,-108.63072
-847.1266,-717.8092,-49.236267
-1173.2941,265.68652,395.27322
-1845.3125,709.2224,1116.626
-2474.2288,3150.5112,363.21802
-1285.797,3787.061,850.13416
-192.06773,1073.3816,442.33902
195.79291,733.072,-15.760705
460.81436,301.61896,-44.76742
832.84644,30.643036,-488.51617
737.9806,180.41728,124.29704
444.8525,499.5014,372.80692
410.29465,263.83307,-8.263712
-528.44324,2600.26,131.78418
-1682.3744,3867.7388,770.767
-1664.9359,2606.5754,367.08118
-1260.7828,1379.4078,-23.017338
-943.7873,392.7815,245.60365
-705.779,-421.54044,-51.862152
-463.36627,-1093.1324,-347.08328
-762.2773,-993.67017,-270.47797
-1018.83276,-604.5811,-128.0944
-1453.708,125.6088,-217.36815
-2178.198,1765.0762,189.67458
-2156.3137,3178.2134,684.977
-1094.3289,2582.0142,579.8987
-341.8101,1270.9524,504.78824
-42.50118,910.52716,359.77682
340.4484,320.69308,303.41806
864.14954,47.213024,110.679985
900.5859,50.77765,91.5059
816.5411,337.47552,67.102325
215.61743,1433.095,108.1272
-516.91376,2805.622,394.7224
-1177.2716,3500.253,776.10724
-2393.5125,2978.9468,774.6942
-2323.252,1743.5538,441.7879
-1579.7062,532.7566,112.53156
-915.3605,-599.7694,-276.16394
-517.084,-1309.1831,-459.8896
-480.09525,-1292.1932,-186.03545
-715.24506,-846.02875,70.76575
-973.3616,-325.7962,42.319805
-2129.1343,996.2845,441.73328
-2693.3442,2919.167,1200.414
-1743.9564,2556.1624,1095.2422
-755.1525,1263.3611,831.5328
-212.00792,788.6283,592.3492
400.37747,498.62512,338.00757
954.3284,465.62094,283.83508
1177.9912,730.6776,343.77588
873.00867,966.41077,261.06467
103.24855,1692.6073,413.74686
-927.83075,2788.517,927.32495
-2204.3843,3133.8315,1240.9178
-2158.828,2302.95,983.5604
-1556.5258,1395.3723,544.75195
-1175.2518,414.13583,-3.703853
-957.05756,-356.713,-346.21017
-787.6157,-884.60516,-520.2095
-911.757,-967.63684,-330.60217
-1050.016,-704.35516,399.00708
-976.06683,169.73183,498.6428
-1403.2887,1583.5332,1242.6688
-1456.1859,2799.467,2017.9093
-596.9737,2112.2297,1390.0986
-114.014275,1122.0397,959.6779
256.03735,687.6359,477.037
756.90784,357.51782,233.59068
987.7933,222.56702,181.0629
891.84283,354.0098,65.24264
663.32684,480.8768,69.55731
343.12195,1259.3304,730.0474
-239.2302,2633.6611,1490.7649
-880.7862,2820.6248,1723.6782
-1053.6324,2173.6316,1182.9729
-892.912,1056.4562,598.461
-785.4618,148.65988,-13.076294
-733.04913,-656.3631,-279.3366
-589.56274,-795.64124,-320.26385
-801.744,-724.50543,-172.65527
-875.39386,-557.57404,-139.87154
-1475.822,415.8776,719.8895
-2033.1102,2195.5088,1962.1107
-1362.4177,2377.1445,1928.6752
-665.39124,1181.2301,1356.6511
-230.87027,919.6082,1038.433
128.2977,524.8203,644.6149
545.5116,144.48312,374.7028
840.27783,54.708694,164.40504
833.6453,159.63536,229.8738
409.3935,597.012,307.63235
-100.564995,1229.3962,769.9705
-1157.093,2604.7842,1962.2452
-1977.379,2829.5803,1927.3865
-1532.9562,1547.0347,1166.078
-973.8424,849.64874,695.9298
-705.7391,43.82003,155.86423
-364.94583,-879.00244,-460.52036
-230.86258,-1373.0303,-744.8165
-616.078,-914.64343,0.18348767
-1138.7156,-496.33865,-233.90236
-2074.8088,1128.4647,357.6931
-2051.3506,1852.6294,1183.1932
-1258.5819,2360.0718,1371.9075
-707.5976,1894.9602,1492.2366
-148.13995,1247.3923,953.7069
60.08943,882.4617,733.0687
369.38504,466.76352,405.68225
612.923,132.10115,288.9757
819.8865,22.174644,77.65352
705.863,54.421516,144.97491
574.3405,183.7114,52.734924
-340.97366,2447.316,787.1632
-1312.2128,4153.7163,1713.8878
-1665.8464,2938.5066,1185.5568
-1511.0135,1509.2964,523.8367
-945.2497,506.12766,272.45605
-686.3241,-263.22452,-120.52296
-503.69675,-1042.1527,-419.68542
-535.7219,-1073.9792,-402.58972
-752.50165,-934.6298,-322.5645
-1113.4108,-213.83003,-176.17441
-1974.6207,1611.412,987.25165
-1843.2734,2836.5745,1594.9884
-1007.00385,2287.9485,1351.8159
-283.7828,1200.28,853.53265
135.49298,823.48035,639.7239
293.2249,464.5449,456.08597
694.51013,66.77142,216.07365
845.2878,196.30666,181.02435
759.64075,257.1943,305.9318
575.3881,652.3399,-203.50438
385.48306,1164.2406,113.5562
-2437.1973,4822.79,1694.3794
-3142.7385,3424.008,784.4736
-1647.0844,1249.9373,806.3236
-1252.3077,544.4286,452.57208
-813.5322,-378.50015,-115.54177
-563.5567,-1043.8896,-530.3293
-461.54102,-1150.8795,-339.25336
-849.9358,-848.8903,-139.43309
-867.0426,-690.2798,-80.06969
-1645.2793,489.23358,273.79575
-2460.0894,2404.4082,1513.685
-1748.3535,2907.2502,1534.4623
-574.85504,1489.5953,923.2821
-184.95988,907.4322,537.88586
274.38028,748.64874,374.3228
719.10095,426.4286,170.70193
1098.0173,227.22472,-44.803223
1009.08905,411.93594,7.943326
694.57465,580.0638,64.88034
-197.94212,1983.8724,607.8053
-1468.0923,3892.1848,1257.2787
-2518.0625,3233.5344,1406.611
-2056.99,1765.2079,756.50397
-1425.7406,676.0343,235.3639
-1058.2944,-168.37651,-66.82807
-771.1571,-1187.2048,-361.92944
-583.29724,-1354.256,-460.25247
-987.5275,-942.431,-23.316128
-989.02997,-613.864,29.171926
-1645.169,839.3564,734.6481
-1826.2454,2518.5234,1309.916
-1136.1476,2690.496,1166.1412
-449.81567,1572.6233,948.809
-165.98216,921.1256,699.41974
47.903934,575.60406,506.18747
540.82086,249.9587,337.66287
977.7359,126.234856,293.23837
958.94324,274.06186,91.922585
502.89743,633.22766,81.2035
-352.19238,2276.103,456.88385
-1936.6442,3689.5823,884.6818
-2607.0974,2719.6362,965.21454
-1879.4404,1613.3931,401.22665
-1230.5011,263.44678,-116.65573
-726.52216,-185.89148,-191.96756
-550.11237,-880.7198,-431.1315
-472.6135,-1038.5032,-490.1724
-709.7965,-744.8499,-167.16962
-855.3036,-318.6145,85.379074
-1623.9763,1032.5646,645.5381
-2077.2327,2711.72,1555.33
-1222.0378,2661.6633,1396.2458
-378.4746,1263.3356,949.9292
-81.76267,680.59357,623.4519
245.6526,478.40118,350.5697
501.4809,98.47146,286.5592
968.5276,114.60023,239.38812
1295.5289,-77.718834,-44.961914
537.5778,1198.6075,205.77512
-389.0437,2692.172,1308.1865
-1422.2504,3437.221,1363.2874
-1789.2412,2943.9905,965.80054
-1356.8121,1626.8751,627.8107
-908.6422,543.468,59.200615
-694.20667,-553.40607,-319.1941
-613.67267,-1073.5449,-434.11743
-727.6626,-1086.0195,-202.89987
-1070.4641,-871.48346,34.760574
-1379.7566,-257.96057,26.024664
-2359.6611,1781.1499,1479.6738
-2141.0923,2393.5774,2126.8167
-1206.6014,1995.9855,1684.469
-374.0412,924.31085,1021.013
3.5516102,744.1469,469.56238
372.87347,498.85767,364.15805
697.3261,161.81789,110.78712
1100.5469,-19.253082,116.14213
1094.4827,38.61795,26.554075
494.13147,805.0812,247.35452
-604.7099,3019.4836,802.91876
-1889.7372,3843.5864,1285.0017
-1739.7424,2626.0598,1019.1232
-1277.6215,1318.9607,603.0604
-995.21844,438.01306,259.8778
-843.9086,-591.77454,-150.4242
-649.2522,-1316.3372,-475.93933
-671.49927,-976.1444,-75.81971
-754.00256,-850.1407,136.28935
-955.43646,-20.644543,104.62096
-1670.8638,1172.9095,856.8776
-2124.21,1871.8004,1884.6298
-1569.0579,2444.5566,1662.2896
-529.42316,1281.674,1066.2556
-79.287125,915.9829,741.56024
299.2475,477.5946,319.91547
676.09607,206.5174,225.88226
973.35144,32.098557,-26.661266
833.15393,118.70958,-28.344738
545.81104,532.0368,176.03148
-407.57858,2575.3909,869.19385
-1655.9865,3994.5767,1107.9247
-1946.1533,2914.7615,1000.04205
-1448.7042,1521.0027,488.1117
-1151.586,367.1866,111.65849
-820.3316,-526.4785,-233.97552
-568.9544,-1065.1868,-368.69992
-552.6795,-1060.0933,-240.53868
-756.6933,-718.0735,-104.618034
-959.98535,-154.40215,55.880238
-1958.8577,1570.652,631.6844
-1776.5026,3296.2124,628.1809
-810.9881,3020.4517,495.29395
-277.99353,1588.4287,381.20554
136.24017,922.18317,213.2755
589.30365,193.47527,133.01576
835.1699,-130.82158,82.49503
763.87317,15.946803,321.05496
452.78314,119.33607,321.641
216.11638,847.49927,111.54355
-838.32794,3383.9387,386.90125
-1494.8936,3553.3953,548.8392
-1419.0602,2640.1875,362.23
-1139.9872,960.53156,23.973455
-636.8362,108.77394,96.08281
-654.3248,-523.39703,94.40277
-613.2139,-747.29706,59.46047
-690.9083,-720.9745,-35.482468
-798.42804,-556.27765,-61.679317
-1020.8797,-31.93419,45.689663
-1335.588,1625.9014,419.8742
-1475.2863,2965.6182,1047.4985
-796.63324,2644.268,757.6999
-51.78631,1198.6204,494.2456
247.03824,583.25653,388.8685
788.3532,169.72195,338.69293
986.1424,-211.3915,196.22038
840.844,14.41905,157.05418
643.8062,-103.208824,-8.296555
355.03973,1104.717,73.58499
-1530.3083,4601.468,1000.9568
-2371.979,3982.745,843.08234
-1624.6232,1972.9515,584.0651
-1102.4583,713.45624,306.7356
-775.306,-88.36884,9.96337
-645.83215,-739.98303,-187.92873
-391.98364,-893.8075,-284.0767
-528.1415,-721.2634,-145.51666
-646.6853,-576.1866,-42.34894
-989.7542,-61.44663,99.08883
-2207.0005,2030.0402,977.64685
-1874.0986,3051.684,1325.6779
-781.94543,2205.9822,862.06775
-169.37048,1278.4866,645.8136
293.22357,723.3159,281.5975
707.71326,303.85495,186.25714
1025.3844,-20.344347,47.135666
871.51355,162.6336,194.29137
623.1516,93.551765,-22.678827
20.722328,1545.9365,415.92383
-1615.2654,3944.5852,971.5279
-2635.304,3455.3113,965.30707
-2019.2456,2243.4048,718.3965
-1248.3124,890.8509,281.11835
-822.6615,-74.26186,-32.85717
-671.0424,-881.57916,-212.20905
-406.6259,-1319.2834,-362.61823
-648.4664,-943.74634,-137.7785
-865.0549,-873.3208,-165.1657
-1564.4469,774.0889,393.9373
-2189.4316,2972.2966,876.6824
-852.82733,3456.4897,678.43005
-245.42787,2404.936,779.7007
118.50891,752.03766,353.06183
442.18204,203.41788,206.4368
555.73413,-149.96658,120.3104
638.6685,-75.32804,134.8126
618.39795,-96.780876,18.588894
537.27783,378.69992,26.90409
-86.53701,2544.6118,212.69623
-625.9007,4457.869,228.81401
-1281.2174,3697.2078,436.90253
-1292.3556,1918.228,330.174
-907.14307,649.57245,228.17744
-830.7134,-226.31233,-21.198841
-678.9378,-1074.1904,-181.49951
-672.6375,-989.089,-154.5659
-931.9501,-788.56384,-135.01756
-1226.6316,-356.97614,-66.55465
-1823.177,866.0408,364.8372
-2206.344,2877.7742,1042.3115
-1257.7314,3155.4194,1237.0912
-441.93726,1823.4039,839.8548
12.938863,1024.6274,517.5971
356.7294,776.67267,370.22144
693.53986,252.02481,214.99571
985.3407,94.61696,27.964622
908.1777,12.589582,41.473827
609.4805,421.73645,82.6757
-135.01286,2391.853,812.10895
-1447.3276,3890.3025,1227.1383
-2271.6208,2749.1335,1070.0317
-1673.8777,1470.3846,568.44165
-1057.7241,551.5064,318.99994
-704.4229,-282.40356,-73.32375
-516.05383,-1014.286,-294.24194
-476.02142,-1009.8338,-264.8545
-829.8291,-915.9351,-169.2432
-1127.4089,-315.20422,-16.78083
-1927.5865,1336.1083,468.85062
-2093.2622,3024.022,1390.0931
-1007.68695,2587.394,1276.1531
-230.54086,1294.5012,808.4095
103.76667,882.10547,684.2845
443.8394,618.9972,467.99994
934.4963,30.592333,178.42877
965.8245,17.356293,20.005205
704.91547,185.93608,88.50569
161.83972,1475.1368,351.3096
-855.176,3486.205,896.8969
-2049.343,3425.7737,1053.683
-1916.3165,2116.0051,809.68207
-1283.4489,873.81854,318.8984
-790.9608,1.4898424,18.790789
-657.4127,-682.1786,-249.613
-507.73093,-1008.35236,-237.31844
-755.47046,-890.02985,-222.3226
-955.68414,-776.8486,-96.48159
-1558.7166,440.47745,208.57791
-2101.608,2232.8696,1015.73224
-1364.8011,2722.6116,1156.7767
-637.0717,1988.5752,881.5034
-122.85036,1033.7714,526.29175
158.08806,759.2266,426.79868
648.6749,345.6398,393.13428
1031.182,69.60933,293.92
885.2297,307.69916,187.48834
504.1856,763.23535,305.98648
-101.73403,2282.7913,-65.65682
-1516.2546,3751.8457,332.6824
-2458.7402,3145.7637,571.5921
-1750.0172,1682.7606,206.46994
-1118.5748,780.6032,118.074715
-765.6278,-117.12913,-55.819866
-604.83514,-900.135,-190.44914
-450.4647,-1191.3528,-267.01993
-815.33563,-901.4082,-216.16147
-1041.3484,-640.147,-75.764946
-1825.4272,1003.46234,251.67368
-2282.3657,2779.635,938.20465
-1209.9017,3048.3604,1005.0699
-317.81552,1941.3538,692.85767
161.74107,1045.015,353.94836
719.1032,680.43146,174.59195
1174.2007,158.12065,-32.21319
1056.9197,143.89963,50.229496
712.8448,272.21118,42.262012
297.09143,921.90314,147.96553
-987.4724,3467.3293,302.3976
-1955.9865,4101.6406,640.6987
-2045.0603,2603.7969,465.4432
-1491.5044,1316.6799,92.88
-1110.2587,27.454811,122.23791
-842.01166,-900.5825,-152.64192
-622.1883,-1386.4612,-108.50741
-771.2021,-1012.727,-1.6136893
-982.217,-936.0344,-117.34498
-1280.3243,37.80231,84.97856
-2221.6414,1611.4183,774.2121
-2177.7295,3394.3428,1038.6072
-1024.2894,2623.3352,991.1902
-274.30853,1195.9944,681.9519
40.182995,745.05206,581.59503
337.59888,414.92963,375.57715
764.07666,126.29896,118.68564
956.043,160.83937,148.53017
835.21313,181.40833,31.261702
364.7217,952.0155,262.6993
-782.82666,3455.9,805.5573
-2001.6799,4060.3494,1132.5709
-2196.202,2589.103,901.4442
-1713.3613,1304.8671,633.8055
-1123.1388,-43.664135,106.26455
-786.09406,-792.1356,-281.9192
-569.16046,-1384.2683,-409.12878
-807.87555,-981.46045,-217.29543
-1168.8832,-746.78815,-217.13571
-1724.2377,680.5619,423.23337
-2185.4407,1589.2378,214.308
-1701.7828,3226.5615,360.22296
-767.7129,3082.983,819.2023
37.55516,1480.9468,531.0808
274.0918,690.3208,458.15024
397.36746,215.82756,177.94281
575.37415,411.9721,242.85645
715.1957,591.9415,352.61478
602.573,603.73676,227.34691
132.20859,1209.037,343.7894
-505.66235,3104.627,288.54996
-1596.162,3894.6616,189.45164
-2177.9172,2856.3953,106.299065
-1777.6211,1387.284,31.718212
-1362.2782,24.425072,48.4094
-996.15485,-854.4457,-204.48077
-807.36237,-1305.5519,-267.9927
-924.80975,-1061.7617,-138.47556
-1130.1045,-902.7797,-122.83234
-1392.7052,411.6538,226.64519
-1928.6284,1978.4818,809.2112
-1301.8303,3494.9597,916.4058
-314.90155,3057.4536,790.60376
38.33724,1364.1781,369.4717
150.17566,775.83685,394.0659
547.98096,72.30565,200.01395
737.94806,-476.27823,-26.725998
794.57904,-80.71208,131.73714
727.9848,-157.10942,-43.999336
-39.282288,1950.0693,247.31163
-1366.2416,4593.083,664.45685
-1422.5828,3116.2463,524.0804
-1187.2615,1884.5518,421.48367
-689.2653,407.2909,98.37934
-567.90784,87.60717,138.52278
-609.35333,-1002.7948,-101.61283
-794.53467,-1053.2129,-32.112717
-1092.3829,-918.8202,-27.13803
-1161.3947,-435.75064,11.474135
-2052.922,1124.2798,367.15195
-2238.907,3281.238,1097.2175
-1233.7886,2714.3828,1091.4724
-472.48654,1337.3206,773.3096
-57.492207,744.0329,559.41113
235.63937,582.59015,502.28665
858.0007,356.08014,347.4058
1046.373,575.9774,411.41208
765.0497,545.3061,279.67084
176.57397,1004.07623,359.94196
-1092.8068,2874.7722,1027.5618
-2473.7617,3432.55,1268.8512
-2267.5107,2605.2017,945.74066
-1628.8551,1284.7731,419.65775
-1224.3203,-100.60096,-65.644905
-1037.0548,-984.30396,-411.83005
-558.86523,-1732.8279,-578.2963
-788.93744,-1035.0659,37.563587
-913.1684,-763.3502,-20.473574
-1315.0603,186.70825,177.10954
-2446.6853,2340.5935,1106.3812
-1936.4603,3035.072,1418.9457
-874.12134,1750.5316,896.2774
-409.3579,1109.7245,670.3576
27.892097,830.44995,476.63962
489.11044,570.5604,352.84708
981.8888,287.51083,185.13441
1054.3002,342.2439,242.62822
613.4902,881.83795,368.33264
-242.57455,1812.0026,823.27594
-1032.515,2173.3,1317.7213
-2012.7483,2594.0312,1899.8523
-2170.378,1644.5989,1406.405
-1447.1235,709.8809,572.65857
-964.3033,56.73703,69.85978
-730.3536,-522.74963,-187.63033
-567.45105,-1075.0381,-460.5431
-742.30475,-843.6674,-264.4956
-901.15674,-961.7635,-158.88239
-1372.8746,147.41422,-35.964428
-2136.5293,1855.8939,1143.2327
-1847.8895,2911.6719,1564.8068
-856.2278,2093.7761,1194.9747
-166.55963,1143.1401,866.04736
227.01102,757.7179,561.68585
706.1086,418.88028,440.85654
1064.0996,42.047062,180.6445
945.7512,161.7577,140.34665
587.5926,342.34085,166.98364
-197.83504,1904.3444,771.6644
-1571.4247,3414.703,1291.7184
-2165.3845,2522.4014,1186.6412
-1549.0858,1496.1766,807.2634
-997.8188,702.133,455.43756
-563.65173,-43.558605,24.210274
-411.08188,-794.46063,-349.28436
-331.89304,-937.5877,-345.30453
-650.72455,-837.84784,-189.71161
-782.0925,-462.96747,-108.42132
-1758.0613,973.6307,657.2854
-2233.3591,2607.3953,1507.1199
-1326.5,2486.188,1467.1372
-413.4266,1224.0522,1092.7574
-77.96453,799.61536,842.45276
365.95374,138.7041,456.8166
816.65515,-64.22424,246.17719
949.7334,-17.496801,224.88948
712.74615,172.34082,200.53168
375.75763,489.0828,420.0117
-688.4472,2689.2114,1330.6132
-1722.1615,3346.1938,1515.5111
-1891.0361,2334.815,1328.2317
-1524.7897,1411.104,839.81085
-1088.482,406.46616,277.0285
-808.60065,-362.00104,-93.14424
-660.1983,-1073.4042,-372.2283
-622.43317,-1237.7023,-447.79538
-863.8905,-981.7943,-149.9746
-933.4197,-508.33682,-111.67682
-2110.8984,1092.5736,538.7747
-2654.2908,2958.0818,1638.3502
-1438.499,2789.003,1387.1666
-457.03854,1402.6227,891.05145
5.7574816,995.4076,585.6852
485.7319,699.10065,425.62625
1096.5494,185.66742,188.00949
1079.6218,266.8524,86.7918
1014.3804,559.12195,65.341545
589.69586,2481.196,513.38654
-345.72876,3994.409,723.7974
-1300.9132,3790.6638,860.39343
-1575.8119,2816.9297,934.0669
-1006.18823,1274.2003,451.16714
-872.4459,539.55597,198.89969
-930.662,-86.68215,-100.25031
-1119.0924,-112.62594,46.383995
-762.9282,181.16562,27.310253
-54.730015,572.4904,280.54272
1123.8523,12.034447,713.69617
1480.6439,1624.0352,1077.1222
914.7601,746.1099,1329.6283
643.8256,483.51236,955.5736
449.9352,16.275934,102.54777
-129.69913,-301.84113,-129.41035
-200.44156,-269.99216,-448.93765
-185.1029,-200.56802,-433.20303
23.432976,-316.6828,-549.6949
-257.9209,-45.719463,79.09856
-148.70491,1645.4053,-34.571316
-316.6926,5366.4443,-825.29297
-234.34702,4843.0283,-367.88016
26.805933,2456.6667,-87.62055
-330.10526,1130.6912,139.63525
-439.0835,-5.7482433,67.60338
-602.8421,-682.4419,53.60105
-627.843,-683.7029,218.21005
-994.2584,-293.551,-11.192272
-1096.773,-64.0825,68.87952
-1310.0598,1085.3558,-225.63971
-1292.2997,3128.676,-37.52359
-589.23413,2976.2407,408.80243
90.61077,1779.5388,334.71948
339.71417,1006.1532,394.4623
554.79846,373.77615,226.12563
847.87286,45.686237,128.55345
747.897,-10.363633,21.355253
762.6159,-0.7038371,4.8431044
480.40656,407.13885,96.60248
234.23524,2114.1052,81.58886
-1864.4979,4288.5947,642.5332
-1984.4144,3061.2744,908.4259
-1168.9493,1160.7875,375.33524
-1115.0325,143.48857,180.49747
-620.1187,-404.63046,-118.55839
-712.6676,-788.97424,-220.9885
-1124.964,-763.41693,-803.7347
-1347.2496,-712.6468,-1022.7585
-1248.4312,133.5235,-79.906425
-1745.2147,1185.1606,679.4673
-2137.4343,2845.348,1515.3893
-1168.609,2488.3777,1252.6404
-307.8641,1298.7145,771.8791
-12.394067,900.1447,503.41727
325.98035,363.28885,312.57657
654.41034,126.392426,140.1437
773.9904,-119.60318,126.063835
579.94025,132.80379,109.50202
343.2233,561.32825,110.17179
-1149.2229,3895.7688,243.42412
-2965.1064,4075.848,670.9527
-2125.8162,1937.5264,582.31
-1357.2274,817.2097,-44.07445
-898.5401,-189.51279,-20.262188
-587.57025,-724.43726,-211.21005
-470.23413,-1265.9113,-207.83522
-682.2086,-1018.00604,-210.03244
-884.64197,-733.9888,-28.782228
-1578.1833,472.22546,114.685555
-2449.7512,2125.1196,631.49207
-1683.0748,3102.6638,1023.36084
-634.68695,2017.7299,841.9011
16.90746,1113.0951,608.4369
507.0211,681.0488,255.66219
984.02924,272.8178,32.4609
1026.3839,320.89938,-116.72075
846.6977,413.12534,-42.8842
474.16446,451.23044,-130.96371
-352.08658,2363.9004,111.91163
-1975.405,3973.937,564.5707
-2171.531,2746.3748,704.667
-1424.8934,1570.9384,406.93018
-969.8399,472.74326,210.141
-794.041,-469.30322,-250.92198
-551.516,-1555.4362,-57.437828
-585.41675,-1323.0254,-18.821476
-854.37665,-1086.0188,-106.757
-1681.6177,89.15964,45.651558
-2933.5796,2691.1118,820.9892
-2092.092,3103.468,1048.8413
-859.74634,1738.2582,858.0265
-264.63168,1120.6936,704.8524
129.51265,998.94714,517.7443
543.28906,317.74445,148.2805
846.0021,7.7963967,-185.6367
920.67017,154.37631,-189.24487
751.80334,367.12396,-115.78909
35.876556,2444.2231,568.14105
-913.5995,4199.3315,890.9195
-1716.3296,3991.028,694.5822
-1781.0337,1978.8118,402.5122
-1567.8577,675.95386,186.80463
-1328.2205,-474.28217,-10.814055
-1103.9824,-1355.5354,-353.5903
-956.6434,-1137.5759,-9.258337
-1108.4188,-864.80164,113.16671
-1171.8369,-494.80817,13.106995
-1887.3317,1077.1249,700.7443
-2336.258,3320.0024,1640.0281
-1356.3082,3445.5461,1501.5311
-343.78613,1583.2811,884.83704
20.51494,658.54205,388.24368
310.54016,389.73373,227.91608
668.5098,40.211655,76.88801
894.6461,-2.9368002,62.756172
782.08215,187.21321,-36.53112
572.6826,629.1482,174.54489
-247.88484,2791.568,514.4918
-1477.2487,4001.6287,812.9051
-1856.9736,3004.0461,1044.5114
-1426.8838,1622.407,646.68005
-1106.1602,299.64172,425.2238
-757.3932,-666.3925,23.980116
-785.4532,-1564.9226,-344.13263
-801.81287,-1367.9224,-71.55841
-972.90265,-885.2818,35.363995
-1266.1833,-302.03348,-73.616005
-2525.9353,1556.0746,1010.05707
-2428.4668,2491.4036,1604.6415
-1438.0984,2032.5316,1299.2803
-855.25525,1335.9958,935.2567
-371.9296,925.94476,639.2939
-17.843786,689.24506,382.80307
469.15768,373.26233,214.31152
751.6659,590.6402,202.9055
852.6611,469.28528,274.90817
571.9928,441.4348,199.75883
48.088272,1177.6948,678.0379
-1318.3518,3155.9158,1588.7079
-2663.0627,3141.0237,1445.6859
-2010.1683,1483.3307,831.47925
-1374.7333,690.9383,352.80713
-924.3901,-279.37408,-101.84693
-703.0026,-1241.7357,-433.39847
-641.7456,-1384.9252,-219.9974
-924.11066,-1034.0447,-178.63124
-1227.9042,-391.261,-101.34846
-1987.8926,1346.1598,671.6735
-2454.4065,3483.1829,1215.011
-1312.9159,2910.711,1400.206
-220.02109,1153.6339,762.3921
339.4946,704.9188,383.3766
727.56323,386.905,209.1597
891.28613,285.10577,207.96124
778.12274,272.50754,115.35855
529.6521,626.00134,225.48743
330.06638,954.2326,318.39172
-222.35027,2116.0452,763.6038
-1362.4869,3430.6228,1507.287
-1916.2325,2931.7078,1417.5266
-1463.2251,1368.1001,804.3483
-1074.5688,299.0526,195.26636
-935.8981,-469.06107,-116.34443
-746.2412,-955.471,-434.23737
-682.64795,-975.2917,-349.24033
-835.3633,-708.11316,-225.87576
-976.5178,122.49666,277.7787
-1389.0114,1593.5687,1243.3171
-1329.2072,2378.5388,1568.9165
-876.7482,2451.5835,1721.4971
-378.4213,1258.5656,1241.0549
70.638695,521.3874,587.85706
442.56458,301.28745,444.33185
759.14154,90.098854,311.97055
799.7102,-5.6310973,-1.4231167
499.01257,134.83382,189.61848
227.4421,661.6021,583.77704
-541.93646,2648.1587,1401.6674
-1436.0841,2934.2578,1603.6179
-1471.7183,1916.5148,1116.8779
-1305.7859,1199.4785,620.79535
-968.89984,301.71182,192.47923
-666.74744,-661.4071,-332.67047
-399.78165,-1023.67224,-503.12427
-608.04767,-823.8728,-231.715
-826.7215,-577.0047,-365.60675
-1217.0159,63.7855,-29.996378
-1746.0087,854.6369,583.8094
-2636.05,1962.8337,1013.67737
-2071.316,2024.7838,-59.84836
-752.4809,2052.955,350.56537
-11.197259,794.2982,233.99406
533.1535,593.8364,59.14458
1027.1562,253.26813,126.33221
915.06885,435.3667,95.50393
623.60187,419.1706,34.216347
-58.04311,1383.299,120.765114
-1377.8425,2991.9878,590.44226
-2714.7734,3789.5295,907.3872
-2590.8518,2402.004,717.6838
-1766.4558,556.3194,296.0591
-1003.11597,-644.2125,-153.18704
-587.7498,-1337.4485,-470.6496
-488.4821,-1343.0741,-337.09998
-806.5549,-894.287,-109.085365
-1076.0656,-498.95377,-145.89522
-1764.114,641.2221,415.6717
-2116.5535,1770.518,973.697
-1765.1556,2608.5027,1209.2894
-1004.7445,1668.496,1038.6262
-416.51462,940.6845,736.1039
-9.273339,482.70877,431.34174
570.0849,331.9257,253.57054
999.6166,247.68549,202.14026
988.4589,348.70764,154.21448
642.6479,345.4732,102.091095
70.98744,1501.094,422.48193
-1841.9823,3815.0261,1255.2395
-2847.0046,3586.6958,1190.073
-2182.9585,1830.9894,769.97864
-1495.949,548.1628,234.73795
-938.525,-396.89105,-120.41628
-630.18335,-858.0286,-382.22873
-490.662,-1151.4948,-344.84967
-643.22614,-818.06757,-168.23273
-900.12866,-575.62146,-141.19955
-1267.7672,-118.89692,-23.221497
-2689.0635,1385.7922,1054.4827
-2432.854,3463.3896,1572.293
-827.1047,2219.1204,1302.5864
-215.49788,1234.166,781.33215
244.61356,881.7443,410.47595
491.25934,450.96616,193.91487
657.36554,377.84235,65.40691
968.2751,496.92572,-53.33924
984.7785,594.4355,50.78872
852.7314,306.41843,13.592301
247.42021,1959.1771,476.655
-1324.9185,4569.151,983.34125
-2086.334,3559.799,1037.8999
-1539.8625,1559.47,435.97733
-1139.7959,391.07092,99.13562
-862.0643,-725.521,-238.5648
-695.54236,-1141.7461,-315.99924
-681.5263,-1156.9838,-171.1783
-902.0383,-674.3694,-94.837166
-1221.8567,-317.84927,-13.456039
-2588.2488,1950.4004,781.829
-2305.0708,3702.6565,781.42255
-665.0688,2857.138,599.30396
-132.23221,1489.4164,561.7623
306.90112,500.86017,321.02567
442.2082,142.3022,171.08649
598.9652,164.5692,299.35873
876.53625,161.40556,249.90941
982.655,74.733505,82.83577
535.70184,698.382,189.82129
-291.7423,2903.425,525.6273
-1539.786,3967.6826,742.0219
-1974.6396,2790.03,454.39554
-1484.0002,1636.8748,172.85756
-1150.8629,583.51685,58.63083
-976.0418,-183.73853,-170.21075
-807.1512,-1117.1465,-330.9041
-804.2626,-1012.28516,-206.0126
-903.77313,-803.18854,-75.306435
-1026.8674,-232.81775,-8.00637
-1954.9058,1884.256,948.052
-1861.928,3114.539,1340.6123
-775.5684,2410.8486,999.11566
-168.81125,1388.5187,687.3057
193.4786,856.7082,444.4042
610.06903,314.04147,165.19695
1203.1073,-191.62062,-103.85372
1086.5894,139.32535,-38.544937
791.84515,187.65384,95.93991
-8.627428,1706.7628,390.44077
-1033.3188,3920.363,885.5647
-1822.2516,3819.4504,1125.405
-1948.7776,2303.76,754.2959
-1412.9156,801.18567,255.26944
-1130.1244,-357.82343,-182.35265
-865.74615,-1086.5974,-325.94434
-504.21692,-1185.7012,-197.68901
-660.5555,-853.82196,63.423443
-782.2958,-553.87415,59.099083
-1413.9379,212.07172,267.0258
-2595.7654,2599.8137,1223.1932
-1956.5337,3409.6243,1383.3313
-746.8226,1567.5592,860.2446
-218.95828,920.5376,547.97534
162.14955,576.4178,478.1219
714.84216,146.24054,187.22769
1149.6401,-64.048584,61.42433
982.1319,315.9825,162.9853
638.7644,479.42746,232.3498
-458.14383,2778.36,815.41693
-1871.328,3742.1619,1261.1123
-2195.9404,2591.5603,1104.4678
-1897.4233,1591.3772,662.609
-1212.4792,458.27072,181.42361
-777.46185,-436.9241,-280.73434
-614.86304,-1339.2115,-579.97845
-649.66815,-1263.046,-312.59723
-923.1872,-995.15533,-141.92952
-1428.2972,-231.39554,-39.68245
-2591.8645,1217.4573,505.95807
-2593.6885,3330.116,1499.969
-1201.923,2269.0342,1164.3137
-445.25726,1221.7516,852.7395
-139.64326,939.8919,714.8808
252.5394,494.2483,403.1758
891.2726,132.3957,237.46603
1262.0359,390.76944,449.77945
777.9476,555.367,555.3649
-92.2631,1442.7562,719.02826
-1124.491,2849.0066,1134.6477
-2135.0232,2945.8452,1284.1523
-1974.8236,2145.217,749.2473
-1288.4817,1080.8024,344.26767
-871.7236,323.43274,1.8121206
-597.02313,-101.34575,-96.49948
-724.4658,-472.20303,-38.145386
-955.3291,-747.5841,-249.43472
-1070.8027,-811.4356,-377.00534
-931.0039,-194.58888,-7.0921717
-1056.7148,1255.9073,924.27484
-999.8907,2468.5679,1750.9282
-642.5317,2443.858,1867.342
-42.538864,1042.2031,1263.727
247.9077,513.9678,652.07874
525.68,98.37376,308.9333
769.5842,39.58751,157.23378
882.70496,41.895058,130.93416
526.0551,396.88724,279.40152
150.54665,1248.5698,911.5907
-1312.4453,3960.364,1377.947
-2274.5303,3149.3977,1199.9475
-1276.3153,1514.6405,762.7579
-990.11646,700.15045,413.73062
-864.9426,-109.13869,47.401043
-804.4577,-853.2215,-395.9622
-766.71655,-1145.5803,-542.899
-790.67004,-991.01483,-245.73659
-883.18756,-212.12613,52.199944
-1837.5087,1643.4519,949.5943
-1767.5461,3141.0544,1630.9349
-738.3397,2204.16,1308.645
-68.58197,940.8917,857.2
247.79617,554.93646,659.4207
548.53613,178.5966,406.307
830.6671,-140.87532,91.2065
857.20856,33.73829,17.888296
720.73486,100.03791,14.729486
199.8316,1958.374,746.8312
-670.87836,3856.407,1367.3925
-1340.043,2800.1338,1351.6549
-1412.5708,1753.0009,1032.4067
-1071.0516,413.86975,482.48242
-772.4467,-539.0141,-148.32787
-668.9227,-1355.0972,-545.0599
-835.8042,-1260.1116,-155.76247
-1142.6495,-1067.4478,-142.047
-1660.9446,-134.43404,59.734814
-2415.0605,1470.5026,900.7194
-2082.5667,2802.8384,1445.8297
-1205.7738,1977.7297,1182.9482
-339.63226,985.4873,663.9725
77.419716,939.89777,558.3962
587.3627,610.9172,303.506
983.78265,587.33887,353.02664
1035.6517,489.05643,314.6423
618.9031,701.08325,243.1107
162.67062,1136.1511,308.8026
-1103.4546,3415.3691,1060.9589
-2819.777,3985.978,1140.3893
-2583.795,2313.024,813.1903
-1878.6306,1063.95,449.9402
-1479.0656,29.589733,7.7170877
-1125.9144,-975.1532,-500.7787
-877.80206,-1637.0272,-804.0454
-988.52466,-1309.3367,-362.7853
-1106.5695,-747.40173,-355.71103
-1463.2861,543.51373,612.87036
-2267.12,2803.9028,1987.5208
-1547.452,3073.0894,2047.0295
-402.9772,1472.5242,1168.8733
63.429485,1010.44763,714.2234
214.48196,596.9967,385.15985
615.7367,192.57394,288.66162
872.6183,6.975721,377.86655
939.2015,1.4271502,328.67297
603.6814,9.867616,136.72972
317.0992,1212.6355,235.37244
-2087.0332,4335.091,1572.0541
-2807.5178,3530.888,1081.8632
-1654.5835,1269.1625,548.2354
-1182.0042,457.70963,269.52646
-777.53,-302.7545,-1.6063662
-654.07666,-972.3569,-321.73022
-576.70557,-1212.4541,-441.96024
-960.9985,-872.77563,-220.82436
-1132.6028,-565.991,-325.1193
-1984.7598,892.2508,388.08896
-2168.754,3105.892,1451.5511
-1115.8712,3069.978,1294.8932
-248.28162,1513.3029,904.51245
128.72964,894.42145,637.4223
388.13528,334.38406,355.35327
730.017,100.894646,80.41016
864.3182,14.666692,94.54634
790.5605,117.69967,86.273445
571.51086,277.82468,129.05724
-379.71396,2938.4993,938.6009
-1967.72,4191.209,1300.7091
-2110.0156,2437.736,1082.1046
-1503.6123,1147.1234,620.0191
-1096.4666,239.16919,236.55841
-792.75397,-552.58307,-89.697495
-578.8861,-1361.1365,-513.9356
-640.54895,-1037.5337,-265.44473
-830.0792,-765.3612,69.279655
-1171.0581,-98.78476,27.396193
-2285.0183,1939.4169,915.9824
-1809.7976,3390.3005,1434.9598
-671.9088,2252.7815,1022.3873
-219.7528,1133.7375,706.0223
124.94861,776.71246,462.73392
