# PAMAP2 dataset (wrist-mounted sensor)

acc_x[mg],acc_y[mg],acc_z[mg]
608.254,323.24625,308.72525
996.14417,92.77204,275.2654
915.6725,0.5264134,184.40839
706.1448,6.399015,64.96386
210.92812,1393.5773,603.2209
-726.0512,4114.8896,1394.3582
-1558.7476,3300.0122,1663.1902
-1464.3951,1329.3524,1012.1187
-997.80475,618.4143,367.43845
-774.36487,-8.868522,61.31982
-658.0118,-935.478,-279.08228
-643.27264,-1161.2681,-470.55225
-867.5391,-952.0379,-188.9977
-939.05273,-575.2932,-145.35939
-1993.9204,1344.6006,788.04517
-2290.4429,3077.7922,1874.1442
-1016.3522,2574.6772,1370.6396
-309.74313,1422.2878,1024.7058
166.69647,1081.6829,690.688
401.77063,543.5313,561.2959
910.5656,-19.820454,218.75586
969.05225,-23.879652,209.0376
799.4279,78.457146,177.62924
281.45673,1002.54095,503.73267
-549.9027,3002.149,995.3657
-1469.2112,3252.883,1151.651
-1697.6028,2329.778,927.2374
-1317.3984,1304.682,461.66913
-890.3972,262.34613,-1.988631
-648.17676,-453.44376,-243.20512
-525.5333,-991.0842,-286.15002
-695.0355,-931.85565,-162.67053
-907.1228,-917.1522,-209.06819
-1402.5486,405.44354,404.69666
-1787.7148,2112.845,1313.471
-1272.0376,2330.6023,1553.9021
-766.7909,1530.0603,1280.0618
-247.71768,951.28345,937.1878
63.573647,603.8948,690.6508
465.14792,84.27489,415.08304
780.62695,-132.37598,279.33673
752.5516,-8.84014,307.07184
503.3092,58.583614,308.0511
-178.32341,1511.7031,881.72485
-1388.2799,3334.3372,1449.2799
-1956.5281,2379.6455,1132.4205
-1688.9277,1475.2584,820.5167
-1140.4132,424.20413,197.42607
-663.9607,-276.71198,3.0617468
-456.7696,-756.2109,-235.36972
-373.9359,-922.22546,-245.1869
-572.38605,-816.7882,-213.68663
-759.93396,-516.1698,-142.08803
-1568.5005,124.10737,132.72142
-2899.5808,2245.9558,1183.7736
-2180.4224,2936.3577,1272.1743
-789.50757,1447.0133,897.01526
-158.90462,730.11163,681.73474
295.0549,448.66214,635.8473
942.1402,103.93438,468.41644
1084.7189,9.425272,205.79727
824.396,225.42596,218.02751
326.41537,732.2901,68.56691
-784.606,4043.6477,495.52808
-1443.7567,4283.6963,744.5111
-2259.155,3400.2021,481.8915
-2101.3755,1423.6481,237.4239
-1285.9474,-137.03508,-169.33514
-910.14825,-1293.4094,-464.88687
-638.2028,-1496.1987,-260.63016
-623.9033,-900.0906,-13.528123
-894.3884,-624.8644,-112.23402
-1303.5898,-213.67351,16.381796
-2413.5564,1194.3898,546.1889
-2576.99,2860.7866,1278.7458
-1601.0624,2171.3826,929.5946
-825.60547,1252.2345,782.79407
-422.22037,848.8234,621.59485
86.56559,467.10007,364.83945
738.2009,502.17032,367.7344
1213.4905,813.0671,393.82437
855.05225,979.71063,372.64682
185.52701,1542.1885,258.52182
-1142.4912,2394.993,556.0856
-2640.38,2694.7185,722.0713
-2354.7236,1636.2905,413.94757
-1707.0636,736.6605,231.4417
-928.4945,-29.746534,71.878136
-412.20786,-812.6235,-272.0281
-222.87445,-1087.6733,-205.6291
-505.07574,-786.36304,-14.822295
-757.86884,-632.2359,14.922249
-1349.612,7.6322894,91.0177
-2313.4734,1183.5302,694.26935
-2299.0427,2387.5254,1116.6838
-1355.41,1691.0321,844.69763
-708.5925,951.36914,749.5798
-258.6008,749.44666,487.17535
593.62115,589.9085,400.1409
1218.5195,460.3322,375.63654
1103.9956,552.76935,342.0365
394.66995,946.39954,355.55972
-1.9867333,1708.3575,258.28848
-1430.1469,3399.0305,521.7712
-2902.126,3485.879,403.54507
-1977.2347,1860.9465,-135.21288
-1472.0486,828.7473,-202.98347
-894.9716,-229.38399,-464.8786
-703.91266,-934.63446,-482.93515
-596.963,-1159.6715,-386.27045
-869.3112,-793.4143,-101.88851
-983.54535,-596.06775,-68.17112
-1621.6226,604.52344,314.32742
-2312.107,2546.7483,991.3954
-1623.7297,3111.174,1214.3566
-586.5312,1595.8477,863.13165
-175.86995,1048.05,630.5472
137.7903,597.41956,464.31424
703.72095,240.53851,217.9788
1029.0199,-32.42981,116.14247
963.068,216.4849,177.19499
822.60315,134.95438,-3.5856493
-24.589355,2228.3154,466.103
-1311.2028,4278.1724,972.0396
-1956.096,3340.3027,864.51117
-1850.5465,1913.1302,572.6495
-1575.6117,635.547,186.1681
-1113.4584,-313.6227,-19.393448
-882.15576,-928.87524,-103.250725
-667.5949,-1257.1147,-86.73247
-797.5662,-851.92737,94.78869
-762.2937,-606.39465,41.956005
-1158.6154,509.05615,330.29404
-1819.0518,2255.544,965.56744
-1376.3855,3349.3384,1060.2893
-599.3939,2267.2168,987.90576
-174.69572,936.33075,608.97614
85.714294,501.33273,458.31186
532.3991,153.89603,276.79346
866.75415,51.02413,177.26663
868.3176,59.062706,197.06895
694.97424,181.11562,100.57265
301.438,1074.5897,266.61148
-848.228,3607.8064,978.57184
-2011.4282,3481.3887,1049.9181
-1705.2158,1808.4517,669.2559
-1252.0613,943.9765,417.36954
-868.4817,23.078125,134.11406
-623.4797,-661.8658,-148.57986
-383.31775,-1078.8733,-212.55885
-539.6596,-756.6781,-57.92612
-711.94006,-678.2715,-39.659718
-1241.7087,318.4334,171.73375
-2245.0398,2189.6394,1080.3466
-1579.4824,2962.674,1134.829
-643.5994,1804.9529,989.5299
-206.09888,1064.1049,780.7414
3.6883128,566.39044,657.9092
605.0967,92.02611,235.87584
969.3855,-77.62124,34.900597
861.3177,258.79846,94.42757
547.8595,352.01718,166.09908
74.236694,1811.7626,373.41864
-1033.749,3631.461,720.8964
-1901.3778,2995.0503,748.02216
-1452.6892,1658.386,341.03757
-1142.8646,776.9686,166.81557
-740.7111,-105.0979,63.913853
-451.123,-787.90173,-83.19946
-355.80548,-1092.3058,-118.001724
-608.1834,-723.42737,12.83322
-780.6818,-600.4719,35.92983
-1616.5834,647.5551,322.32373
-2476.9004,1778.7825,1086.9512
-2043.0471,2002.6409,1305.9636
-875.1041,1682.7578,973.42847
-272.49008,1278.3765,897.6729
147.6589,857.9077,493.25818
779.3037,414.8991,314.21484
1120.9796,242.65019,246.41217
897.92346,338.2661,347.09552
374.5282,571.6978,296.5623
-239.6269,2062.847,433.0246
-1190.6166,3398.118,748.8519
-1901.4982,2867.2393,781.5458
-1760.7689,1949.975,406.2471
-1339.9357,767.76135,143.60872
-1050.0466,37.699112,-108.95261
-894.5304,-866.791,-284.648
-697.6396,-1195.5176,-317.4331
-896.40564,-1004.29504,44.924088
-819.34564,-819.0907,47.77888
-1466.5647,507.4218,448.82962
-2201.945,2196.1284,1434.2426
-1668.5691,2795.865,1466.265
-838.96204,1611.33,1072.9609
-211.81093,923.31726,807.28705
39.69058,543.698,608.04767
659.84705,158.60632,380.77695
959.54913,16.984388,277.7885
947.27216,217.17708,249.49135
519.0743,296.32193,148.13153
-76.370766,1978.9995,566.89685
-1742.9645,3820.82,1374.1915
-2440.8467,2684.5244,935.18726
-1879.0211,1487.4924,666.2887
-1527.6984,665.3457,371.21628
-1059.1548,-83.15663,14.99351
-783.9722,-1023.14905,-424.88803
-580.0265,-1295.0685,-432.4223
-850.1661,-1021.9804,-75.36543
-905.9764,-591.47705,61.084976
-1484.5353,623.0524,585.52795
-2299.1187,2102.7334,1271.7361
-1751.5327,2772.9702,1400.9803
-692.715,1667.2637,1127.2139
-234.17255,988.39374,865.17694
189.48984,516.9624,545.5648
805.67505,307.1716,340.75204
1123.5793,-48.886055,112.39967
1063.203,390.28015,-115.05897
671.04456,533.41156,121.67561
-362.67276,2610.5886,227.63313
-1771.3029,4215.2324,558.693
-2171.6174,2664.3562,843.08246
-1721.8962,1569.2445,484.49203
-1352.4911,474.41034,0.581151
-1046.2986,-423.54288,-157.2671
-844.4074,-568.31195,-75.29345
-600.51025,-950.1047,-147.90712
-809.8597,-1120.7231,-35.624928
-860.71234,-682.4182,108.63687
-1524.8672,530.1716,298.6383
-2543.8093,2344.5156,907.7152
-2004.8262,2945.3364,951.6772
-806.2372,1909.9116,447.22333
-297.07004,1016.3134,373.794
260.80417,732.27594,227.7945
1050.9053,614.024,365.48016
1236.1498,311.51932,376.62595
784.63574,351.5988,333.7972
438.8366,470.9892,-6.256701
-578.4053,2470.0637,251.53075
-2148.3772,3704.406,549.65656
-2089.9365,2500.4558,443.76605
-1530.4717,1539.1106,266.92892
-1251.9453,679.3225,209.82262
-1014.5001,237.23848,28.34334
-927.3944,-886.9191,-242.7939
-669.37695,-1304.6947,-373.48846
-817.4322,-1022.6384,-143.85094
-765.93304,-647.8526,254.39072
-1368.3242,456.74957,446.06747
-2174.017,2508.2288,1179.9131
-1410.4355,2738.117,1315.48
-475.84512,1596.8041,787.05273
17.230843,1114.4396,538.7213
427.76007,826.25714,310.8597
641.8138,198.99936,271.88867
782.18445,-40.726067,126.24772
701.66693,-5.878317,139.35571
422.8393,414.62073,244.96461
-94.19782,1703.8641,394.34662
-1181.7416,3577.2805,572.07947
-2041.445,3152.8276,808.5001
-1495.5765,1564.348,409.41516
-1040.2146,726.409,218.3187
-721.5454,112.75325,53.706245
-625.69885,-306.8669,-31.05451
-554.67957,-715.22864,-228.35136
-667.73627,-675.7857,-257.3237
-799.47473,-316.15787,68.20887
-1055.256,624.2147,536.8535
-1201.5964,1953.749,1024.5717
-818.1564,2416.2468,1397.3612
-314.35315,1600.283,1013.6719
-48.423416,940.36884,816.9168
212.36336,459.03113,461.0921
485.33582,118.63384,434.06033
762.17944,-209.03807,291.43597
862.5723,-51.64937,207.43193
686.6121,-113.7893,-5.9642234
465.12616,1524.4126,564.6144
-290.3955,3900.7993,1234.2611
-1197.8369,3105.8538,1272.7993
-1251.3229,2027.0162,1021.49396
-1076.4908,750.7951,438.8399
-752.5426,130.50227,199.52274
-678.6488,-472.3761,-61.92325
-616.1732,-891.5091,-307.89056
-753.5037,-887.9222,-272.46396
-790.79443,-547.78894,40.506252
-1242.4274,951.6907,874.99896
-1641.436,2488.3044,1881.5365
-853.2646,2656.029,1767.9111
-30.591593,1572.2996,1307.613
255.3348,914.3576,778.8145
454.20245,605.5429,404.69513
567.5711,127.9299,186.15385
759.1757,11.906576,-40.92843
652.22424,-80.94222,25.518042
643.25836,-121.59758,-95.42852
371.7001,954.8803,818.04083
-112.12991,3010.0164,1996.3202
-683.9203,2672.487,1821.6143
-658.1517,1391.1697,1298.9508
-520.80554,898.0553,801.6552
-418.29425,197.68533,356.66855
-509.7945,-261.77448,-66.7642
-593.50586,-383.0755,-160.02327
-782.9314,-556.542,-351.28125
-749.95044,-283.9158,-18.873104
-891.43787,692.2011,829.5309
-1147.051,1742.6226,1909.3899
-638.9268,2226.1973,2476.5488
-172.99947,1038.9935,1721.3777
172.50668,515.5947,1001.8191
356.95456,353.60156,435.47012
567.3728,154.01627,28.260136
753.2306,133.62802,-120.931335
741.53345,-33.863007,-60.585926
717.39716,78.738075,19.387274
539.7194,1296.9589,978.2198
-7.6509123,2551.7527,2085.5222
-712.85443,2429.77,2218.5337
-746.6716,1523.0034,1633.2548
-549.4117,683.28973,893.50653
-439.26254,206.23993,291.44955
-470.89,-321.0326,-125.19072
-455.28625,-511.45074,-246.72185
-556.43805,-532.1799,-280.36823
-624.0285,-172.75154,51.65836
-863.04065,1165.9114,1153.4276
-1198.6138,2124.0786,1877.1178
-642.47833,2101.6753,1968.8857
-15.190551,1162.0972,1317.9215
460.9547,721.07135,789.99896
703.29236,427.68198,362.34677
887.03265,130.00403,179.5444
929.65845,36.7625,-29.096937
817.8073,-109.304405,-20.253683
588.5791,101.02549,-6.2636533
580.45746,1278.7168,880.98804
-581.4431,3534.4836,2218.6108
-1510.6285,3055.016,1920.7583
-979.1805,1289.5219,1042.2842
-668.3254,552.97736,609.4863
-472.58005,-52.860703,134.98308
-448.78375,-648.2041,-261.73227
-483.32898,-724.2709,-251.29945
-624.1821,-632.12634,-207.75642
-844.5369,205.14223,329.47165
-1266.9745,1579.262,1100.107
-1112.8501,2049.7031,1822.8608
-549.50275,1935.54,1721.5966
-108.19637,1071.4417,1198.5582
202.78888,613.026,695.8906
309.74384,246.1088,384.89764
599.1302,59.116737,174.51752
712.9367,67.03429,116.78823
691.5725,60.351845,90.926186
515.7402,584.5659,387.02832
184.29913,2492.0813,1055.7961
-786.1851,3787.7307,1411.7156
-1319.2537,2674.224,1314.3724
-1034.2489,1402.4923,715.6813
-901.7878,562.2049,417.14676
-765.50586,-204.82683,27.172213
-653.4063,-970.6497,-242.607
-637.07684,-961.1276,-308.78586
-775.0608,-909.5846,-53.64287
-1060.5205,569.7422,398.939
-1501.4645,2258.208,1372.5908
-1017.31604,2720.991,1499.3156
-436.0217,2152.4883,1177.5435
56.909454,1074.5898,714.11914
328.97418,712.31384,330.31003
584.3196,195.72684,260.83957
768.0893,76.79102,157.26878
811.10034,-11.965897,181.9562
642.0467,210.72202,174.48041
369.34647,1080.5175,644.8642
-450.84262,3290.4338,1167.3667
-1388.3323,3382.3403,1256.6201
-1156.0929,1829.7546,836.74005
-835.79724,922.6352,412.00586
-620.92035,221.44965,167.13103
-545.2876,-332.76013,-46.97651
-579.57275,-727.3335,-134.54224
-753.34796,-474.66077,-76.1819
-838.0315,11.405013,270.58383
-874.86066,782.7205,416.48474
-1025.1813,1818.2881,1488.5128
-630.8076,1959.2052,1626.2925
-215.33179,1398.7932,1195.9705
125.601494,840.1087,820.691
226.76514,526.2601,594.43054
390.7142,93.3642,414.94684
655.47516,-158.33824,104.660286
721.5941,28.941168,69.070816
618.54724,325.84534,223.07368
353.03412,1275.1674,711.398
-328.5286,3037.034,1274.1876
-1079.0897,2928.5369,1370.3566
-882.68524,1760.5311,850.079
-714.4515,949.3406,580.3397
-526.54156,299.40686,221.49944
-477.67545,-434.71658,-57.07752
-408.69574,-719.4274,-249.70413
-612.36676,-664.8871,-192.98334
-765.9174,-431.4959,-50.21561
-1367.6643,1296.1216,623.81165
-1577.211,2526.3525,1352.0159
-816.8083,2462.6587,1350.4099
-261.7984,1553.8018,991.7176
206.60216,950.2954,655.4432
429.3291,645.0729,482.51483
717.683,104.22624,277.4044
849.49927,-35.724285,65.134125
815.0618,89.35603,68.81259
654.4689,462.58838,131.44833
308.35504,1790.5608,444.45737
-493.58282,3426.56,635.11285
-932.0695,2842.8542,751.0215
-746.4433,1796.0587,566.1443
-638.5851,878.0029,314.73056
-533.808,214.13753,73.5699
-561.8903,-301.42783,1.615621
-533.99255,-482.85107,-40.08268
-613.787,-624.3865,-133.05556
-662.0706,-304.7404,115.11271
-989.5468,1415.3531,727.06915
-1087.2902,2862.0076,1164.8857
-359.84485,2928.7407,1048.8679
124.67112,1492.9213,792.38916
312.8962,739.3342,440.19064
422.8043,181.27606,275.356
455.5428,-251.42308,146.0176
484.6734,-240.83717,132.83795
500.55713,-226.64737,120.7668
385.02274,292.65875,233.92096
262.80554,2038.8398,318.4379
-455.69803,3958.8242,522.96576
-982.24274,2886.3997,642.37646
-804.2562,1516.3652,330.42236
-792.2068,564.2152,192.26746
-622.62213,-75.173546,136.23994
-464.81454,-693.6514,16.308088
-427.32822,-797.0327,-145.95184
-640.16003,-704.1217,-118.53734
-784.4359,-144.98294,26.121458
-1664.9874,1439.32,358.5224
-1812.5376,2835.679,1250.5574
-1127.7206,2604.076,1211.6722
-400.82925,1283.3663,762.1222
-102.941605,791.43774,520.96765
241.34749,338.65073,334.17258
650.31885,133.84763,314.99683
817.127,41.176174,292.60214
612.0348,273.91504,269.486
364.95303,1016.6241,411.37088
-430.81378,2974.894,831.89703
-1569.0435,3370.1846,1295.4952
-1461.4388,2030.9036,815.0298
-1101.4972,859.5752,281.02985
-772.123,85.89557,81.31857
-566.3961,-544.9102,-50.8589
-437.8258,-954.16034,-254.17168
-518.63055,-857.4129,-238.27075
-738.15906,-452.76978,-43.78255
-1378.0618,1070.399,813.1803
-1948.208,2864.394,1279.8208
-981.9733,2541.3257,1116.8402
-335.0762,1500.2861,939.4482
31.220545,932.9159,465.10336
331.16397,549.95886,289.56314
664.19855,118.72361,149.85912
842.03754,84.57296,129.85124
831.54675,102.891716,124.67128
608.03235,421.08298,185.1259
104.526215,2282.7803,568.8765
-675.2209,3766.3867,964.84125
-1353.0156,2986.7805,1157.5358
-1378.5068,1615.3083,748.5065
-1098.0203,666.51654,322.93475
-803.22076,-245.71617,-59.104237
-664.1309,-612.8363,-209.23297
-608.85767,-761.7191,-140.44305
-713.31866,-692.6296,-104.44264
-796.5197,-462.28943,88.19189
-1355.4072,1308.2739,821.1796
-1822.9417,2297.8997,1283.7057
-1111.0447,2621.3503,1383.496
-316.10907,1392.3961,1189.7528
96.484764,728.41534,844.49164
393.79437,285.5756,515.771
771.9953,210.40892,242.31728
845.37775,190.45201,145.4493
728.37115,267.65543,151.3752
409.06287,745.98267,285.77893
-126.9836,2178.3796,646.66595
-1194.516,3837.9246,805.2028
-1603.0476,2584.0222,966.38196
-1073.9303,1275.5472,481.34448
-962.5303,487.6156,211.12157
-826.5753,-621.3035,-86.339615
-648.8821,-1147.8447,-311.37784
-608.184,-990.01935,-173.36212
-756.5986,-806.58234,154.06963
-1061.6956,45.72861,193.6601
-2347.0862,2189.4968,1034.4191
-1888.921,2930.9895,1429.435
-760.3933,1975.883,831.1042
-201.61272,1165.6974,695.7902
47.930622,898.0316,338.9084
621.805,436.19077,190.97932
980.8395,234.33086,59.770172
931.419,55.99766,63.598904
591.78107,410.12537,108.744446
194.48888,1132.5083,264.43918
-1169.7992,3736.4324,639.6499
-1999.7489,3370.6328,991.0094
-1461.7704,1611.494,538.00714
-1029.8419,698.6902,258.59833
-721.9993,6.448074,134.86655
-632.72687,-594.58325,20.244818
-559.7646,-993.5519,-205.91168
-750.65356,-819.947,-186.51056
-879.20294,-548.3452,66.5757
-1623.7275,1153.772,605.4515
-1911.0715,2638.6143,1368.8739
-871.42053,2601.5527,1243.6285
-286.07434,1463.5061,797.3534
24.997705,899.53107,515.21313
288.59134,442.63455,359.05838
742.1569,63.953075,251.39308
915.9648,-147.06284,33.96996
771.1769,-169.9409,46.3612
649.8307,209.97571,-110.537415
-334.01675,3509.7021,971.9121
-1464.2021,4546.0376,1274.5405
-1432.1034,2495.1528,742.03937
-1117.6805,777.3341,343.98032
-890.5423,-14.090146,127.680664
-763.60596,-828.27014,-163.94574
-664.5891,-999.77954,-144.25218
-808.3841,-971.7712,-131.34718
-1009.3437,-435.81207,14.563351
-1565.9595,1234.9097,744.4151
-1703.7334,2500.4048,1255.2659
-948.5112,2502.9146,1319.9872
-347.19446,1520.5038,898.42017
69.16419,1078.874,625.85156
384.2603,638.61993,329.32126
858.3128,313.41928,125.11679
981.82104,169.4781,153.67203
791.4204,184.88666,135.36484
426.29477,609.59406,294.80795
-202.75464,2617.9111,959.623
-1470.0485,3783.6248,1330.0342
-1686.2424,2116.8225,1021.87213
-1185.5537,1016.05566,410.74057
-916.87415,243.83534,186.84909
-693.1565,-407.03146,-126.05317
-584.6027,-932.1872,-293.66373
-651.358,-842.1908,-260.67136
-703.20996,-566.7841,-60.89019
-1040.5273,822.155,589.7188
-1441.5571,2231.8328,1265.2312
-979.24084,2708.3071,1363.9117
-564.32,1664.8589,1078.0094
-188.74391,903.62103,779.4525
78.12896,244.16266,569.07825
662.31323,-118.34655,338.39087
802.2111,-327.48276,308.80463
756.9693,-242.24646,137.4878
365.01044,497.54245,412.52158
-322.39722,2523.873,832.38904
-1070.952,3650.4917,941.4803
-1306.8201,2393.7466,937.0734
-980.7849,1254.064,468.4868
-773.7012,507.30225,301.7765
-619.37836,-237.6682,-72.5432
-593.4156,-968.11194,-197.86993
-659.6608,-981.6122,-177.48347
-772.039,-836.444,60.74191
-1048.3773,-35.95033,97.91314
-1975.7012,2102.3135,1029.9559
-1672.3679,3114.4412,1478.2015
-777.0524,1882.0717,1097.8811
-300.23413,981.3746,783.08417
-37.08644,589.6494,526.25775
389.47394,141.86476,284.3089
804.9196,-33.7597,129.79156
801.88226,24.534386,155.74649
623.32263,234.4247,132.29155
284.8122,1058.771,566.3636
-295.65442,2880.64,1115.7855
-1301.6467,3433.2168,1301.9192
-1273.2341,1952.3717,874.1291
-1097.4838,1125.0554,507.10123
-949.65875,130.17844,199.80785
-765.9145,-578.98694,-131.4015
-689.2243,-946.9667,-470.7801
-911.7871,-815.97235,-252.10193
-880.8957,-665.35815,-93.957466
-1362.2461,471.50784,370.33792
-1989.2526,2278.9392,1433.2339
-1332.15,2754.59,1574.673
-516.83386,1530.0082,1087.9337
-126.67805,971.7455,872.24384
100.01568,622.75824,596.02264
513.6365,204.76683,350.9466
835.8387,-114.48356,57.527073
782.95685,126.66661,81.72895
551.92755,491.5671,208.83882
-423.5463,2855.8643,1472.9094
-1496.6565,3327.7385,1937.4929
-1550.6255,1914.4722,1341.4833
-1243.8347,848.494,779.54004
-962.1334,101.22948,193.2335
-905.36255,-761.4975,-307.8438
-730.93726,-1242.3461,-590.51184
-758.10693,-1023.6914,-300.81598
-814.95935,-608.14056,94.35889
-1380.6826,794.3466,427.89835
-2129.0374,2420.3284,1289.012
-1505.5604,3075.8962,1607.0969
-602.0654,1656.3397,931.7447
-189.93015,909.8185,593.1251
288.27182,597.7908,365.8476
680.4957,221.23637,294.00882
925.69653,-189.89713,45.0169
805.49097,62.033096,86.61852
552.90173,337.08356,180.77661
-63.980667,1972.3234,740.8928
-1156.7377,3807.4832,1240.4363
-1583.9792,2811.2568,1203.1233
-1181.528,1397.5822,645.84314
-936.21185,423.2533,281.58212
-780.36,-385.75412,-82.76059
-711.2117,-955.5111,-235.42853
-689.1348,-947.56964,-261.96838
-790.7086,-794.5811,-8.471806
-1001.5095,-132.56981,71.49721
-2109.6714,1999.7812,1065.949
-1759.512,3055.063,1638.7909
-566.9494,2114.0134,1149.1311
11.674485,1105.2026,857.4565
272.743,939.5813,553.7187
569.0555,240.33372,252.66737
770.08496,73.809746,31.343311
719.5218,18.18372,88.619484
618.0969,191.98244,93.07807
196.50479,1141.7208,511.7653
-755.9722,3740.394,954.30164
-1534.8661,3600.3477,1120.4434
-1304.82,1809.0935,691.75854
-936.11505,661.8023,205.98857
-745.8495,-214.28293,-43.038776
-667.35114,-766.8687,-204.73247
-636.7277,-1121.5679,-271.78232
-821.71606,-832.72754,-114.68264
-849.52954,-463.08957,99.9946
-1680.0973,1756.6737,976.6872
-1697.4532,2973.1177,2011.7236
-681.3231,1570.8098,1257.8512
-316.37234,933.53265,1059.3535
80.25529,834.83875,900.9209
217.32729,258.58865,473.44733
430.41177,-242.84557,171.70682
526.5524,-95.834175,206.89044
722.21313,-69.64703,149.19528
448.78717,205.68036,158.28416
156.48727,1779.4581,852.1484
-1389.6389,4017.5566,1474.8907
-1688.5066,2728.2917,903.5606
-1006.10333,1264.3665,566.8343
-887.30853,763.03217,483.71396
-627.79364,-228.81905,11.829648
-585.1696,-945.27374,-332.33752
-663.5426,-1048.9957,-330.68414
-936.0519,-779.75244,55.396915
-1293.5552,-219.30646,72.80221
-2313.1863,1614.6265,650.5013
-1977.313,3044.3386,1457.0358
-801.9226,2265.2644,947.22394
-70.11925,1174.593,631.8629
212.96025,1036.484,348.01147
473.15787,434.0362,208.45839
687.5936,57.059822,-74.16094
788.54834,105.94883,103.25138
649.0348,238.31502,165.0539
369.38293,975.32825,515.6872
-664.6135,3327.9224,804.8379
-1861.5068,3554.8054,1004.7129
-1548.077,1825.8915,680.49493
-1089.0292,950.05023,359.98746
-766.37274,156.92688,98.81165
-608.82605,-431.94836,-134.16736
-511.61197,-972.6451,-322.57153
-714.2097,-910.6011,-292.17102
-826.15607,-692.376,-110.52182
-1407.057,673.06793,225.2964
-2101.6975,2816.9731,1082.773
-1233.3308,3008.0886,1247.319
-228.18991,1460.2216,972.1428
128.72052,1025.7468,763.6057
235.23125,584.3843,591.1881
559.52,55.9907,130.86513
661.93823,43.870136,-43.32466
615.41614,205.74464,46.90002
370.43326,468.2618,162.47897
-160.65016,1825.7318,443.3807
-934.741,3129.3772,827.58264
-1656.0834,2793.0867,1032.9297
-1346.9578,1713.2113,626.759
-1037.1017,733.4657,318.38535
-685.7684,-19.252474,-14.035302
-602.87036,-573.88855,-116.3919
-538.5196,-909.136,-233.76898
-754.04803,-838.0129,-87.667816
-792.997,-638.4948,158.70049
-1529.6982,575.92175,583.64404
-2303.518,2145.239,1211.8948
-1390.2516,2487.574,1346.2914
-644.8634,1555.076,919.4189
-199.99808,930.31335,592.27606
114.987144,690.418,402.16705
556.06024,228.88875,180.93279
844.99286,-30.740086,-29.315235
740.52637,83.98408,94.7668
477.18213,359.55118,295.05002
-236.00636,2392.7473,951.93134
-1477.0293,3789.3108,1232.4727
-1634.0765,2645.5525,1004.20917
-1178.9203,1481.0231,572.5244
-935.00525,299.03702,227.57013
-773.98944,-541.4119,-280.3801
-764.1824,-1302.972,-366.28967
-797.8874,-1024.4663,-183.10123
-919.6308,-845.56024,-98.2521
-1125.2234,-183.22833,-176.42842
-2278.368,1888.4929,927.4411
-1988.3417,3311.661,1486.0374
-765.13684,2410.661,1147.7628
-270.7257,1513.1965,870.15393
22.499506,930.3152,509.00357
378.71976,480.0754,278.04752
800.29443,27.789919,33.232452
971.10266,54.253807,51.33515
882.82104,170.85707,222.60947
278.7237,908.57306,325.83453
-464.6412,2702.8484,735.4088
-1573.1042,3646.9949,994.8355
-1532.8071,2414.2666,732.7683
-1052.5988,1398.8563,475.61603
-739.0703,479.49677,199.92535
-621.40356,-226.64307,-122.9333
-553.8273,-1172.2518,-304.10986
-636.54944,-1127.1494,-210.74529
-909.86566,-894.1437,2.619634
-1228.9415,458.24722,202.61702
-1821.9445,2013.9855,967.25214
-1549.6973,2724.9668,1368.4176
-1008.3602,2107.4116,1244.4119
-346.1592,1166.6244,789.39355
1.0671982,670.63403,507.29633
369.4878,397.37842,276.23788
607.7086,56.73532,47.665558
730.57385,47.01297,-56.29106
582.01953,106.062645,71.66309
364.33698,787.3697,159.01295
-753.4607,3328.809,1102.6246
-1727.6061,3808.923,1001.3362
-1221.0796,2763.0386,761.0134
-1161.2231,1094.5243,827.0845
-650.88434,98.423485,558.28326
-580.58575,-373.77115,141.88512
-674.9398,-777.38074,-22.135668
-683.34454,-735.03577,-19.230904
-702.3219,-747.99426,24.109333
-952.3042,-355.00677,128.25694
-1416.989,1229.9202,511.2011
-1491.3331,3265.0566,900.2056
-633.6825,2979.56,873.64526
6.9472294,1584.4819,665.7438
253.83028,977.24854,415.75024
448.0653,238.44379,240.70647
593.96985,12.000258,155.89537
763.09735,-74.64121,71.04276
724.48956,55.442554,88.012634
643.3714,189.88516,130.8654
257.19308,1572.6931,439.6594
-1196.1431,4819.5347,864.1515
-1986.7161,4121.948,1078.3094
-1530.7867,2138.2046,652.7469
-1137.6353,975.8075,353.61957
-824.91095,48.378487,103.42059
-672.52,-540.03986,-128.6394
-636.0897,-719.9753,-115.1676
-678.1355,-948.97003,-203.37802
-876.1943,-680.6505,-167.6377
-806.2196,-404.25613,-89.87362
-1326.2987,1227.381,564.32043
-1661.4114,2895.6738,1735.4961
-878.2169,2780.3684,1583.9501
-162.4924,1910.8312,1225.8074
118.46686,1158.0352,762.85254
323.0717,538.5125,410.43387
622.45435,164.9385,100.59227
963.83295,18.377737,-34.11021
950.7341,278.0331,-10.150799
445.15204,667.6008,261.52655
-264.90146,2787.9895,735.46234
-1119.8782,3841.6604,1157.2284
-1602.9656,2626.2307,1129.2557
-1246.7393,1248.9865,517.075
-1047.6891,249.52965,206.04712
-775.4998,-505.37503,-15.059329
-620.06476,-1014.1746,-237.31708
-605.4832,-1258.187,-264.11844
-881.3011,-624.1428,-78.77788
-959.26483,-540.85693,-196.24672
-2253.6038,2418.08,298.80225
-1868.3414,5288.821,1543.7314
-513.7842,1965.2457,775.28723
-110.34325,652.88763,236.7138
167.40273,-55.100246,299.56995
345.66806,223.40878,237.31664
676.809,-224.01917,165.73547
819.3692,52.960876,85.59877
611.8619,163.94083,295.95645
52.442574,2039.0964,689.83093
-998.37775,3823.788,874.60254
-1704.2607,3139.7295,981.3158
-1301.9534,1749.5767,598.23926
-967.8214,658.58167,315.297
-688.2961,87.73467,103.19452
-608.8652,-732.97186,-454.20987
-542.6339,-1525.2357,-727.62634
-853.1739,-941.9288,-312.15747
-1066.0925,-532.8325,-287.65967
-2072.191,1037.9102,1015.80695
-2123.5854,2117.137,1871.0713
-1470.7473,2080.0603,1828.7556
-682.93365,1178.2426,1179.6489
-41.849964,746.81976,594.22003
271.80896,531.69037,230.48274
644.7349,220.06789,-253.33186
802.54407,1019.26764,19.034855
710.8432,903.87976,227.81512
487.96103,362.00195,-165.14992
46.41712,1874.2598,159.08704
-1162.5289,3654.974,638.263
-1891.0714,3207.9758,634.5702
-1283.5731,1671.5126,445.83655
-915.15845,681.9459,236.76505
-556.1447,-440.9107,-216.5804
-598.8253,-1092.4675,-146.77655
-570.37054,-974.77496,97.13892
-825.12695,-722.6018,-26.635712
-1107.0906,-294.7035,-180.85004
-1622.6136,1392.9948,132.61844
-1594.9634,3272.2126,-428.03668
-602.75714,3536.855,239.8318
76.420715,1740.3284,177.3267
171.24765,1308.4368,338.03345
344.92444,460.83435,589.0727
495.30136,195.21152,335.13895
736.3455,-560.8171,103.32613
635.5041,171.99387,39.28062
940.8835,129.38669,112.86461
381.0194,2916.9363,57.531513
-1178.5168,4972.2563,422.35864
-1162.7363,2893.294,602.74603
-963.2656,1239.4233,308.14767
-846.0159,292.72284,105.33794
-821.8989,-284.82944,-25.779156
-714.2867,-923.5751,-183.36548
-783.8392,-990.71686,-186.34366
-1008.0677,-678.8229,-110.89163
-1095.9689,-256.89713,-109.928474
-1728.6619,1869.7015,431.54092
-1779.9431,3964.5808,1020.87646
-449.73346,3197.9695,1134.7863
82.231445,1525.6876,688.9913
248.84924,929.9591,473.901
400.11356,208.4192,275.6303
638.8738,-103.00941,21.864283
790.43365,-71.351135,57.312527
709.5639,103.23406,120.07413
446.40424,423.46182,225.08934
-444.718,3222.3147,896.35114
-1475.7982,4283.7437,1176.3555
-1582.149,2395.82,868.04614
-1183.9115,1269.7716,414.98267
-920.443,327.49484,185.26424
-685.2356,-683.7329,-395.14523
-512.8167,-1205.8112,-518.94293
-629.9161,-967.3787,-235.85594
-848.2935,-696.5261,-41.64506
-1132.6577,-175.3379,26.593922
-2497.059,2014.4387,1406.9545
-2058.1025,3175.4272,1763.9797
-728.897,1772.667,1099.3801
-101.28106,1277.1338,819.76276
346.33176,745.2281,264.53275
606.37256,312.2346,63.658733
854.51324,95.252716,-118.73575
800.9641,98.53221,-67.80082
645.46796,62.433125,-83.90456
225.69199,1357.5208,447.616
-640.9751,3908.334,1312.0288
-1411.6953,3378.2544,1329.5438
-1341.1025,2163.053,979.09216
-1076.9655,1000.4139,523.5917
-782.99786,1.515035,63.66233
-681.1396,-721.26715,-190.44835
-639.95245,-1136.3716,-267.42642
-809.89374,-1079.9219,-123.35836
-923.98834,-735.00665,-22.426022
-1644.1129,772.26,532.2118
-2032.9585,2854.8635,1277.1385
-1108.7076,3252.3652,1350.2041
-374.0881,1867.4662,1015.4264
-15.045123,964.60846,561.01135
267.35812,532.54395,345.64334
635.53906,250.17584,167.08624
1073.782,-83.27587,-38.3915
1048.7079,85.667046,3.4952357
681.10535,311.34644,218.16641
154.85599,2173.7317,1073.2925
-846.7525,4012.2388,2157.422
-1751.8615,3041.5637,2207.8948
-1517.7911,1485.036,1194.2323
-871.9359,265.00293,259.43988
-791.5195,-90.1672,3.9601583
-709.6901,-1032.8337,-361.5449
-736.293,-1283.5212,-451.69168
-876.8294,-904.7156,-250.73769
-1236.5706,-26.928497,74.735275
-1912.0299,2144.4963,953.2482
-1594.9708,2748.187,1707.7455
-633.6902,2509.7527,1561.7231
3.3585036,1487.2549,1172.7418
215.30856,845.2873,679.5054
453.57297,363.63895,240.63399
704.57935,154.32182,60.685406
912.5351,110.00779,158.7421
1060.1122,182.39531,153.26775
512.1056,753.919,282.5051
-11.947153,2507.168,688.0935
-1207.3766,4316.1416,1270.5162
-2176.8857,3319.6516,1197.4009
-1761.5267,1820.4058,663.2846
-1333.4928,604.7585,261.54425
-889.6738,-168.84044,-151.54732
-963.37537,-908.33276,-227.20845
-857.5244,-1279.0161,-367.45047
-995.06366,-1136.0,-184.34932
-1123.8131,-377.95697,76.14093
-1732.3286,1633.5431,732.45575
-1909.3134,2693.7986,1627.8246
-1184.7529,2959.1025,1307.2217
-210.40356,1974.4852,938.8392
220.1969,1101.8414,561.92145
501.3824,538.9621,293.75922
812.5719,-8.973366,52.248653
990.0422,-36.185074,-66.37026
928.2797,46.497787,55.006786
511.33545,494.11,224.28978
-423.38742,3147.2563,1067.1058
-1476.2167,4027.3186,1449.4321
-1826.319,2707.7202,1083.9625
-1302.8649,1260.5859,509.41022
-1005.6945,328.81906,197.82329
-821.258,-394.79114,-176.36652
-738.4436,-1173.0992,-396.8481
-752.37476,-1182.6929,-316.71545
-980.5103,-917.6274,-165.15617
-1242.9675,483.43842,328.40076
-2049.4639,2350.6235,1650.97
-1661.9846,2479.869,2000.7183
-643.3009,1617.142,1434.8644
32.351715,1320.1029,967.1023
380.05917,1018.38544,510.7898
593.9761,357.35123,93.999054
976.00684,142.81369,-213.87444
988.5998,220.05914,-25.331963
673.7048,307.6285,67.891365
116.94303,1741.6108,680.57117
-722.06726,3779.058,1211.8142
-1794.9788,3946.406,1227.414
-1931.9625,2681.683,879.57214
-1477.4357,747.7886,298.21756
-1260.2142,-268.72156,-48.75256
-886.3476,-1363.6233,-368.66547
-815.5315,-1263.7238,-200.60542
-837.7741,-928.3461,106.7599
-953.5181,-427.08054,-164.98433
-1595.372,393.1094,290.40784
-2486.8574,3117.434,-194.90407
-1205.6641,4632.573,-217.51103
-245.47404,2172.949,-7.7901416
139.27594,1059.896,-146.68195
393.35403,539.8124,118.68147
760.85114,217.86507,-7.0747757
1175.7087,162.66348,137.33876
1084.1383,29.729496,10.984807
612.4305,18.263422,254.2807
-457.03494,3189.4988,1127.0042
-1370.9994,3807.2354,1468.3682
-1935.566,2622.2383,1327.4756
-1779.2491,1461.4548,754.25494
-1230.2725,379.05087,239.19188
-853.20374,-349.6254,-138.55153
-761.58734,-894.0578,-442.80197
-956.7887,-1282.9829,-447.59073
-915.4949,-1145.5585,-514.7788
-1232.7672,-324.12268,56.74476
-2287.5903,1871.7822,1601.5951
-1716.0055,2870.0264,2155.924
-634.84973,1806.1981,1477.7462
9.130439,1167.6409,784.72626
237.92972,895.6521,689.4042
369.06622,251.53546,404.16473
586.4252,6.809722,49.900326
585.8448,212.55042,377.58652
605.0101,-93.51532,-31.953556
-21.463608,1078.8809,300.77756
-1075.8883,3538.5847,1486.2446
-2118.9583,4061.7905,1208.7161
-1921.7668,2084.4014,693.9858
-1332.7804,896.6117,318.48563
-891.1733,-31.536034,27.122763
-737.86676,-621.4149,-227.29176
-545.5662,-1389.0405,-598.7345
-685.7827,-1238.275,-394.5788
-860.56134,-865.66394,-204.79887
-1558.609,302.7874,89.1939
-2502.6782,2320.2334,1264.4304
-1868.5332,2841.158,1565.5985
-921.328,1696.7745,1076.676
-105.58803,1000.0921,676.3332
280.9746,727.4262,469.59558
739.4235,642.19824,308.76755
899.5463,628.6551,327.76862
797.65656,458.49377,274.79245
314.0765,658.18555,262.82086
-308.48663,1749.4967,793.32385
-1741.3542,3098.679,1840.3912
-2354.1472,2503.8389,1420.0092
-1621.9216,1387.186,845.13574
-1111.085,718.63806,435.09207
-897.37,-66.25547,13.143526
-819.52893,-1173.5496,-492.66037
-814.94336,-1430.1702,-501.47388
-951.2437,-1169.6777,-194.74461
-951.3878,-178.18909,57.28702
-1535.3306,1361.7744,816.93726
-1778.1656,2678.1577,1247.0991
-1117.2302,2944.8718,1325.5854
-392.71213,1456.6772,937.36664
-39.03332,840.36945,481.75903
342.71094,337.33368,337.1074
705.20026,243.7351,192.5546
877.8393,40.15076,31.404816
694.09564,274.04694,27.679663
223.7469,835.29224,465.56976
-817.1173,2772.9028,1322.8044
-1898.2969,3046.85,1562.3488
-1826.9897,2018.9418,1224.2068
-1427.2906,1109.9464,755.17303
-1104.3043,267.33353,238.51991
-770.132,-628.86835,-256.44922
-592.8469,-1130.0194,-452.6479
-703.44073,-1242.9294,-344.1272
-868.1265,-698.3484,-129.4797
-1402.3689,803.3172,677.09656
-1847.0094,1999.1228,1264.6536
-1410.8401,2311.1843,1519.8636
-565.9711,1484.182,1121.2289
-19.234688,889.443,739.7964
269.16827,716.6537,571.30524
776.0842,248.9127,274.0685
960.3946,258.25507,159.83218
798.7518,244.02652,225.95657
422.61765,527.7166,328.59384
-188.7849,1996.3765,1036.2979
-1080.0885,3192.2126,1608.562
-1680.3461,2500.972,1423.6528
-1423.738,1455.9861,846.524
-1050.3772,440.81366,273.76672
-832.4295,-236.49153,-89.95577
-686.4117,-706.35614,-154.41333
-736.5131,-785.9363,-220.06035
-815.278,-788.71954,-202.7624
-903.2919,-279.35117,-8.000474
-1546.8749,848.78925,912.5581
-1945.0154,2313.335,1706.979
-1114.4067,2212.522,1608.9343
-424.6232,1316.0603,1138.4147
109.43367,603.16797,638.1485
472.79865,378.83755,287.82516
889.01306,59.945423,-1.7948227
910.23065,239.66362,48.120827
731.8487,377.609,191.54694
128.96005,1482.5061,636.25555
-267.66272,2636.5833,968.04553
-1079.6136,3444.6821,1067.6786
-1641.9785,2354.3054,964.9837
-1202.5167,911.2559,403.51617
-808.12854,129.9326,19.31392
-637.4201,-607.29755,-225.98938
-616.0,-1005.7505,-156.17575
-771.0643,-947.4109,-173.9205
-994.00665,-653.08575,170.82146
-1307.9447,991.92035,176.12814
-1664.1437,2467.6548,758.9979
-1265.1539,2887.2495,846.7582
-572.3654,2176.41,654.82947
-72.57833,1160.4862,627.2723
388.0885,623.7294,376.65976
1077.8398,268.00946,352.588
1220.4067,102.170334,227.01825
902.17554,345.48685,150.74512
491.7507,347.1551,-17.067144
-259.8887,2361.3687,166.5784
-1458.4355,4049.1877,523.6556
-1696.0676,2740.1318,550.40594
-1401.7145,1636.1188,294.2401
-1042.7352,499.03357,166.63124
-785.20294,-147.59273,86.35734
-592.8099,-1129.3549,-68.73892
-636.73193,-1072.0197,127.17898
-790.02386,-930.61707,312.47598
-1006.8217,-279.13367,223.38174
-1685.1306,1068.5035,716.5055
-2214.0964,2755.3726,1531.1438
-1297.3632,2365.3088,1120.6619
-442.99615,1113.8026,776.56494
-166.47064,881.7352,495.30054
366.24887,919.90814,182.3312
1105.0272,595.7762,-116.11333
1554.8846,199.30455,-286.16602
1155.92,431.8236,-239.83122
642.7705,573.2946,-42.94418
-331.75623,2747.726,524.69073
-1486.2589,4017.3315,1112.725
-1765.6891,2841.5562,892.9074
-1292.6156,1400.2062,406.16614
-1065.5613,644.9937,156.41035
-988.1365,-48.724342,50.717445
-1037.3246,-717.1718,-67.263756
-1163.1097,-1274.1732,-149.35393
-1151.0757,-1075.1755,33.245285
-793.18427,-690.1289,137.14328
-1759.3903,1060.5027,741.1371
-2181.7046,3192.8174,1843.2686
-1121.7167,2827.3303,1426.603
-364.65698,1868.951,930.4811
-130.28012,1190.021,606.8879
301.63013,635.7855,239.66367
894.29395,262.16885,233.29288
1209.9219,43.632046,167.82693
1047.7555,283.10593,104.13994
734.52893,356.97076,24.511213
26.25051,2520.2712,361.71765
-1808.3219,4746.653,1366.6176
-2348.0845,3159.8203,920.33606
-1705.7623,1513.7476,400.61853
-1399.3574,433.66922,104.78126
-982.4427,-534.83905,-260.86392
-712.06274,-1187.8258,-432.52878
-690.9624,-1180.564,-272.34204
-857.9658,-923.3271,-62.62003
-903.92896,-354.75394,7.3127666
-2156.6982,1406.5647,659.4854
-2299.5403,3851.3167,1465.7516
-760.3516,2470.6843,1082.0631
-192.91066,1496.6338,856.18494
-63.93416,1034.4391,777.4192
493.21884,143.54326,195.94664
886.1596,92.21956,148.34863
960.1038,-205.64333,163.64561
669.7362,254.71454,-2.0854185
174.04683,753.4893,447.54205
-249.1701,2912.5867,904.27106
-1221.0156,4288.4785,1018.8044
-1525.4838,3000.9202,749.3171
-1292.8076,1694.8008,382.7036
-1039.5104,377.54065,-14.71173
-864.7594,-598.7747,-298.99152
-760.22015,-1152.1837,-536.4279
-955.22235,-970.43494,-293.05707
-1165.5083,-797.4123,-242.94966
-1390.7079,915.959,466.80313
-1119.1606,1905.7166,1447.1937
-884.2338,2277.3416,1750.0137
-710.31177,1863.6675,1655.3585
-372.23587,979.5254,1122.7244
-42.443546,389.2292,705.4659
433.37482,41.199154,322.6933
819.62256,-49.902214,170.71797
751.4329,-32.57605,139.2537
649.53186,-44.865967,35.777065
249.9829,753.24817,461.12552
-529.34625,2971.4211,1520.4883
-1680.484,3814.4944,2099.3313
-1834.7092,2097.2637,1658.3099
-1096.1438,931.67303,715.8039
-714.90106,39.653976,226.10373
-638.14624,-659.89606,-30.459219
-570.4414,-1346.3467,-462.48938
-731.2833,-1162.0831,-328.7309
-826.10065,-966.66656,24.75001
-1462.4073,779.75946,417.19446
-2200.4475,2557.5122,1772.43
-1368.3618,2760.7573,1957.866
-478.5433,1701.5427,1348.371
25.943317,897.26056,968.82654
305.26215,523.2645,539.64703
625.37,39.055805,238.01677
848.8135,-16.265244,124.74992
745.4801,-19.819149,127.734436
586.4251,40.94448,72.170555
393.10376,994.2641,363.1525
-703.1125,4258.576,1254.6045
-1842.775,3898.3577,1265.2366
-1148.0704,1718.9811,614.2226
-837.13947,836.8615,428.41077
-774.7502,-243.10506,171.50027
-590.13855,-1022.431,-274.72955
-501.13177,-1302.7776,-301.0125
-831.10864,-695.02875,-33.563343
-972.53156,-442.86884,-50.94334
-1946.8865,1082.4937,411.0923
-2545.0837,3143.1975,1199.2006
-1170.6301,2889.309,1102.723
-234.73099,1339.1431,857.1445
189.97162,765.07025,745.26495
516.91833,386.2164,398.8374
988.59143,243.31377,217.04642
1078.0067,236.77933,231.02339
791.1192,342.05798,143.95169
321.8344,992.2722,151.72935
-862.5284,3559.8665,754.5856
-2966.618,4527.442,1165.9958
-2144.3862,2515.2197,694.3184
-1374.0873,931.52563,104.96371
-885.8908,-763.23553,-230.21346
-722.4698,-1407.665,-604.5404
-699.0986,-1374.0873,-293.78622
-747.9973,-688.75745,342.49588
-642.6832,-583.604,178.72542
-1292.1733,644.5054,404.5367
-2087.9666,2846.622,1539.6632
-1340.0789,2507.8208,1454.3604
-610.7277,1323.7087,1101.4459
-115.728195,812.5863,889.49
249.3741,416.05884,573.02515
680.1829,63.83877,240.53848
1003.9404,-54.78579,122.83126
939.1282,96.89691,23.348936
754.2335,19.323889,26.692728
370.81433,487.69592,-86.56795
-1107.1399,4006.1794,1175.9153
-2444.8542,4431.832,1358.006
-1969.122,2191.225,552.4054
-1333.7104,890.9023,352.03326
-860.10297,-189.80794,-103.08668
-629.5803,-860.1467,-426.177
-457.29773,-1227.2745,-474.5348
-748.8996,-787.4101,-207.22968
-1045.3569,-442.8773,-108.8982
-1711.0599,886.47046,542.8068
-2089.1877,2383.2905,1026.258
-1212.6392,2507.3535,1169.145
-600.30145,1717.7518,970.8234
-164.85257,1223.4219,748.6548
156.15689,761.33044,451.7365
874.0304,441.34033,220.67102
1077.868,231.36928,91.0291
991.22864,177.19435,-128.94753
576.8852,667.20795,78.91092
-114.28397,2844.5757,818.16235
-1557.8335,3681.965,1140.0411
-2165.1396,2426.1372,1010.10645
-1438.8796,1463.2607,392.56506
-1096.9518,457.33856,101.49274
-773.1874,-365.3439,-139.17537
-519.7949,-695.12354,-291.3061
-513.0579,-729.1563,-208.98962
-830.75696,-612.5747,-160.6282
-1028.1488,-407.98993,-34.302822
-1627.9575,785.7537,376.75348
-2037.6058,1574.8748,1216.2694
-1937.6758,2038.6306,1523.3971
-1196.8544,1480.7343,1197.3075
-516.6959,833.47833,955.5508
7.7685475,366.93503,719.5635
577.7177,31.846987,598.96423
966.8068,-1.4136363,470.22342
721.7132,37.013313,319.31552
366.6465,379.43362,411.37683
-588.1925,2433.3066,1112.7994
-1852.6632,3023.866,1221.3267
-2778.7632,2383.6372,921.7434
-1854.264,1508.7941,457.7057
-1227.867,607.9377,215.91835
-871.8572,-87.63485,-108.30757
-674.59454,-1039.8745,-438.72003
-496.18863,-1247.8036,-498.66574
-799.21857,-922.0517,-173.79153
-1004.2136,-633.63104,-234.3441
-1848.9514,687.6685,380.78946
-2436.4287,2310.7378,1232.7214
-1806.4098,2989.7925,1546.432
-688.43463,1478.4838,1272.7161
-115.6352,837.01636,765.39276
343.92816,560.68555,394.10333
772.2909,460.064,179.17778
904.39685,97.47155,35.263535
748.2969,280.85352,-27.986643
446.64642,275.41946,130.35855
-205.3858,2094.4312,577.7326
-1532.0609,3760.5046,1275.6005
-2437.639,2975.1523,1350.6012
-1690.9685,1490.9608,880.11285
-1203.8716,423.44366,405.44733
-787.95166,-345.91534,-20.88896
-651.4899,-873.81415,-330.30023
-492.5327,-1048.8267,-397.0901
-740.3421,-908.6885,-275.4137
-796.1934,-573.309,-122.21443
-1594.42,259.1227,588.5447
-2569.6335,2137.8733,2085.825
-1744.5673,2661.8787,2263.2234
-626.4139,1137.5707,1499.7078
-281.41602,910.49976,870.4733
146.82516,619.08215,340.8091
451.9804,390.01047,17.849525
896.6586,-21.085365,-113.701775
907.4717,19.833405,53.543816
708.3746,-201.84276,489.65897
140.52184,1152.6189,1055.5203
-763.58075,2290.6785,2441.6611
-1285.247,2324.142,2093.763
-904.5997,1595.5524,1326.1395
-563.82874,697.7742,604.08356
-321.4302,266.44662,79.36444
-471.6921,-556.4792,-281.64624
-423.81693,-1081.8594,-563.3607
-741.8062,-861.54987,-342.1168
-888.33014,-710.3215,-20.40105
-1647.3909,218.78972,330.86584
-2893.462,2038.435,1735.9938
-2193.9656,2575.1272,2076.5137
-1085.1936,1205.8528,1538.0062
-370.56,776.93787,1116.0752
187.90498,503.47168,576.2047
528.76776,553.68915,169.3285
929.4426,202.21861,-79.176994
833.99664,322.37918,-399.11343
778.0067,26.990065,-294.02014
-153.20801,1462.1633,-145.1795
-1432.8652,5373.8706,806.803
-1563.9154,3839.5493,1208.7153
-1282.8188,1214.8585,296.95428
-646.3944,224.90102,458.79874
-472.70407,9.022991,171.55008
-475.88495,-661.2989,-72.04467
-555.18414,-1070.2286,-406.64206
-939.6707,-756.0088,-133.90065
-1045.4528,-508.75684,34.422466
-1577.7378,644.66876,250.86443
-2263.3865,3033.3086,1008.5845
-1352.7418,3364.1455,1423.5037
-432.3533,1853.6403,1166.9423
36.78162,1172.7495,1082.6185
366.08154,231.48326,488.68808
843.973,237.30711,234.79308
1077.6714,-34.860806,97.48085
833.8762,415.37024,117.91397
547.51746,-500.7714,-182.09793
-175.12556,1400.455,-386.2429
-2169.5347,4617.616,556.9517
-1785.7196,3114.7112,255.01389
-1372.452,2153.1853,573.8035
-1273.487,844.04535,584.93097
-856.70764,-208.2488,55.131504
-876.8119,-1131.167,-155.51746
-637.68567,-1278.254,-266.8683
-678.7414,-1140.0332,-13.861841
-653.8539,-544.53094,83.16396
-1187.1934,576.1151,345.3436
-2323.7239,3618.929,784.6036
-1471.5333,3626.8503,943.8489
-501.09583,1785.5336,494.38635
-68.48165,1034.6472,298.70282
399.07947,299.4925,66.40254
734.8783,40.501595,-18.103771
933.1555,-252.33626,-51.54919
681.7816,-34.464283,32.23799
525.7549,9.904487,54.20611
-270.01953,1975.3048,465.21713
-1623.8264,4485.395,880.0842
-1593.8711,3348.6797,860.7936
-1284.8009,1838.7775,642.59393
-1027.4121,605.86505,364.12518
-833.6894,-335.1075,72.527145
-797.02325,-1431.2537,-382.36215
-786.3987,-1433.46,-89.41418
-826.1759,-913.17505,49.205845
-889.40686,-135.14436,268.3231
-1830.4602,2263.247,927.7304
-1455.7468,3526.6519,1053.9304
-486.46353,2309.6838,742.239
-210.89052,1428.6128,379.19525
29.66667,627.88776,258.43604
264.2243,494.3918,-25.051748
445.06097,115.75567,-118.171875
633.5405,199.38196,-128.3376
742.39746,365.73337,89.22978
589.44183,486.4669,232.75478
127.366684,1290.3566,191.43759
-156.06706,2806.2224,613.29333
-1079.494,3494.0215,1026.6688
-1183.2719,2195.1868,732.61755
-939.8859,1111.3848,601.54175
-843.15405,370.59952,359.16116
-781.0454,-536.5645,-34.04583
-668.13043,-1072.8103,-284.6796
-750.6277,-1109.3474,-187.36485
-851.4683,-761.9748,135.02464
-1335.3448,142.32565,187.06805
-2338.449,2756.5247,1483.9558
-1544.2142,3101.1533,1721.9216
-478.41217,1681.0865,886.25494
35.783173,1077.47,632.12463
345.8383,900.56244,366.24493
817.98566,216.58601,220.11072
1175.2709,-135.5592,-109.60455
842.0236,246.28583,65.37852
521.5706,600.04047,256.1378
187.94653,1836.4869,403.5254
-774.2709,3889.2383,1007.0092
-1631.6305,3373.9973,1216.847
-1550.2101,1793.6888,646.1129
-1066.0687,400.35135,250.91422
-808.1571,-428.80356,-157.70862
-628.9821,-1066.6305,-290.228
-659.1123,-893.50214,-200.44202
-783.4415,-982.086,-16.82857
-973.61835,-248.23793,71.872406
-1746.3683,1486.838,393.70978
-1770.446,3360.242,593.3869
-831.5536,3322.556,726.4121
-233.46307,1706.3453,597.954
58.52087,751.2484,394.10956
246.82655,320.00638,276.59988
670.69543,46.385838,207.27028
890.194,-49.85469,76.988144
843.2533,-137.08414,72.95347
408.32303,1008.62714,58.282185
-414.37695,3586.871,360.3806
-1609.1315,3515.1003,622.4517
-1343.817,1965.732,398.98853
-1013.0971,1010.20087,283.1714
-687.7204,224.27141,180.03639
-498.8896,-779.4341,-206.91447
-488.07492,-1157.7494,-145.26909
-693.7454,-829.6086,-59.201954
-1022.2335,-678.7804,148.10385
-1557.0607,352.9486,-104.54879
-3026.305,2549.5034,1052.31
-2170.4192,2598.3586,1499.4744
-657.4616,1676.763,703.76355
-112.2424,1026.5153,735.0297
269.88766,729.87555,339.15262
709.2675,368.6956,205.36005
1131.4438,133.98299,39.176662
940.77936,214.9071,97.66192
537.47406,458.69873,142.74484
-74.38661,1840.9746,271.92307
-1197.4948,3835.0813,522.53656
-1927.5171,3077.0315,788.02594
-1643.2828,1673.3602,405.70306
-1202.9691,718.895,186.69942
-872.3808,-30.612164,-47.90753
-724.13873,-592.06683,-178.73427
-587.18524,-1034.7866,-303.0067
-873.25287,-800.5061,-120.87471
-857.64795,-727.94464,-6.5231338
-1553.2615,1168.5809,442.1985
-1842.9161,2839.7136,1435.6987
-1130.358,2624.2747,1460.9283
-403.377,1376.638,1059.4873
-2.649738,819.93463,692.71423
316.43347,470.6774,423.68344
720.56824,197.47655,264.3849
850.5811,-57.813713,58.175423
696.61035,92.65811,77.90486
461.8702,383.8442,183.88461
-58.419773,2106.9502,642.5111
-850.5534,3617.6472,1202.7682
-1422.8578,3121.1218,1245.7592
-1189.6321,1818.4895,833.4034
-797.57526,535.8269,362.06738
-610.9018,-397.85812,-76.06057
-590.1977,-992.32904,-174.933
-512.7325,-955.6134,-95.56075
-808.17163,-790.1588,-82.91738
-1137.8688,-205.38098,28.264122
-2068.674,1839.4054,871.4523
-1900.2008,2650.1584,1224.9075
-862.56915,2192.4487,1082.0952
-258.05078,1416.4216,739.4669
198.27129,1183.5669,497.87402
385.14902,711.0874,424.39056
752.4618,148.5807,137.88548
860.00574,-0.19790111,28.362328
802.5451,121.42797,59.813866
585.99915,276.51328,-1.5201886
250.501,2593.095,201.02432
-1141.8009,4500.143,654.1971
-1838.1436,3104.4995,533.2708
-1398.9003,1509.6,198.17538
-1038.1561,551.2538,181.63696
-766.34485,-196.38217,-5.224514
-568.62744,-964.14294,-225.73564
-578.30554,-874.82465,-47.285763
-714.2164,-786.5411,-45.09579
-912.3536,-192.43587,140.76447
-1639.03,1607.2476,354.15393
-1666.9634,2993.9768,846.1475
-964.4771,2755.1492,912.0506
-315.86557,1753.2806,725.0618
60.362263,1007.5556,523.68274
400.3324,439.73853,189.10007
786.7592,-0.35247314,26.942003
973.1308,5.7987766,-28.397566
912.1705,-129.09225,-151.14345
563.8359,970.9626,-45.081818
-353.84903,2887.4075,777.9523
-1148.0194,3722.4458,680.6606
-1442.0292,2618.3628,658.61945
-1095.4996,1258.4126,405.1244
-763.7054,529.2692,149.85805
-543.3919,-234.17264,57.238388
-429.27133,-854.83795,-145.67668
-448.82956,-883.8102,-202.45343
-747.4077,-745.22723,-10.464455
-1084.6589,104.339485,212.4678
-1878.0776,1786.2452,691.78723
-1816.456,2289.256,1128.2402
-1148.5088,2372.3984,903.26685
-284.8473,1409.4733,595.47516
55.59748,1047.9136,384.3137
489.1745,549.42664,108.414406
892.92413,197.49283,-92.23439
936.80756,547.1819,138.03444
636.63293,497.44467,457.00433
357.11584,916.663,300.69635
-185.02988,2662.3994,322.05463
-1321.3071,3639.1777,838.2278
-1593.4464,2541.5508,594.6304
-1160.7994,1245.6917,264.79208
-781.82355,463.4419,145.95816
-605.6221,-168.60779,-66.87984
-598.00104,-765.947,-271.3213
-720.3616,-754.59796,-299.8347
-994.049,-539.2221,-74.60973
-1101.0225,707.30444,355.86902
-1209.2902,1905.3346,1012.0793
-927.40295,2378.167,1362.4019
-527.64484,2048.5745,1210.0597
6.60121,1120.0435,994.60187
320.9647,608.51917,520.2473
666.69385,114.500465,241.5867
871.1636,66.45236,252.5864
796.3848,132.89404,218.67203
546.3803,211.03777,180.0296
285.64813,1061.2583,384.32883
-561.97034,3670.1357,823.2218
-1345.4971,3516.8435,834.0266
-1175.7118,1840.553,622.278
-864.9468,751.70593,266.27017
-758.5939,159.13197,164.04773
-640.1859,-551.86194,-90.08579
-576.51074,-803.46826,-160.23239
-680.2359,-728.7965,-110.72673
-740.3659,-501.79697,57.065792
-1142.1033,1085.9142,624.5031
-1503.3314,2435.8953,1356.2529
-1027.1302,2380.3535,1306.8535
-460.04926,1455.2358,965.7462
-93.40927,916.6987,743.83984
168.79716,544.1956,531.0904
500.3719,53.512833,215.30534
655.8525,-175.50633,-25.16731
773.1218,-33.49789,-41.53228
508.77902,474.3425,475.95135
-212.6895,1962.923,1422.0104
-1531.6276,3394.1023,1763.6636
-1783.2406,1897.2936,1353.8317
-1298.8019,911.4061,787.7732
-755.1244,202.18622,208.77393
-417.81113,-187.35564,24.758518
-303.23297,-473.15338,-226.56326
-495.1175,-574.2862,-359.5144
-800.76953,-677.3474,-395.7324
-900.34064,370.6717,196.06581
-1287.1841,1820.7938,1488.1831
-1250.2303,1938.4426,1750.6722
-933.22327,1661.9938,1494.8063
-521.3539,716.54034,1157.8145
-52.161045,463.33243,582.6918
317.452,226.5772,255.28288
646.1261,-13.109701,5.8657928
736.3273,81.46839,-11.19283
626.49554,613.9757,359.83224
306.61337,1439.4822,777.6023
-118.19326,2589.0483,833.8097
-645.635,2629.878,1079.8495
-995.841,2557.118,845.3954
-839.9791,1383.2444,422.37695
-647.0422,203.81152,66.078705
-631.7289,-485.76804,-170.77167
-660.41174,-785.66547,-252.37186
-809.029,-739.8482,-212.13261
-856.7182,-463.1678,-78.52512
-1144.5311,1268.7224,743.8775
-1255.4948,2453.6409,1298.1069
-673.92914,2756.6348,1379.8687
-161.86967,1712.9844,1079.7247
174.71582,945.97705,590.8643
350.34384,500.45663,383.29477
505.5495,-20.587416,119.55375
592.1866,-155.0942,-92.78748
763.61,-140.98557,-170.81256
580.55695,484.17325,187.9988
103.853485,2431.3125,867.51245
-540.6617,3424.1592,1034.4222
-1196.4661,2715.2952,1156.3225
-1174.323,1446.5166,671.751
-879.15717,653.059,303.92947
-623.9006,-206.88367,70.299286
-525.0758,-657.56195,-168.70634
-548.2603,-763.85846,-197.28868
-839.7931,-692.60297,-190.3886
-1244.2493,-49.954025,49.2559
-1761.6118,1637.1992,1101.6576
-1505.6843,2468.995,1562.9661
-706.44965,2228.6719,1513.2548
-106.44109,1140.9796,929.092
306.4426,838.2962,456.2572
618.6868,403.69717,159.00989
965.042,207.27023,-47.212975
935.79663,16.380186,-81.53698
637.5984,268.07883,74.43694
50.08296,1384.1202,618.5747
-924.6294,3380.921,1219.4507
-1633.6057,3198.2324,1096.3732
-1331.5491,2406.7349,550.3127
-823.51135,1263.5707,133.24565
-698.8888,68.78676,-15.6483555
-624.90857,-947.5035,-265.4708
-673.7862,-1213.2552,-224.04771
-757.8581,-930.196,-166.19572
-1061.7262,-218.48134,130.73149
-1618.3273,1587.8336,327.8787
-1480.7756,2977.5596,455.87207
-644.9736,2982.5762,678.58826
106.48099,1985.752,498.72366
203.7864,1292.205,507.25693
378.6046,429.75952,216.74202
630.2593,-174.16734,100.412544
805.6562,-137.8757,25.390984
697.4966,145.79973,62.441563
420.33224,855.32495,146.68842
63.923977,2457.047,93.21725
-750.4907,3287.1055,95.35927
-979.2078,2240.0715,434.49237
-644.00006,1387.9731,297.86252
-635.5302,606.80676,207.65938
-446.15347,-84.80576,81.827354
-465.30835,-552.9282,116.53245
-597.11334,-645.4944,-31.339039
-984.14514,-757.7182,57.888107
-1514.3885,320.4079,89.655464
-1942.435,1311.6953,227.37828
-1571.5935,2292.7917,556.7575
-1007.63293,2743.1343,267.35663
-310.63458,1785.1025,189.86037
131.64317,1259.399,-50.482067
966.3031,970.7233,110.27764
1498.582,805.1464,248.71887
1253.6443,692.17456,236.47661
668.44293,834.44574,-152.6234
98.775215,1864.3628,-396.78113
-1236.2646,4262.2437,-258.60666
-1915.8152,3804.9204,20.554995
-1979.6107,2095.0781,5.2857385
-1540.8359,581.07227,-33.58253
-1320.6885,-112.67294,-174.53986
-894.3684,-1257.6385,-360.55972
-723.1877,-1192.2981,-312.5256
-766.73065,-909.4039,198.20526
-698.5024,-128.63443,395.64178
-1210.8923,1609.6898,778.92084
-1752.7244,3721.0208,1605.565
-720.6356,2624.6868,1196.3584
50.316837,981.01044,717.31604
382.05438,660.41284,526.5903
698.2219,182.03154,210.6658
878.19507,-162.53387,106.00619
587.08167,200.28445,119.97046
461.70914,614.96686,174.14717
297.47287,869.49115,25.497475
-98.185295,2624.7034,112.83644
-1124.0725,3738.962,462.55173
-1290.3387,2515.4958,512.26935
-988.4448,1235.7281,283.67755
-865.13214,416.65393,99.86428
-710.1049,-814.51373,-1.5678972
-538.48694,-1043.1869,62.4453
-605.34216,-1098.0114,20.298643
-768.01434,-805.6643,107.12783
-959.7153,75.52317,123.51462
-2111.8398,1989.9897,1061.3912
-1955.1389,2943.0688,1444.535
-833.5555,2141.6707,966.87616
-120.20068,1066.0044,603.7915
181.88231,814.63055,155.24063
702.1697,619.5159,116.342705
846.06836,308.47855,112.829155
826.4151,72.44736,128.60692
648.5886,264.92728,123.18033
-36.409077,1908.9855,453.913
-1696.2035,4659.038,716.2577
-2352.8284,3219.9092,773.9731
-1367.6433,1176.3872,308.59808
-1017.6336,348.94974,227.35222
-853.84894,-453.3181,129.51483
-673.8282,-1266.613,-256.77765
-646.4762,-1338.5209,-54.640106
-844.6132,-766.179,74.260185
-1126.2319,-187.52496,109.36113
-2150.3037,2064.7224,706.00916
-2334.3262,3398.229,1480.5061
-969.9635,2445.5605,1107.5977
-225.96074,1215.4492,633.3784
165.651,880.04614,180.33049
412.53354,539.83575,79.54225
675.69073,230.76358,-79.807076
815.3573,49.09789,-93.8749
814.0157,100.40482,-133.70676
645.1665,368.78415,-19.41643
-86.059586,2618.9404,-38.846874
-1750.2662,5049.2876,569.26636
-1821.2277,2957.4907,858.21173
-1345.1326,1444.4413,510.9046
-1088.0237,505.31143,429.7673
-905.3754,-209.50406,4.773167
-947.2572,-920.5692,-305.38904
-960.59076,-1055.3455,-417.78668
-941.8542,-861.5883,-101.8867
-756.5117,-180.08315,185.5034
-1607.2466,1728.4633,978.6501
-1779.2614,3309.925,1416.9641
-715.3781,2327.9578,1250.4695
-93.73677,1149.8538,786.21454
210.98557,867.5718,782.157
505.12958,504.52612,541.14264
763.0015,32.199234,368.33847
889.88477,-147.56792,182.14551
1070.0118,171.87784,177.81046
487.4878,1175.2709,448.0833
-868.6253,3205.2527,1213.0079
-2148.8733,3236.3613,1210.619
-1636.0952,1657.66,736.4464
-1203.7776,761.5725,418.33734
-680.99097,337.1928,161.20897
-507.9699,-196.14754,-192.17827
-271.8527,-1255.2185,-649.4335
-546.3335,-813.32355,-327.7012
-568.8331,-617.82227,-16.887598
-1809.6055,675.1036,829.2375
-2517.4634,2286.754,1807.2745
-1473.343,1888.2664,1757.2897
-745.92645,1104.2175,1271.0719
-70.342125,893.8068,838.74945
496.57016,610.1792,545.9606
936.9665,86.41723,157.54205
946.491,31.384779,78.456985
726.43024,128.1305,26.401236
470.38312,93.05539,197.40373
47.524384,1348.0082,705.7524
-831.53265,3928.8582,1593.2346
-1631.1654,3577.1174,1592.1912
-1653.73,1965.2048,912.1233
-1216.0396,640.5286,459.9387
-880.73755,-441.72964,-55.107464
-714.3939,-1212.46,-321.3436
-560.16223,-1248.6753,-299.97934
-661.9872,-875.66974,-64.26313
-796.78253,-363.40143,118.11931
-1658.4905,1556.9464,751.9601
-2089.8445,3203.3416,1393.729
-939.95514,2477.122,1113.0532
-415.68826,1452.4156,693.83624
55.457962,886.76746,362.66238
416.8155,573.9722,179.62962
843.0324,61.526745,-16.416397
866.8095,22.127396,13.0079365
808.8697,112.4154,59.3479
571.5602,230.99779,141.29904
38.56232,2186.8528,615.0364
-1342.3153,4538.3506,1179.2489
-2035.097,3066.2717,1094.9701
-1521.5117,1490.2338,415.34494
-1087.8197,395.15207,134.64124
-689.5762,-305.01657,-86.17556
-534.2172,-925.6441,-281.57556
-540.61035,-1042.3887,-258.87408
-846.1925,-883.7043,-185.4528
-1067.3372,-431.19952,-39.395344
-2640.7507,1690.0499,639.01385
-2696.5942,2820.3228,1444.4667
-1201.4978,1963.0988,1175.5159
-485.15286,1442.1002,777.9419
282.3415,1148.2936,606.2623
574.1231,747.09827,364.54456
1001.2962,186.15941,41.837524
925.67957,635.5463,76.610596
778.34424,660.5913,244.53546
309.3971,1059.8595,336.0534
-229.36725,2217.2021,635.9228
-1474.5726,3318.43,1014.85815
-2158.0347,2778.7068,928.39777
-1849.9753,1567.8002,420.80045
-1267.3334,376.96558,-11.460643
-897.1951,-560.4155,-280.12943
-524.9821,-1198.4447,-469.9498
-637.10004,-1057.9828,-242.3526
-743.4599,-826.13184,103.90852
-1534.334,570.72833,407.84155
-2113.9827,1589.5833,414.52585
-1907.8035,1839.0576,1858.041
-889.0784,1920.9888,1412.4816
-207.47176,1516.145,892.3043
76.16025,851.83484,683.18616
314.29626,467.70963,244.03767
644.28235,221.0013,232.97836
898.002,239.7706,69.3543
816.0656,446.35062,282.10336
202.09781,1363.7535,543.399
-895.7883,2925.4863,986.1488
-2482.8352,3463.2395,1342.5853
-2268.0176,2150.3804,791.86334
-1436.0167,869.699,480.09595
-875.6851,-97.65851,117.98761
-615.57886,-920.718,-351.68332
-458.88544,-1353.5432,-302.67944
-682.7704,-877.859,-118.536514
-967.5037,-734.9112,7.7698383
-1762.3923,500.6016,-50.345028
-2600.201,2280.253,1032.5967
-1775.9847,2738.4607,1323.6678
-684.0426,2152.451,800.7943
101.90149,1239.953,638.1638
432.22034,1006.6112,494.9407
872.54706,313.69528,375.39713
968.0933,259.43335,239.1699
784.1136,266.2337,200.98265
398.52148,500.94238,-36.028458
-489.2104,2478.6926,401.14273
-1971.3633,3323.5652,1265.2158
-2356.749,2884.061,799.8127
-1616.9452,1373.3617,322.32544
-1023.9097,408.2692,224.10716
-536.7266,-506.4025,-251.09944
-442.8371,-1079.0956,-422.04108
-451.96735,-825.30914,-172.13889
-722.8557,-700.12335,-115.90004
-840.74115,-198.15613,79.83193
-1436.3615,966.4336,417.068
-1819.7311,2996.1616,1449.7815
-1198.6117,2609.7302,1462.1903
-408.41644,987.1671,641.5833
100.736725,497.0412,336.90482
428.68216,407.49146,237.84239
746.84625,212.00575,217.62804
832.0349,115.3088,72.89377
696.664,93.300476,-11.991298
394.5132,228.80013,175.08772
-515.41547,2500.9539,846.6002
-1720.4309,3984.9133,1146.9993
-1707.2993,2368.8806,1002.6449
-1112.5243,1503.305,572.7108
-868.27716,405.4039,307.91867
-646.9949,-390.0052,-71.25106
-649.04877,-1173.5361,-329.87094
-746.21106,-1025.0592,-168.5888
-897.5319,-943.7345,-20.61248
-1292.2706,285.71573,264.19406
-2097.1367,1962.6133,1129.5803
-1563.9316,2752.8584,1421.6229
-766.57385,2150.0325,1200.0535
-63.039062,1158.3817,780.8016
253.62706,773.20483,474.17517
884.1624,347.3421,302.3161
1058.6979,85.191315,139.18594
943.1232,126.71829,64.253296
528.7271,429.4887,78.05066
0.18436398,2222.001,550.181
-1430.2583,3469.4685,1190.1704
-1835.1198,2555.623,1104.8225
-1012.85706,1343.6569,463.5989
-763.6876,646.68994,455.09988
-559.63635,-272.3968,-557.3836
-584.8403,-908.23254,92.99619
-466.6783,-871.88416,88.84882
-794.66064,-1141.1588,-353.07333
-1216.9407,-31.139372,309.72858
-2224.934,1890.8744,865.6054
-1913.4125,2835.573,1313.703
-844.4478,2161.2273,1155.2065
-267.34042,1361.8065,789.8698
310.43597,1010.2712,475.94693
901.2236,590.02313,360.77054
1196.327,209.72182,243.21233
1154.5139,353.13623,268.23868
1054.9797,961.09424,834.6844
-758.0046,3716.987,2765.4888
-1607.1324,4370.0,3058.326
-1821.4957,1841.1638,2152.713
-1328.1263,781.2057,560.0804
-1079.4973,227.93976,-33.945683
-1080.8002,-84.51721,-295.96292
-819.87415,-370.857,-671.38055
-954.63916,-241.99268,-772.52
-1074.0823,-239.36626,-457.68375
-1142.149,109.40271,276.56223
-968.14966,1047.3934,1182.9817
-1098.3981,1776.8268,1765.2123
-959.39905,2579.0312,2567.328
-559.90967,1728.3335,2140.0747
-50.49144,973.67096,1325.8663
360.25867,350.18277,867.799
735.07886,237.07593,483.4139
821.9408,765.606,534.31396
651.5394,794.0581,472.56293
255.51762,1481.6285,620.85284
-426.01077,2228.2788,930.23956
-1716.755,2993.7725,1424.1339
-2598.656,2817.0999,1419.3184
-2050.3418,1490.0977,642.8204
-1339.0217,316.64456,212.92885
-980.9481,-675.76044,-276.47388
-547.55444,-1492.5427,-651.0102
-615.31976,-1205.0182,-368.22046
-743.53455,-841.82745,-202.95523
-1255.7346,36.413223,-42.10563
-2154.6082,2232.5288,864.937
-1701.806,3078.1438,1217.649
-815.64484,2208.0652,1052.119
-359.5873,1341.1067,814.52106
-9.548212,856.28253,660.3752
363.076,225.1412,270.80594
791.97064,91.64027,209.45377
968.6162,-8.063999,175.76239
874.22406,209.56125,214.38809
519.007,773.9096,309.57483
-359.5885,3018.6582,739.4443
-1586.4136,3812.4426,1026.9893
-2090.3071,2761.2988,833.1615
-1473.8022,1481.297,382.39832
-969.4631,314.61374,132.68484
-600.7485,-954.9454,-260.73926
-349.4568,-1594.6785,-342.52597
-506.57,-1252.0223,-84.84307
-944.5492,-615.5217,1.5026033
-1434.523,-133.02448,-79.82536
-2743.2937,1133.4895,524.06116
-2903.4136,2021.7603,1223.3173
-1845.5425,1840.554,868.6554
-951.58826,1370.9983,733.0379
-378.5301,873.3745,539.16077
263.0898,725.42523,371.9122
1010.85486,812.5413,329.64792
1122.4548,843.116,235.42056
667.4743,926.3723,112.20977
50.222923,1412.5496,21.602863
-1044.846,2526.6104,164.43073
-2802.511,2904.348,525.38934
-2781.5198,2226.8652,470.7834
-1979.1538,1311.5507,292.18048
-1285.373,405.77682,87.79185
-904.2165,-635.5347,-31.50059
-629.51886,-1834.6915,-357.0497
-753.5757,-1494.6763,-88.47763
-929.5191,-899.98737,190.6025
-1523.7761,217.29489,155.93619
-2435.4666,2507.5476,802.3404
-1792.9974,3455.9045,1179.6869
-704.98755,2118.9526,682.85504
-98.21983,1207.2896,315.56882
504.35208,881.5179,86.30855
1034.7683,398.85812,-6.5173483
1219.8912,102.124756,-138.8885
874.1488,270.5189,140.6098
569.39557,154.67358,-158.8339
-561.6291,2450.5466,375.84903
-1778.9059,4348.854,887.76324
-2221.6213,3597.6147,997.7283
-1916.6799,1778.2408,754.0342
-1169.652,295.27405,252.33478
-684.4984,-680.6861,-129.54567
-680.1607,-1369.3157,-425.15146
-744.2285,-1248.1697,-236.92503
-946.82135,-786.3191,-28.27143
-1145.3027,-362.7473,-39.865185
-1927.2562,1293.0437,527.42535
-2129.647,2077.9707,1101.3589
-1575.9938,2317.9363,1108.7594
-899.62024,1939.4297,992.1569
-217.35538,1028.2166,643.4461
233.83003,614.75995,336.1077
766.17065,650.68567,380.3033
1023.06305,736.8569,311.8214
823.53314,598.2612,216.53798
416.69724,1063.5558,306.15988
-617.9091,2655.4834,837.65826
-1803.2863,3306.0505,836.16364
-2584.6936,2379.5422,960.3545
-1969.8557,1252.7188,455.1684
-1084.5536,417.24603,224.64941
-779.6313,-337.12994,1.0649493
-517.9088,-1224.3632,-390.6087
-640.4995,-1197.4666,-359.69644
-933.94556,-894.66266,-120.34927
-1453.7682,437.68213,193.80551
-1984.8375,2025.6959,1051.2665
-1508.2917,2129.7158,1401.2798
-851.62317,1649.3196,1290.9012
-361.23196,963.2021,840.7222
39.647556,755.4795,411.61618
405.17383,632.71674,274.81262
874.25055,460.89935,-0.28925464
953.87384,489.4498,-56.8854
799.8886,648.2869,-41.61341
160.97441,1632.0695,578.5485
-843.4971,2932.3262,1491.2837
-1956.6945,2957.7476,1814.03
-1885.5928,1789.0883,1350.7498
-1260.8326,570.74506,609.2249
-883.573,28.193874,171.7388
-591.6587,-829.15,-334.0037
-485.53873,-1053.8397,-522.3658
-760.4196,-752.5322,-346.4394
-974.0142,-399.08774,-265.31976
-1505.1213,795.7209,492.82117
-2008.6852,2193.8447,1502.4937
-1566.1631,2325.576,1668.7188
-832.6007,1550.5636,1226.8127
-39.890156,850.4938,576.76276
444.85788,617.0105,332.5347
854.9204,330.19867,151.48807
932.83636,278.96405,140.5924
802.6694,195.8629,95.49837
441.08896,626.8804,197.75899
-191.29152,2321.2358,873.5795
-1295.8857,3752.0818,1489.7345
-1808.203,2978.342,1187.2367
-1342.0568,1441.5359,615.5465
-918.70184,343.55142,221.82617
-626.3563,-618.8115,-225.31923
-538.76324,-1252.6753,-620.18274
-701.9323,-911.8753,-406.26727
-1075.7545,-550.1076,-235.5252
-1698.5312,713.4249,615.7496
-2098.6323,2007.4352,1704.1521
-1457.427,2188.3208,1942.9492
-715.34106,1582.0994,1609.1842
-27.742357,859.4581,921.4254
414.31366,631.98376,617.78766
671.75195,183.32045,236.5342
933.66614,98.33071,-30.789583
988.2397,127.48446,62.60646
863.6327,356.41443,22.577353
557.0367,1635.1733,724.53436
-391.05585,3363.5208,1827.5564
-1207.6383,3472.1587,2013.7877
-1608.6218,2333.1355,1590.73
-1114.87,830.88495,588.61426
-857.2087,-86.66684,0.10279959
-615.7391,-712.2497,-800.5284
-697.4279,-745.7785,-844.0351
-954.6305,-536.79016,-614.2254
-1273.9657,-99.46428,-159.80354
-1748.859,1078.1572,1206.6633
-1975.8214,2052.843,2236.7495
-1243.4208,1969.7397,2385.1594
-452.63184,1150.2047,1669.5222
222.4487,555.6355,765.5669
576.65283,387.67996,445.46527
910.8721,116.3136,74.90595
899.4905,186.3722,-58.803177
927.8421,340.07593,117.833206
422.72116,1329.4319,951.2984
-508.36356,2493.0444,1833.3768
-1631.1542,3221.137,2517.1199
-1846.0306,2144.6033,1642.4606
-1316.4731,1174.8082,857.9852
-940.3331,105.96397,150.52747
-821.5998,-525.6061,-309.5257
-794.1684,-1157.9766,-640.49347
-1026.4017,-957.35626,-512.321
-1189.6056,-826.7849,-477.40283
-1626.7578,838.70483,473.24225
-2048.659,2361.3547,1372.4521
-1439.0737,2776.088,1502.9045
-714.92645,1980.6176,1251.9435
-196.23459,1003.1037,741.09235
271.42114,702.15356,492.49072
789.33997,307.79993,245.54079
1016.79913,84.01682,119.32764
981.7627,268.02835,133.89827
779.28986,392.71774,148.11188
240.49124,1697.791,475.17737
-980.24445,3797.6406,1203.8329
-2103.2607,3625.3645,1284.4926
-1840.8035,2213.7188,804.09216
-1247.9539,893.27484,248.43654
-876.51385,0.7863224,-5.988799
-804.33984,-758.6547,-269.0991
-631.1425,-1249.0513,-395.738
-748.5552,-1021.703,-190.05751
-879.0914,-696.43365,-39.488716
-1299.1073,550.4781,365.21307
-2002.1583,2454.5332,1079.9727
-1578.5264,3179.7463,1409.6339
-793.11487,2195.5364,1150.3324
-194.92166,779.4968,692.3227
278.52396,527.963,320.1847
890.4381,269.14297,192.43295
1081.2097,248.54396,228.1973
1059.6719,341.93387,181.13947
583.38806,1166.6473,331.26083
53.724358,2167.87,510.62085
-1023.01044,3424.3643,1259.7839
-1796.9211,2811.1223,1188.917
-1570.6536,1552.0006,640.7423
-1258.6447,360.48965,330.571
-853.23096,-705.0194,-123.78021
-658.26715,-1227.8783,-187.26508
-706.645,-755.68066,-47.32678
-828.62494,-502.36108,-74.536285
-1054.1658,204.55835,191.89517
-1811.6111,1303.3535,678.36884
-2378.1914,2517.7124,1073.5367
-1382.6967,2636.5933,998.3657
-169.32465,1393.5447,558.90607
331.9576,912.75824,312.9646
876.6134,622.7471,242.5485
1168.2354,234.84084,136.28653
1001.26117,172.19276,103.12211
614.9426,406.79788,140.36078
-173.30402,1840.4773,451.50934
-1841.9705,3291.3635,774.07104
-2253.0217,2775.415,783.3375
-1707.777,1887.5643,579.0185
-1299.2493,812.95886,-23.320395
-630.6353,-33.18322,-136.10333
-326.09204,-731.6059,-465.67944
-133.97672,-1162.3429,-546.885
-673.43286,-809.58527,-373.54532
-937.08746,-591.79065,-227.57848
-1696.8723,316.78873,169.81877
-2390.3877,1446.0869,736.64026
-2116.9558,2378.745,1241.0935
-1179.8883,1783.8231,1023.22516
-616.27264,1057.7773,840.02264
-40.87245,788.5494,554.9693
538.8297,494.7337,368.77023
1029.4982,266.08725,242.52754
1021.2003,349.06696,263.3205
767.27856,428.13382,190.71587
23.620846,1652.2468,151.80724
-1361.3351,3470.459,487.37128
-2561.966,3272.4243,472.033
-2172.2075,2149.3186,124.4553
-1642.5708,1151.1633,95.498184
-1130.3519,-44.513878,-135.73221
-723.94305,-1347.5753,-302.54535
-416.70193,-1642.5371,-156.61392
-812.72253,-928.4723,199.15604
-968.09485,-740.60156,-20.039564
-2019.3153,815.9713,44.802124
-2763.5774,2519.0625,428.23843
-1479.8215,2366.359,484.68497
-852.8305,1725.9011,454.21582
-434.8962,1092.3151,313.917
152.48122,946.3179,86.98063
896.2745,799.99695,104.74477
1175.2185,661.0797,91.24336
886.1152,596.8614,78.09285
303.9235,1097.0577,-375.82947
-621.3359,2398.4302,-290.55875
-1670.1473,3217.262,-79.60837
-2223.5398,2764.7915,36.00012
-1925.5491,1676.214,49.9656
-1368.1759,631.8145,61.009003
-1068.3585,-168.9031,-5.4357014
-807.4375,-1652.7391,-315.36472
-861.02325,-1636.4352,-139.30028
-979.5892,-1164.5138,176.03702
-1218.3987,-159.75584,127.63339
-2499.399,1793.1378,585.33923
-2295.3528,3256.337,1184.9131
-1044.2457,2413.3955,928.1971
-355.05798,1341.3396,699.2778
-48.17916,883.4295,456.44064
527.5225,634.86786,168.14018
1132.4666,266.9252,73.26308
1128.2063,355.52094,-118.24365
887.6297,522.97034,-126.07551
307.80682,1623.9698,-295.61758
-985.6331,3802.798,478.90698
-1680.282,3191.0046,1018.40283
-1842.5494,2092.6406,468.40805
-1553.2446,779.429,329.07288
-1207.924,-122.67522,323.6649
-895.7386,-1343.199,-137.912
-769.1346,-1703.233,-253.24147
-935.84985,-1083.4011,140.68127
-1088.3676,-584.3809,10.13065
-2057.8188,1162.6409,507.7337
-2305.7112,2672.5544,1193.8802
-1256.5647,2513.5073,1037.2803
-480.50552,1646.0427,905.64935
-145.93271,1148.9661,737.8642
356.3949,693.04144,384.79395
1011.5049,387.23538,204.50655
1303.4015,263.9357,153.7736
958.09155,411.43747,24.450745
464.14484,783.6738,40.612175
-233.27882,2328.4302,103.357185
-1721.4557,4077.9814,599.87756
-2510.9062,3032.0632,661.11346
-1718.9515,1659.0005,250.19357
-1185.6671,744.67145,76.03185
-891.9665,-109.27904,-107.747
-729.1655,-855.65594,-228.27284
-582.4115,-1284.9198,-318.43945
-856.57733,-1056.5293,54.46247
-820.5227,-608.4442,241.6336
-1390.6848,682.591,381.5399
-2115.8066,2202.1182,1004.32935
-1751.3352,2801.5867,1129.6891
-900.9639,2220.3005,723.828
-339.68613,1174.7086,614.59656
7.2097125,664.3396,310.4722
623.17334,394.5221,143.19922
1105.3505,385.1373,197.005
1087.8523,459.79034,172.7424
758.60254,647.3842,-35.333523
122.76583,1807.1232,17.688103
-1166.2347,3788.5562,152.40398
-2409.5994,3370.4414,395.5051
-1776.656,1876.0505,166.3228
-1338.3563,856.26105,-18.334566
-1028.6486,81.50579,-71.029625
-822.5116,-808.48175,-163.59064
-668.5339,-1382.2645,-260.402
-824.6593,-1008.97784,63.4376
-942.6822,-530.78754,166.25044
-1539.4403,496.54453,195.67113
-2199.574,2378.2834,788.8348
-1660.3904,3015.0347,1100.7975
-697.8212,1636.298,756.69543
-323.5596,1025.5205,758.8576
36.128532,689.9095,495.53894
490.20963,509.64328,452.5294
897.0172,296.08398,356.06592
977.804,321.69482,195.53406
665.073,550.60266,47.79918
234.8406,1610.3662,112.359764
-995.9948,3237.8933,233.97891
-1926.1799,2743.5022,321.68372
-1521.7468,1717.9636,169.95004
-1343.5509,777.9547,130.77806
-988.23865,37.220013,155.20255
-566.3091,-750.43005,-43.871468
-322.79034,-958.36444,-12.840395
-423.8149,-688.8606,130.5863
-416.8903,-389.53333,142.704
-634.97974,-92.22567,224.36337
-1392.0626,1176.8608,439.8285
-1875.9172,2999.4634,951.719
-1430.7704,2195.0532,685.26697
-909.88995,1613.1473,705.6478
-337.95004,942.3232,487.2134
366.16406,531.8405,251.47342
747.1144,386.24683,248.3377
793.7206,252.05627,36.121826
599.89844,322.92477,-94.994576
230.9284,1174.0996,33.985725
-668.3397,3013.5815,178.74243
-1525.137,3955.7888,166.64395
-1700.0675,3163.7456,112.21236
-1226.6644,1527.2686,-123.07699
-1086.3419,266.92703,-245.34854
-895.4676,-440.0463,-379.07947
-760.0526,-944.3931,-344.40192
-896.26385,-842.20447,-221.06456
-1190.5155,-555.35504,-94.955025
-1462.6334,-265.77808,17.696363
-2138.8308,1224.4861,559.93634
-2111.0312,2809.907,1294.5698
-1084.8495,2269.3567,934.661
-381.82465,1619.1787,779.65656
84.56204,1111.7429,498.55518
756.43317,479.18826,281.85074
1185.4854,33.203102,98.13616
1035.357,109.82353,65.748146
656.05396,340.13513,29.849943
-206.8393,2212.7605,444.90848
-1486.4418,3726.374,967.12427
-2288.398,2835.6252,992.9771
-1628.0303,1512.1117,706.86395
-1055.9619,553.58887,439.7969
-613.6487,-350.56696,15.88534
-421.41928,-1153.882,-151.71416
-493.7113,-1234.8495,-187.86862
-856.4797,-910.5333,-68.66894
-1174.615,-544.8278,-111.95587
-2129.6514,864.152,415.93497
-2718.787,2898.8606,1067.5652
-1509.0405,2632.052,900.2961
-657.0034,1509.4003,668.90186
-79.41282,964.1392,378.70505
369.7644,711.7587,286.77487
935.9163,273.2101,132.31058
1035.5004,167.56624,63.398148
844.37134,170.26103,18.895773
344.86752,909.75366,159.89438
-519.7797,2805.5188,548.7484
-1618.8778,3363.3591,771.66943
-1961.4828,2543.6414,732.5144
-1397.2981,1342.6307,432.7727
-924.0352,253.75145,268.99847
-526.38464,-977.62115,-39.970676
-432.93143,-1449.3452,-102.25633
-730.00433,-1073.3318,70.82088
-1035.74,-784.15784,-43.317394
-1772.9385,456.48682,97.59271
-2610.21,2422.344,716.00665
-1725.2319,2657.9734,778.63293
-706.32446,1678.3369,653.5562
-96.52354,1113.9623,473.88406
423.0291,901.46936,298.07385
967.2118,462.4156,160.57037
1026.4858,179.65685,-28.317236
863.75726,350.12048,-15.891414
453.57407,859.21344,48.691288
-229.69897,2224.8933,187.19096
-1547.8994,3512.1218,467.93927
-2145.1965,2676.95,483.2269
-1374.0125,1409.8755,250.93217
-911.5969,747.41345,262.0566
-608.91614,-202.07225,268.06354
-362.44275,-1043.9142,284.92493
-605.0461,-1022.4452,437.73636
-942.4387,-726.487,337.28058
-1587.8647,136.03099,339.95456
-2292.3176,1051.4104,383.96933
-1881.4279,1715.1141,372.19977
-1127.8915,1782.7566,377.1772
-387.48184,1631.542,360.52628
232.20601,1216.4368,278.70416
695.5245,752.59326,91.46265
1011.281,773.18506,-55.744904
922.4334,787.20465,-203.79398
611.86066,974.4288,-178.21922
99.06914,1635.4438,-45.045944
-1176.1959,2302.5278,259.70084
-2107.4702,2466.9912,485.47974
-1885.4572,1606.5344,593.14514
-1276.5135,599.68,501.6841
-720.34143,-437.45078,338.2842
-301.7817,-747.44116,311.8129
-373.8482,-897.2635,270.38986
-729.9552,-949.2032,215.78362
-1452.8429,-545.40643,119.420364
-2174.4507,250.23167,-101.395004
-2245.0662,1436.8529,-74.01333
-1836.7576,1631.3702,53.310455
-1311.0365,1434.3757,50.563866
-736.2207,1442.4849,92.85758
110.43473,1341.8099,104.383354
799.47437,1244.0793,30.502665
655.1606,1081.8588,-136.48929
-55.901413,1065.5338,-201.86212
-859.08374,1213.1511,-327.7158
-1821.0667,1540.0449,-247.91661
-2245.758,1625.4039,-224.27641
-2393.801,1571.0247,28.953838
-1798.3352,1103.1134,318.97577
-1123.0515,-5.6807895,210.26048
-504.48987,-1105.4122,12.2021475
-450.01474,-1052.7245,64.42621
-585.72906,-820.83386,101.978424
-1142.1764,134.01505,300.4266
-1427.1257,914.8714,332.85843
-1053.9883,1374.6003,582.507
-778.07947,1863.6453,850.85754
-534.0724,1548.2992,938.7395
-146.76746,880.4458,711.4471
190.77576,368.12634,559.6114
531.4655,142.95955,340.0244
618.8916,19.356255,152.01288
658.5662,478.21323,150.16542
302.17322,1308.8566,197.39107
-418.63495,2327.49,438.2001
-1321.4866,2865.3625,596.80536
-1503.093,2119.5847,638.5644
-1313.8771,1085.3273,578.649
-905.0211,21.544174,400.36423
-530.1179,-803.4571,231.82068
-371.73605,-954.1441,96.98645
-636.72723,-712.0649,116.39352
-1115.4982,-369.2958,153.02783
-1859.6626,531.2355,289.27805
-1872.9569,1669.7928,406.21902
-1301.7566,2320.3982,632.0301
-795.7859,1780.494,623.9131
-310.28998,1231.3645,602.195
258.26202,874.62177,558.0032
724.2939,578.9023,422.746
874.8557,466.80875,246.71042
633.278,614.1858,113.15692
78.85277,1279.81,162.24074
-944.3577,2412.419,467.2623
-1942.2034,2389.048,483.29886
-1643.6948,1628.2747,483.8732
-1200.6262,995.27386,448.32382
-876.7068,-291.87045,199.1181
-458.34085,-862.5942,189.08226
-467.85226,-846.71765,141.7426
-782.41077,-781.64734,118.60384
-1406.6746,-348.46915,110.275444
-2079.2197,434.63892,275.59842
-1940.4116,1712.9242,589.56244
-1456.4124,2016.2792,914.4194
-756.9699,1260.6064,863.1426
-73.841835,802.1567,707.2844
719.1098,868.5575,529.1586
972.1268,610.4322,234.28474
822.0692,683.70294,80.584366
282.11972,1067.0443,103.77628
-432.545,1619.3157,317.23663
-1878.4199,2508.3066,639.33594
-2505.51,1853.7317,715.5326
-1765.9906,991.06976,766.995
-1113.7839,-148.82658,505.59064
-578.74164,-1195.0521,252.23015
-601.8747,-1022.6745,162.01114
-693.1043,-999.40674,4.842729
-1228.6444,-453.18277,129.96594
-1688.0814,304.85962,241.84657
-1625.4352,1320.8663,665.7359
-1281.042,1436.5818,984.8794
-787.1423,1197.8955,947.98694
-157.05782,1098.0421,742.8567
469.36954,1228.256,649.08685
944.7976,1095.3715,556.47253
788.0519,1090.6324,320.48825
352.92178,1074.9008,175.86601
-571.7334,1520.7222,295.45886
-1499.1501,1512.7314,479.21027
-2355.3796,1437.7628,539.6915
-2067.2075,863.5617,634.971
-1441.3811,201.08618,452.0129
-666.7555,-886.26526,218.22816
-498.6567,-533.9654,316.75104
-485.09146,-679.80505,403.6138
-901.4594,-240.36232,715.9638
-1709.1326,166.42589,915.63275
-1720.5562,652.3412,1223.7141
-711.19055,1021.3758,1273.3213
-107.502815,1055.0696,1128.2986
61.85122,919.42035,781.1445
276.7779,997.1291,611.61224
566.0201,871.75793,408.32187
576.47156,913.53467,390.38724
307.66174,1177.4329,849.7543
-31.445196,1592.027,1465.1852
-308.3824,1543.7585,1790.588
-720.20435,1152.1508,1450.7793
-384.0205,1009.45447,1180.5636
-94.18061,488.36813,1116.7593
-147.30275,-362.90594,547.9669
-446.8118,-437.74588,467.12024
-438.13385,-262.12445,191.84094
-279.3927,134.24072,532.67505
-330.25613,-148.55934,514.63696
1205.5176,-152.71188,496.3579
1263.4208,484.38254,665.43823
1503.8287,336.0154,354.2828
1099.2594,742.1894,569.72205
689.05646,423.57083,266.68314
214.36989,431.02527,21.231415
-13.172551,613.3242,-70.1946
223.60014,790.4694,-87.804214
100.81323,934.1225,-65.50125
791.7741,959.8936,77.474434
1307.8131,475.78085,78.85655
1136.9706,103.366196,292.9677
734.6558,608.55286,646.53284
-240.42264,568.6991,432.4799
-1078.2269,212.22714,530.1465
-1146.4866,362.34406,591.07983
-973.68256,549.30414,767.6069
-762.1739,56.054497,646.65
-435.32742,-215.30396,1077.257
101.687675,463.57266,1846.2927
384.47537,816.8106,2542.1562
272.4008,1737.0157,2038.4023
85.462685,1654.3707,1295.2466
45.70352,856.2436,660.8517
181.981,498.0408,425.37292
272.2533,348.76678,390.91785
547.03564,451.11237,323.08618
550.7459,652.8796,294.67307
286.7998,1620.6722,482.3371
-267.83676,2799.956,562.46313
-1162.5979,3725.7356,679.1912
-1514.2756,3021.0442,486.83563
-1060.2267,1172.5533,75.97014
-855.1764,159.89746,12.701437
-579.56055,-524.4461,-176.75963
-482.11627,-1026.8956,-236.50877
-600.5187,-696.5794,-190.06047
-884.117,-579.2849,-129.47519
-1143.3083,769.653,178.56523
-1508.5182,2554.1267,1021.7031
-929.5335,2894.8318,1296.277
-426.64258,1978.1818,946.9667
26.26846,944.4117,633.8674
277.54318,585.01294,352.7035
682.5047,130.32793,295.4792
873.9028,-94.956375,192.72832
891.14484,-120.28715,33.382595
755.86127,30.778872,-51.17428
237.78934,2821.9324,450.90372
-939.8588,4493.748,644.7123
-1456.4973,2893.3794,510.65976
-1129.6049,1640.9684,295.47116
-810.5389,124.965675,103.519066
-559.9138,-657.6966,-76.64006
-484.16534,-1194.1494,-149.454
-772.44617,-744.73083,-60.731922
-1024.5763,-664.20825,-71.91008
-1644.1166,976.93823,183.88123
-2054.7944,2996.65,856.5362
-1093.8108,2947.4946,891.2555
-395.58655,1722.7009,577.5166
19.974918,929.6139,533.59247
652.9106,374.9356,361.69342
1156.0286,13.04839,293.73972
1101.8777,-149.39966,167.39093
754.061,98.00873,137.07373
535.24634,157.95015,-5.51056
-889.02637,4076.6733,811.41486
-2212.8398,4601.792,956.76184
-1824.5509,2574.5461,604.549
-1227.4957,1241.3162,309.7621
-933.9737,-200.25827,143.42221
-820.08844,-1362.3536,-248.96147
-595.614,-1773.9896,-315.14767
-884.958,-1133.5593,-207.26971
-874.6275,-591.3976,-243.23108
-1229.6595,108.42297,-52.591553
-2670.3557,3231.2273,995.855
-2231.724,4341.8784,1194.6832
-931.2568,1357.9702,642.59015
-300.2163,736.1387,538.45197
140.37865,-26.380207,436.2336
307.5323,-122.9587,454.44034
693.89856,-667.998,303.6653
726.87354,73.45114,264.7694
791.22363,-147.70648,337.39505
301.24457,2822.696,522.7464
-564.30176,5241.84,298.80475
-1877.1016,4221.0493,124.42061
-2284.5374,2274.9958,-220.8879
-1517.1552,393.43814,-210.8517
-938.7283,-890.38446,-245.25685
-745.5338,-1543.6882,-190.91995
-655.11615,-1371.097,-170.42137
-1043.4744,-832.0797,-34.66932
-1324.037,-335.63727,-223.64398
-2393.139,1010.13525,-33.88664
-3049.2302,3537.1995,525.4916
-1491.9218,3228.7183,516.30896
-585.8505,1904.5549,310.97296
-50.622574,1099.3428,384.24124
253.25058,605.66895,253.52525
950.8337,51.37515,200.16898
1222.1125,-111.142845,27.790514
1001.9809,422.93848,244.68364
773.64935,325.8328,-18.689856
-230.80038,2744.4497,328.60306
-2235.8142,5295.709,791.7912
-2657.3066,3561.438,401.9582
-1859.33,1479.4181,58.655758
-1229.2819,-53.27417,-162.59865
-717.098,-917.5729,-276.06805
-542.454,-1391.4283,-375.84613
-764.43896,-1140.7904,-236.88947
-1109.953,-898.33154,-239.1843
-1300.1722,-369.9307,-206.42755
-2440.8513,1813.3894,444.7644
-2438.8735,4014.2048,1006.1354
-978.58453,2767.5579,845.47546
-277.7709,1204.3899,559.62256
89.016884,686.2583,370.5415
391.53384,287.98834,259.54718
904.9489,-8.79754,99.5131
1021.58765,226.34947,322.21002
1043.9515,416.76147,274.61517
389.15915,1369.587,139.19739
-818.046,3960.5054,300.18234
-2600.1375,4268.163,598.54944
-2273.083,2447.045,192.19325
-1489.1603,858.7097,101.39254
-1047.9963,-231.67755,-10.666934
-676.55536,-1272.7318,-310.08685
-512.8087,-1622.526,-273.8727
-777.6515,-1076.0432,-94.50882
-1130.335,-775.3342,-137.71542
-1845.071,-128.77126,-124.481064
-3760.886,1438.8507,640.9599
-3380.469,3608.2476,1071.5664
-1134.676,2402.6565,635.7509
-57.02565,1434.3884,305.52148
345.77988,1259.9286,133.47627
763.9562,640.1203,193.0331
1242.7672,163.03278,-174.73543
1032.8148,460.07642,136.49666
861.3458,414.23212,18.618364
-49.996964,2081.6968,130.01793
-2272.154,5182.3696,680.5145
-3327.1616,4314.5815,761.3272
-2681.5063,1542.6432,315.7554
-1837.1619,113.8516,128.23009
-1017.3263,-1135.1073,-418.70624
-649.2179,-1580.4963,-400.0359
-578.8757,-1243.2449,-159.48947
-1046.5923,-981.61,-240.26933
-1356.7833,-502.8705,-266.80692
-2324.596,554.33905,-4.42404
-3195.452,3387.2346,709.64526
-1971.081,3870.4263,807.0053
-658.51544,1498.2803,488.71884
82.85742,677.97034,278.88123
597.04675,459.6837,299.89835
939.7539,308.83786,258.50204
1026.2231,142.4333,38.86305
802.97845,518.299,359.03897
758.22797,882.2322,-82.80337
-553.38,2726.1587,775.98834
-2688.5403,4594.9497,1875.3743
-3491.9937,3894.7917,1450.8271
-2528.9546,1140.7557,638.9843
-1836.4896,33.23937,-3.6648085
-974.6201,-1760.9768,-1061.7943
-537.2683,-1978.2721,-904.71533
-651.8854,-1497.6028,-389.70572
-1382.355,-735.0737,-451.9774
-1818.6036,-38.627666,139.40952
-2870.0625,2628.4382,666.71497
-2234.3862,4080.4492,1229.0465
-913.5281,2202.8794,896.8228
-303.59064,1030.1892,626.1166
164.34612,534.23126,551.31134
711.37085,-17.36858,286.4363
1144.7795,139.33902,377.0507
1127.2517,443.62234,615.342
772.5507,630.53265,262.3442
75.271706,1528.7168,255.2688
-1591.4105,4056.6047,808.29016
-3511.7563,4277.0483,712.84436
-2692.7085,2160.3547,304.87485
-1709.8079,748.25433,-100.91709
-1056.2601,-338.8156,-200.01308
-773.65076,-1058.4408,-333.33792
-670.3357,-1478.8275,-475.49634
-961.4358,-1098.7266,-213.2369
-1058.4836,-860.9213,-207.64558
-1592.0634,490.84286,101.41473
-2256.2625,2950.759,914.8622
-1318.0189,3406.95,995.5208
-467.94415,2338.1304,847.20264
33.457985,1134.1284,452.03424
385.82837,495.9287,348.19208
833.20026,-63.589706,75.34319
1179.3315,-303.6574,-134.38492
960.3693,96.71159,-5.8882036
806.5844,391.90637,121.88265
9.09184,3286.562,230.46048
-1600.099,5367.505,622.7383
-2280.2598,3124.6912,462.82977
-1781.9661,1351.3341,204.86192
-1105.7472,-155.00609,-63.560345
-916.1758,-963.2068,-266.3406
-657.5938,-1598.6135,-383.79385
-933.8621,-1073.3041,-132.53354
-1027.6672,-847.8112,-186.37744
-1842.7428,666.41327,264.02728
-2449.4453,2505.5127,994.75116
-1745.8552,2969.5427,994.26807
-821.706,2065.4783,913.1454
-184.58987,971.1482,600.75104
351.05093,295.1348,422.3607
917.07355,104.575386,361.59705
1246.5127,-204.04202,26.421185
975.9139,264.06543,171.77826
836.4274,436.6363,-38.4137
-594.9225,3488.3298,816.0097
-2378.6206,4933.314,1321.0448
-2886.3438,3128.6243,1090.6283
-2200.3552,1434.2823,445.19986
-1213.0255,-169.49506,-39.320084
-896.6258,-1442.1085,-530.5694
-876.8807,-2272.5337,-830.20496
-1239.1677,-1616.0404,-519.72906
-1568.3164,-749.27075,-334.5825
-1993.8966,-269.08887,-218.30429
-4130.385,788.1465,726.77686
-4666.184,2227.5415,1148.6143
-2266.7007,2224.0903,801.3135
-265.15375,1842.0262,437.3341
1325.0771,1732.9324,-66.761444
1707.6023,1673.3695,3.0864158
1196.4476,1478.5386,-94.0549
406.14426,1859.7589,755.579
-1273.5812,2708.4685,1296.6307
-4349.9614,4785.3135,2046.4641
-5901.9297,4408.4736,1273.5516
-4366.2324,1516.2667,37.810455
-2807.132,-1281.8026,-1474.7493
-1646.8295,-3819.602,-2126.6633
-1444.8638,-2606.0173,-1106.9414
-1966.2853,-1165.0522,-547.7884
-2813.1235,-37.034363,163.95189
-4040.6094,512.3528,691.9499
-4170.3823,2430.7212,1284.9735
-2193.632,2253.873,803.9465
599.9778,2756.6907,58.86154
2142.0327,3067.414,-241.26747
1191.0221,3381.7883,490.66226
-285.02737,3222.585,1179.0138
-3181.4346,4554.473,1704.17
-6163.713,4713.2046,1039.8613
-5241.1294,1986.356,-349.4327
-3720.075,-1769.2286,-1878.1582
-1912.835,-4244.713,-2033.2495
-2135.5303,-2797.115,-1101.6001
-2616.0464,-602.5117,-71.81511
-3418.3965,1583.115,743.0563
-3343.4524,3306.3855,1463.9457
-1004.8834,2869.446,1078.7766
1262.4578,2030.4581,431.9715
2428.438,1991.0277,89.1488
2307.6013,2833.6409,440.86255
-124.29876,4170.821,1007.7297
-2466.477,5030.626,1407.3741
-4455.9736,4122.4087,1084.7673
-4676.614,853.1415,-568.1568
-2817.874,-2292.8354,-1670.3898
-1974.9282,-4171.7554,-1690.4688
-2511.4653,-2396.3967,-471.34302
-4315.938,258.093,484.15283
-4783.399,3294.2263,1501.44
-2137.2888,3156.343,893.3375
1322.2976,3595.7485,278.8697
2691.5242,3375.6895,119.19619
1762.234,3805.941,452.3491
286.06186,4332.451,1021.2241
-3576.6953,5615.1025,1727.0464
-6291.346,4434.0684,911.1796
-5556.6543,-185.7525,-1624.8632
-3152.2537,-4597.711,-2835.4338
-2349.3179,-4050.2686,-1655.9657
-3525.3635,-1109.7634,-333.9239
-5485.6006,2370.7273,1189.4952
-4085.2307,3930.3477,1847.9386
-268.18982,2772.2754,1345.2904
2541.282,2829.4104,512.2688
2700.3428,3838.4265,-157.16893
868.60925,5047.455,490.5505
-2403.8093,5474.1846,1926.4312
-5874.031,4719.0693,2466.6855
-6358.218,878.2858,-336.93912
-3661.0398,-2960.0608,-2409.054
-1866.3452,-4777.4585,-2293.0706
-2465.759,-2415.392,-782.2214
-3378.4834,-622.393,213.1544
-6283.582,1353.726,1013.11975
-5559.612,2744.423,1046.7067
-1236.125,3027.3306,102.86264
1882.2346,3678.7935,-1085.229
1821.4835,4690.9307,-715.4169
1158.036,5415.1772,648.4477
-2603.8118,6940.163,2890.4019
-8563.969,5221.6323,3401.4036
-7204.8735,1564.8566,-456.54355
-2727.8877,-5531.4565,-3640.5537
-2305.339,-5917.443,-2326.517
-5020.456,-3182.6646,-1009.6661
-7604.395,-334.24365,-31.775112
-7164.393,1512.0303,494.48907
-4377.611,2825.6084,10.221659
-1643.8375,3331.732,-761.09015
791.00995,3559.6904,-989.20404
2623.103,4310.225,-2201.2778
2178.1619,4857.384,-1847.8082
-820.28094,5787.8823,-226.3574
-5824.4805,7825.193,1455.2583
-8585.65,4751.208,802.5429
-5647.9487,-1760.5483,-1438.1857
-3563.204,-6615.3423,-2651.9868
-4201.9414,-4944.8823,-1683.7117
-6769.3145,-1443.1338,-567.03894
-8057.511,1182.4546,255.95834
-5611.9517,3234.489,256.74408
-2715.4382,3215.914,-459.6375
326.26425,3852.097,-915.3814
1790.5499,3238.922,-709.3003
1581.3716,3744.4749,-521.54846
1018.35864,4607.11,134.1756
-2032.8348,4863.8696,973.95264
-6182.801,4813.5566,1389.7932
-6711.402,1995.4786,395.25818
-3371.9224,-1181.7465,-1058.7933
-1573.3451,-4572.611,-2446.9612
-1556.9899,-3993.8867,-1922.7858
-4612.425,-2070.9778,-1262.7128
-5419.823,-817.0428,-718.0434
-6356.9326,524.7607,-682.2707
-4788.8804,2819.4116,-81.25723
-2997.8176,3398.7542,-242.67995
-294.8829,3881.3674,-399.3566
1258.907,3561.7952,-766.905
1827.7515,4554.976,-662.52496
632.5227,4254.1055,-0.8094233
-2377.0232,4309.88,633.24963
-7215.5815,4066.1582,588.1549
-6848.288,1432.9019,-213.29373
-3255.202,-2860.7822,-1575.1229
-1678.6688,-4642.0337,-2360.1313
-2540.8872,-3574.2014,-2156.7344
-3688.6628,-1627.759,-1582.3901
-5104.466,195.09222,-675.15186
-5305.4985,2548.7776,592.3347
-2576.088,3038.435,968.3239
-370.09433,2843.1824,772.47076
1211.7567,3599.356,370.27902
1715.1033,3450.9216,153.96733
203.05109,3403.1746,379.37634
-1147.0967,2274.828,672.3049
-5379.924,2631.3086,814.64526
-5573.7505,395.10617,-95.32276
-2593.3762,-1189.0376,-1053.0851
-1111.7452,-3573.8245,-1952.7336
-681.74963,-2827.906,-1888.1952
-2098.9846,-1770.174,-1062.9298
-2994.9573,86.303764,-195.38007
-3838.8726,2275.4585,1305.9125
-1070.4877,2343.1963,1218.9918
414.82138,2871.317,1096.388
1698.8556,2884.694,674.92944
647.3617,2479.5686,446.03018
-82.1151,2044.897,290.49612
-2656.5935,1830.4677,430.84427
-4364.08,1290.2908,294.3798
-2161.0476,-516.5206,-566.75916
-819.9815,-1550.1793,-894.0097
-211.02028,-1902.453,-1071.7393
-773.27875,-983.04297,-496.497
-1714.8774,-147.09467,184.99406
-2009.4026,880.1708,562.89105
-1539.6416,1663.3489,1220.8572
-764.0679,1125.5238,935.6334
-148.10019,1039.1404,769.548
147.70767,1188.8647,619.4356
80.79215,1107.9271,342.39508
-1076.8062,1591.734,483.98624
-2207.6887,1153.0616,525.16016
-2026.6641,598.1508,341.21054
-1570.3872,98.5567,302.58936
-1304.756,410.2428,308.9566
-955.828,363.13785,360.55072
-622.7839,272.39346,254.79662
-391.93808,37.99693,228.53209
-340.75275,177.78873,250.32689
-342.16708,89.769936,255.97418
-355.81076,163.9953,265.8913
-477.86465,117.501305,301.70273
-917.96747,366.30496,285.93146
-1078.5059,519.532,341.68173
-1011.3549,601.70087,462.99976
-1007.3794,468.63107,542.86584
-1014.96625,602.4345,455.7142
-1015.1456,400.08374,435.9369
-964.30145,464.02725,346.03265
-924.6187,500.01428,429.18253
-898.22754,783.1773,468.79388
-934.8218,800.3846,526.58685
-898.13635,807.1899,492.0912
-984.5349,537.7613,435.1107
-1156.1957,694.7462,407.34515
-1113.8573,620.4294,500.9472
-920.72626,688.0818,352.10788
-1164.4464,651.6842,353.6191
-1397.6349,562.46936,339.54306
-1442.4558,483.10388,549.9948
-1281.2051,483.43823,484.87692
-1296.889,345.35266,700.69525
-1261.4708,439.25238,611.78375
-1272.0277,436.21365,727.183
-1199.8419,525.68756,693.06903
-1151.9353,551.1305,745.02765
-822.82056,516.72,630.36444
-733.9994,328.6905,723.8913
-508.1157,376.3946,673.94214
-214.65453,113.85055,733.4538
32.762745,-10.303622,659.64246
127.698784,-187.70776,722.64087
204.69588,-159.27724,559.8094
142.84521,-311.54346,698.44446
218.34789,0.31398812,523.2662
212.10349,-425.7147,574.7628
394.61523,-357.9689,209.92113
148.58723,-630.8204,600.65063
250.49445,-247.0515,-17.469316
-755.03937,-886.0655,1131.7191
-411.34097,-547.79706,1622.2069
622.3533,-49.581924,559.39465
535.07294,-608.13367,997.91187
666.46124,-310.3398,585.4897
418.03812,-555.9406,803.69586
580.4412,-377.28442,515.3719
568.6622,-432.6487,708.1596
756.00745,-340.10233,607.42645
562.49164,-381.79813,684.1874
840.53265,-474.49692,594.8461
