# PAMAP2 dataset (wrist-mounted sensor)

acc_x[mg],acc_y[mg],acc_z[mg]
-1721.957,-4118.957,885.32367
-104.7671,-2391.6277,642.83734
518.8121,-1144.2417,310.01877
677.7143,-561.4062,364.0967
924.2975,-308.11765,395.34552
1033.2772,-479.17883,326.7794
942.28455,-360.28683,288.4882
398.4865,-1005.43506,375.45584
469.28253,-1664.8412,15.483927
-164.45726,-4078.5107,249.75087
-1801.0963,-3943.693,159.92792
-710.1207,-1476.6927,51.74521
-727.47986,-512.06854,7.8037205
-658.26685,248.3726,-165.13782
-757.0687,571.49567,-325.27103
-691.9878,642.5615,-380.50452
-969.50525,507.0845,-502.9438
-1321.7262,455.5369,-566.8974
-1859.5542,-388.3546,-213.08817
-3328.9795,-3055.9587,754.01074
-2769.1362,-4680.428,950.88513
-292.8099,-2698.1792,679.13416
429.69217,-1156.3524,496.09683
823.0946,-632.4197,409.18997
808.1383,-100.7403,354.89142
957.1136,-247.24664,315.95184
839.9042,-355.42426,416.4181
706.344,-894.80133,497.21088
492.45413,-1614.0228,213.4936
323.15555,-3912.1863,280.95468
-1856.8884,-5653.547,-4.682289
-1753.9038,-2505.0,-190.83357
-1159.7126,-517.82574,-197.41408
-980.2609,164.46567,-184.77997
-946.3561,748.5389,-101.368095
-715.713,1048.6776,-374.58203
-749.916,707.6363,-469.52737
-1148.9778,341.8907,-296.26562
-1649.1722,206.51485,-341.55722
-2809.6016,-1988.0583,395.32013
-3318.6143,-4444.7817,1206.56
-1113.4866,-3556.1328,856.4912
62.902622,-1962.6191,653.7936
670.7829,-999.177,488.6644
790.71643,-393.42792,462.1667
1039.3893,-217.4075,400.4992
977.7588,-371.9734,416.19177
1025.8755,-487.0858,430.22742
539.46313,-1241.6298,128.96822
406.58447,-3084.5476,-40.035255
-1316.4943,-5957.29,-269.71378
-1784.9972,-3716.511,-243.60309
-902.8741,-782.40753,-97.579506
-1263.862,-112.69236,238.32295
-1402.593,867.6348,89.23547
-890.9086,1491.4076,-571.3462
-1003.9847,788.5314,-407.53238
-1280.6952,292.15723,-244.37439
-1627.773,189.65315,-500.30084
-2654.1711,-1199.4657,85.64729
-4238.794,-4552.101,1002.8714
-1931.9286,-4111.5845,1050.5482
-26.287495,-1850.8563,702.7876
688.8797,-1064.7238,482.09232
865.2959,-602.5571,442.45953
829.1054,-318.15076,641.48987
968.44446,-611.6931,503.66534
866.6483,-513.8827,546.0334
567.32434,-1054.7352,334.17035
549.947,-1764.1893,-89.08172
-207.42332,-4838.8823,-455.66495
-2227.1436,-6204.902,-742.4145
-1675.6768,-2202.5146,-449.23593
-1280.7773,-453.36618,-201.40106
-1424.454,528.9673,-182.77808
-1341.8286,1067.8353,-43.18221
-1033.5667,1081.6864,-47.90914
-936.92523,534.2685,88.48035
-1160.3344,314.68192,-331.30615
-1723.7242,21.472101,-368.20898
-3419.8127,-2252.0405,-61.00994
-4261.8984,-5477.215,521.20776
-1282.6248,-3692.221,750.9806
260.72586,-1878.1705,496.8909
1117.4426,-1126.206,639.65027
1010.0711,-546.6245,517.72076
1002.9879,-513.7854,506.69394
916.0773,-578.2974,482.85696
1028.9753,-640.436,544.3959
572.7026,-1202.93,240.65164
404.30725,-2950.2124,-112.90439
-1551.1008,-6423.5645,-487.39954
-2445.4006,-3832.4077,-482.38657
-1229.0613,-591.46466,-192.09245
-1119.1774,-2.7682855,-154.62302
-1008.2972,740.948,-148.75124
-840.20416,1034.8231,-299.9804
-886.7364,686.83246,-298.23508
-1094.5847,333.9247,-138.48463
-1313.6133,223.98767,-347.9097
-1850.5782,-446.11847,-73.062485
-3185.8762,-2902.2554,646.6094
-3080.2,-4579.2656,807.63965
-787.0862,-2892.1143,627.84656
169.63449,-1470.1702,532.86285
712.8835,-988.47406,684.8718
866.2057,-288.8411,692.58527
1025.074,-148.21286,584.43634
938.7141,-212.48431,562.8523
830.6232,-806.017,526.17145
470.64307,-1257.6985,49.331486
403.9023,-3563.0803,-399.47522
-1441.6624,-6265.98,-728.94617
-1813.8488,-3577.1362,-639.3381
-1355.3467,-988.24854,-187.44554
-1298.0126,65.17914,-2.9625292
-1484.2012,733.6271,199.96747
-1002.8261,1273.6698,-176.07445
-792.6875,849.9288,-313.62027
-1091.3849,358.1759,-19.561956
-1426.9028,188.68393,-279.68225
-2012.3317,-827.44946,-136.91927
-3435.2354,-3713.5037,817.75653
-2706.157,-4534.3535,776.19257
-434.28452,-2599.2761,678.9492
392.60318,-1445.9681,580.13446
1017.15796,-881.02515,481.16986
1044.0466,-382.18622,739.7717
1099.0988,-380.83856,725.0766
942.3973,-434.33417,560.55115
799.16565,-901.4695,394.3166
505.08234,-1774.075,-15.618371
-133.08607,-4345.32,-534.6615
-2096.8606,-6082.612,-732.49817
-1912.9169,-2710.0195,-473.13626
-1372.3352,-439.59064,-159.72688
-1407.6295,164.62907,142.54909
-1232.3292,1020.4314,-93.90833
-811.0578,1267.6884,-334.3879
-1053.2855,657.2887,-55.96396
-1111.8809,246.71367,-281.20554
-1444.416,253.71419,-408.31555
-2226.9346,-1050.3488,-19.08977
-3951.9424,-4278.0703,784.9732
-2057.4622,-4449.322,762.8054
-54.15479,-2000.1536,744.414
565.7761,-962.3766,627.94354
914.6182,-416.42096,559.0975
853.8513,-445.14023,665.06146
885.96765,-384.33252,585.10187
1017.755,-668.23035,576.0583
745.60284,-1142.9254,325.2024
295.76956,-2932.3853,-274.84058
-1224.4536,-5930.323,-740.53766
-2390.7812,-4523.589,-933.51917
-1630.459,-1136.558,-469.6231
-1075.2085,-47.10247,-309.28363
-1015.59546,800.5075,-136.75682
-910.3675,1224.2524,-64.18681
-923.3945,736.8342,-238.89056
-825.5355,552.774,-323.452
-1204.0719,108.96111,-387.40552
-1467.1173,229.29909,-277.03256
-3254.8743,-1759.5939,128.4169
-4117.066,-4718.7573,811.97766
-1668.4177,-3544.0881,725.26935
-32.81012,-1476.3903,582.5308
586.28955,-891.7143,426.20258
705.6121,-522.6628,336.2267
856.4311,-324.24286,507.5819
901.901,-588.7916,561.6071
789.429,-495.22568,754.10974
456.63354,-847.83887,445.5433
393.25613,-2086.4846,41.621418
-816.9263,-5813.2466,-235.39366
-2006.2482,-5029.3,-631.8253
-1563.0916,-1294.7698,-305.13284
-1198.241,-211.2989,-190.19405
-1016.0615,506.62418,74.6435
-838.5986,947.656,-101.94904
-747.51776,692.1025,-177.45161
-686.0341,518.4067,-82.47826
-959.1374,144.39053,-229.25784
-1270.7402,467.64954,-425.97485
-2383.5244,-810.0043,29.42895
-3796.1917,-3720.1836,581.4151
-2431.8694,-4372.409,816.54877
-415.75598,-2546.3645,528.6076
316.93225,-1322.4135,501.72195
875.199,-736.09985,441.34552
1018.5222,-400.61105,621.63794
1192.3895,-407.4516,596.8057
1234.7653,-630.1175,559.55853
650.15576,-1241.8981,242.25296
108.4989,-2978.308,-336.93732
-1630.689,-6426.14,-733.24615
-2558.6538,-4639.3594,-598.391
-1871.1074,-1137.098,-298.91226
-1636.7877,1.8735149,-125.885864
-1157.7214,1182.4747,-188.53123
-766.7056,1431.9382,-360.35886
-933.0803,764.9288,-223.97635
-904.8747,531.1432,-259.93878
-1338.4803,216.47752,-465.82104
-1673.9246,-55.81396,-372.19864
-3564.9937,-2177.6846,352.75977
-4124.906,-4485.853,897.17633
-1557.714,-3661.5635,727.9942
-202.52853,-1499.5325,482.06213
706.9681,-901.6595,366.65668
881.5174,-669.7813,543.88135
1136.2614,-611.93005,647.03644
1036.5331,-431.53976,658.34344
697.1666,-848.7346,483.63214
424.53284,-1276.3113,-101.01696
-230.78069,-4130.826,-664.588
-2021.6976,-6117.8257,-1004.24854
-1886.2162,-3040.6863,-842.7047
-1430.4882,-540.714,-546.6001
-1323.742,309.901,-101.214455
-1179.0603,998.63306,-133.03987
-787.0334,1285.4989,-504.43076
-1112.8645,711.59393,-287.39746
-1233.1605,414.35474,-165.461
-1603.0759,304.13742,-597.1137
-2918.807,-1085.4462,20.460083
-4843.126,-5135.59,529.5897
-1949.392,-4515.8857,419.35275
126.35614,-1589.7755,483.12158
851.08716,-863.5767,321.40634
1046.1359,-333.39255,449.5814
1065.06,-444.82843,473.69928
923.7074,-586.64575,593.91174
908.6248,-649.46484,531.5825
490.58932,-852.2902,315.8131
421.06683,-2703.2546,-190.76096
-1579.7152,-6149.1714,-376.73187
-2396.721,-4520.9087,-670.7774
-1526.1958,-935.8441,-327.63724
-1200.652,-13.066634,-255.01811
-1011.5359,619.6536,21.99574
-871.1837,1120.8224,-209.67099
-789.9632,837.81415,-257.78867
-998.1124,507.07953,-280.80344
-1226.0834,223.23474,-338.07373
-1445.234,258.8409,-428.28207
-3038.353,-1656.8881,149.30457
-4408.3506,-4858.947,902.7403
-1663.9915,-3366.8518,627.5065
-44.290394,-1451.5839,361.59567
606.9368,-956.73456,419.24954
817.7428,-497.62387,441.72372
915.1187,-416.21948,546.5933
860.2028,-549.3948,561.11194
941.61804,-488.47266,628.45746
645.6184,-807.36945,279.22693
382.92947,-3091.8743,-134.3381
-1406.4882,-6527.6133,-754.5108
-2368.2637,-4597.478,-879.99414
-1578.7706,-988.078,-461.9736
-1274.4087,173.14041,-197.25478
-1386.3207,1211.9697,49.460453
-942.84,1359.819,-225.01207
-875.67615,580.0951,-283.7399
-831.65356,449.1939,-219.02734
-1282.5577,171.85687,-247.15793
-1709.5596,233.90805,-292.4208
-4299.7324,-2262.738,-237.20213
-4561.8813,-4773.799,260.24414
-1415.822,-3804.7354,172.78271
222.1099,-1596.0756,286.46786
947.7687,-1401.2195,342.92072
989.7219,-883.4276,586.3302
1010.66394,-499.1154,639.6053
1056.157,-299.08554,584.25543
1014.10864,-742.6516,478.12033
556.4973,-1161.6223,88.101906
-105.31595,-3973.4402,-610.8146
-1447.4547,-6072.3013,-1099.2561
-1580.249,-2999.2983,-756.6463
-1072.2218,-670.1381,-235.49648
-1010.1881,47.621025,7.4197335
-1002.7693,661.7913,108.78865
-869.6227,776.16205,-42.00524
-665.7184,731.7857,-150.26462
-770.5331,414.1555,-87.7115
-1109.0681,160.5484,-229.33572
-1421.211,142.64816,-314.93005
-3222.8818,-1680.6608,-65.30697
-4710.2856,-4648.2783,240.06693
-1965.7515,-4220.8833,344.98553
-60.06061,-1966.9393,433.07874
828.438,-1434.2828,596.4948
1162.1249,-558.0847,708.44946
1146.2991,-356.89838,604.9751
1062.9917,-187.97351,599.07587
971.2135,-698.67267,452.98828
601.9284,-1308.1594,160.87242
219.34354,-2591.0444,-429.12466
-1158.1882,-5097.2637,-340.98935
-2378.671,-4569.143,174.55186
-1763.1615,-1696.8542,114.39687
-1445.4347,-506.03082,-130.37271
-1550.8829,265.7208,9.018781
-1291.9216,819.537,-414.57156
-948.56647,1316.0613,-707.94385
-1129.6741,705.1776,-293.16324
-1273.7539,356.80695,-69.37439
-1237.1726,236.43361,-536.3817
-2675.6096,-1166.4691,774.0162
-4382.3027,-4343.0903,2058.2915
-1841.8853,-3300.2795,1307.7853
-224.43353,-1316.7823,1073.2505
446.52698,-747.4788,540.0843
724.70294,-248.59196,592.5221
939.57794,-9.165474,544.2039
1114.7711,-152.65808,660.3472
1148.8,-619.13806,769.14343
604.60046,-1363.0626,479.21085
148.14807,-3190.323,-198.32309
-1566.8591,-5781.487,-475.63394
-2187.1577,-3795.4678,-755.35657
-1464.9706,-812.9196,-369.5039
-916.0681,174.89616,-220.82535
-1029.1492,368.89432,-146.24925
-854.81885,855.6954,-249.44792
-812.62476,859.8332,-331.9177
-799.1359,482.12952,-306.57953
-985.26984,197.08597,-324.41388
-1376.4249,313.1888,-521.6249
-3774.9902,-2332.8684,107.76575
-4020.275,-5238.2495,644.12616
-894.1658,-2930.3525,718.0256
295.54956,-1507.2759,632.58246
983.1414,-932.18274,731.3967
994.05676,-253.14272,636.9617
929.76996,-142.42192,542.48486
843.68225,-355.62628,530.32745
798.265,-813.34375,411.41843
518.1913,-1658.1246,32.165325
-48.36635,-3795.0234,-397.7899
-1695.1714,-5775.057,-552.7061
-1851.4567,-3287.4688,-219.71199
-1149.6208,-852.779,-153.77408
-970.8946,44.28193,2.3517287
-1294.1129,471.52167,-48.402
-1020.6863,1355.4291,-482.18024
-977.1159,1123.796,-557.5743
-1375.8047,509.2471,-364.22562
-1660.356,134.33144,-592.6817
-3025.6648,-1445.817,-89.60834
-4208.9233,-5056.296,731.5583
-1621.5562,-4274.366,844.60144
-40.095947,-1927.0936,757.16125
906.79364,-1080.0178,650.49615
1125.8357,-603.2549,584.6943
946.4585,-307.00732,634.2951
930.1541,-554.36285,633.89166
909.0129,-575.61505,588.4777
535.4559,-1391.3978,259.28738
112.53624,-2893.8757,-138.41904
-1600.1793,-5687.261,-332.95822
-2423.3613,-4387.4106,-404.911
-1636.4622,-1133.3268,-282.4027
-1097.8192,-181.46933,-160.49033
-938.10144,230.27,-23.226828
-753.21277,895.30945,-253.75606
-890.3537,1045.7407,-347.4206
-832.7934,648.6766,-303.95325
-1158.3883,264.47424,-436.85965
-1403.4067,352.20087,-527.0273
-3535.6953,-2514.5789,279.63025
-3829.188,-5566.6406,1180.7927
-824.53345,-2689.9219,1052.6864
316.07162,-1452.5244,830.70715
967.006,-795.97205,728.74133
962.9893,-281.05807,649.1082
892.4736,-158.8173,535.0837
917.9187,-488.64835,493.80194
784.254,-731.8371,409.3964
390.00714,-1933.2617,121.51867
-779.05536,-4724.93,-64.197784
-2196.4631,-5117.9224,-228.61192
-1588.0295,-1636.9661,-169.87007
-846.6795,-162.38658,-103.21447
-744.5061,172.3126,-84.3421
-984.5096,757.7956,-107.35785
-887.1949,1054.9248,-309.14478
-803.84265,689.35077,-433.40308
-1091.6792,401.41763,-400.4961
-1596.3201,110.87348,-413.59317
-2799.092,-1254.4299,-125.742195
-4218.655,-4296.9097,625.8995
-1926.1528,-3653.4502,734.218
-138.05177,-1576.2722,517.3012
726.2984,-1099.8419,451.1932
780.50977,-805.7313,431.00006
941.65936,-540.86804,701.8248
905.0005,-626.4062,601.3583
700.6102,-748.4642,541.82275
-10.234026,-1081.6654,158.60997
-7.286421,-2539.0874,-13.027577
-1990.3429,-5428.9287,214.25002
-2144.0745,-3483.5715,-76.050224
-698.15674,-722.75323,-65.20254
-881.5826,-333.7715,80.45005
-917.35474,376.17877,39.62631
-879.5952,1007.37366,-305.4555
-763.12384,852.983,-410.6079
-756.82196,467.08438,-96.8927
-968.3638,369.7682,-381.80344
-1707.7574,-19.337193,-258.2515
-3778.536,-3237.3057,804.7806
-3032.5068,-4446.3193,1030.145
-611.11816,-2179.9905,515.13684
405.24213,-1201.0969,107.414116
885.9126,-871.8775,211.85735
786.7647,-445.14075,339.8956
824.65204,-108.1705,329.95734
962.1988,-374.01114,402.27173
841.32794,-531.4883,586.7327
496.69705,-1850.4154,263.94342
-132.18668,-4059.209,81.663055
-1534.508,-5386.484,89.490166
-1476.3691,-2994.9414,140.65038
-1185.8352,-834.19684,130.38693
-1258.1603,68.051094,210.87909
-1312.2246,597.8737,52.115295
-643.117,1153.7618,-326.59738
-834.2531,775.11084,-241.47
-885.05896,326.91125,-229.01414
-1457.1798,187.37921,-472.0159
-1949.931,-411.3943,-307.10602
-4000.7039,-4677.222,428.76547
-2318.6274,-5560.3374,796.2193
-35.644623,-2159.3599,550.30493
623.3946,-976.2909,173.40776
994.60693,-538.2583,151.62213
697.80597,-468.12335,205.89352
811.6232,-294.90448,191.68959
758.8882,-419.46646,299.40866
712.9038,-676.1462,522.086
590.68463,-988.2929,297.6643
299.19595,-3609.018,494.7458
-1476.4436,-6083.0137,691.1107
-1691.1619,-2579.8499,686.26495
-1059.9742,-515.4388,318.2827
-922.47095,-90.38519,-111.207375
-905.3002,593.0517,-293.07153
-844.5169,988.153,-419.96317
-871.99286,637.2211,-420.92758
-868.4405,336.22342,-242.95738
-1207.7333,372.60367,-458.64102
-2090.7598,-433.90424,-174.25139
-4000.3792,-4004.394,1090.0697
-2363.339,-4596.9165,980.0216
-249.1206,-2261.753,641.5347
369.95767,-1260.1447,355.41266
876.23773,-599.9857,230.10515
885.5231,-530.84015,269.59784
878.1503,-644.25085,482.8114
938.5626,-380.43216,442.66074
698.7886,-868.1476,314.103
286.33032,-1732.6301,29.28888
-181.11816,-4665.647,-375.52164
-1801.9601,-5596.108,-571.47687
-1499.1683,-2050.5747,-169.50343
-1122.8523,-443.30685,-105.75039
-1182.567,471.4337,-75.80069
-1042.427,1092.3646,-157.9099
-876.39404,1147.0978,-256.31293
-748.1626,528.0973,-196.54593
-1143.7094,286.8499,-269.4137
-1749.584,0.38299176,-280.2254
-3078.251,-2359.6958,323.6817
-3443.052,-4914.9907,995.6004
-960.3251,-3566.4312,724.73737
109.62341,-1544.327,390.60947
852.45154,-827.16077,246.34901
789.2006,-491.8855,331.55505
834.2095,-230.91145,381.20175
770.78937,-437.8289,479.59628
859.933,-355.44806,532.0009
658.37164,-972.2787,385.27432
526.97626,-2437.3533,106.48188
-565.34204,-5244.805,-203.99355
-1825.67,-4644.493,-401.9384
-1335.8623,-1280.0583,-173.99059
-953.5874,-99.36681,-257.1104
-998.79333,489.97452,-6.6112404
-883.49207,947.1905,-45.221092
-764.6495,1034.4725,-338.60687
-862.05237,686.42694,-413.5599
-1215.8269,235.72284,-344.04
-1946.7423,-63.509647,-494.19653
-4199.445,-3316.982,202.32083
-3289.3315,-5047.4673,998.44617
-631.1481,-2617.1047,777.59894
257.53946,-1280.5486,611.7251
1027.2184,-734.0585,429.99374
1093.2452,-380.92807,488.78928
1013.8133,-342.10822,432.5626
863.0945,-476.6322,453.10718
623.8882,-642.20337,383.86835
263.10577,-1414.3177,73.96635
-78.14442,-3986.4846,68.764275
-1823.8589,-6022.1694,-274.48126
-1581.8226,-2413.4683,-112.60903
-963.4585,-582.2058,66.24423
-1159.8337,286.25388,230.74889
-942.5998,1493.3296,-68.474365
-783.36145,1239.7289,-296.49713
-745.48865,500.95532,-175.30959
-866.7438,275.9688,-315.401
-1429.5577,169.00217,-659.4081
-3064.374,-1438.7255,-368.36423
-4364.512,-4731.8926,52.241344
-1786.298,-4351.969,224.99234
-72.29452,-1398.5935,210.3143
851.85693,-1027.3702,27.970398
1005.29205,-948.73157,199.32246
784.1504,-470.90924,362.42676
800.38245,-546.54956,352.71686
857.21985,-407.49158,457.81503
447.14273,-887.9909,364.39536
356.7745,-1774.8434,0.48275393
-611.20667,-4823.994,-84.31122
-1995.3652,-5455.07,-208.83932
-1536.861,-1832.1908,-53.864857
-1108.8252,-232.72128,-70.20729
-990.9019,292.5096,-24.50335
-810.3538,881.23004,-26.6106
-707.1451,928.6928,-264.40543
-753.82324,690.20575,-358.52884
-915.21326,270.98114,-518.47736
-1421.7078,289.9873,-501.3537
-2468.504,-1148.939,-221.87735
-4206.38,-4750.8677,867.58496
-1912.8663,-4222.311,1029.9147
10.514452,-1822.8303,735.53296
594.68036,-935.22656,613.9608
866.4349,-499.06564,528.75256
966.1129,-195.84012,471.4863
895.0062,-236.67088,443.9677
688.9869,-460.23563,534.6125
383.03607,-797.1178,355.12323
143.52647,-2172.192,170.5646
-637.50494,-5493.274,270.80835
-1807.0122,-5001.3945,16.415047
-1392.9884,-1260.9906,26.546885
-955.60925,-143.71782,-40.75319
-1065.9376,623.60406,24.485085
-746.2883,1179.0995,-149.16202
-631.13885,962.31134,-436.8238
-613.5719,493.6683,-347.0438
-1023.40924,130.22368,-310.62326
-1462.7023,176.01515,-577.575
-3302.4375,-1928.8032,-33.708675
-4219.0884,-5055.761,763.58905
-1537.8096,-3361.6199,652.7246
59.00649,-1546.2148,584.41205
912.9497,-982.97626,540.4439
1085.1665,-486.74567,706.5058
1013.16174,-146.93567,471.93423
863.0123,-389.6628,502.8547
672.7182,-661.35114,500.85544
474.3963,-1423.9214,132.9707
-128.04308,-3705.8794,-193.29628
-1544.723,-5851.4717,-491.21616
-1922.1407,-3393.1873,-395.09872
-1272.6766,-526.3168,-132.68213
-925.9823,198.6169,-59.67688
-968.1622,1011.81726,-44.14456
-807.17664,1319.6201,-373.43137
-948.7543,756.6518,-325.4091
-947.0527,411.06763,-445.77768
-1492.3074,15.170098,-640.0027
-2312.507,-118.31838,-781.32825
-5127.9507,-4059.4414,-238.96878
-3549.8486,-5031.3755,594.7623
-366.96497,-1949.3279,814.2654
672.1698,-1511.7323,752.4278
1536.9683,-703.9553,784.1181
1296.2552,-432.77316,707.9569
907.7008,-650.12494,541.7765
662.0424,-830.2937,682.8684
439.29657,-1339.2185,395.78815
127.6532,-2248.9822,-113.16141
-1122.7579,-5550.723,-593.8994
-2387.748,-5623.2925,-423.97815
-1412.9991,-1570.2847,-98.76087
-1043.5265,-451.04605,-3.7401736
-1296.8817,201.9728,84.19499
-1281.0029,960.99927,-307.0015
-1065.5958,1277.3032,-439.6662
-1059.4276,533.1112,-213.90558
-1173.0271,342.31558,-356.48306
-1550.5469,168.58496,-464.41833
-2534.7656,-993.846,-136.24715
-4736.2705,-4880.2563,873.0923
-2586.2166,-4573.8306,1246.3688
-82.506645,-1722.5847,853.809
571.84607,-1280.9973,852.9977
972.08276,-472.52606,741.208
906.0796,-434.00348,695.311
817.68835,-439.39404,883.07886
1093.0029,-584.70264,720.47516
914.2161,-1608.1157,509.7868
95.788826,-3298.949,-63.382744
-1286.1016,-6383.0117,-631.1577
-2395.404,-4293.329,-596.3646
-1592.8413,-738.4216,-390.4309
-1232.7491,60.59146,-335.87125
-1208.3706,1010.29156,-32.270096
-940.79346,1092.6586,-36.21321
-778.1972,1004.4443,-175.25735
-1165.9296,-6.292645,205.1107
-1187.2528,138.86703,-99.95519
-1546.2458,-199.15399,-276.83264
-2945.488,-2282.6877,-889.68353
-4360.6104,-4714.263,-469.90994
-1655.9491,-3322.9207,183.24086
100.80746,-1310.8176,609.0092
1041.2698,-887.7826,400.6031
1146.0143,-394.6533,430.60437
1177.0883,-551.115,393.1179
1062.8527,-654.7724,282.50497
932.19165,-734.21027,351.05945
369.98502,-1102.3228,185.92067
395.88104,-2831.5068,-495.18057
-1703.766,-5519.1953,-762.7048
-2389.8828,-3727.75,-305.72052
-898.8383,-944.7925,-367.28824
-670.6859,60.35631,-423.29602
-635.90686,752.2275,-326.352
-893.1983,858.53265,-386.9137
-790.65656,1009.9258,-644.1257
-885.4707,733.6144,-581.40283
-1473.2527,412.60382,-294.8855
-2117.1885,-53.449684,-575.31604
-4730.3276,-2493.7202,280.6707
-4175.049,-4697.7,356.73322
-780.3744,-2707.3713,314.09558
80.84791,-1561.0957,296.65247
836.4162,-591.3366,200.99371
729.6678,-634.4087,197.27084
839.77344,-527.56165,246.87823
594.37317,-676.2896,388.9192
829.1681,-523.433,433.18597
372.21255,-1395.1511,219.35033
271.1107,-2594.6694,-329.87906
-729.4083,-5914.847,-835.14215
-1911.4982,-4052.8125,-642.1313
-1130.6667,-765.1619,-189.63307
-1035.5259,-94.941185,-122.25284
-1103.2452,918.06256,-109.75781
-897.9434,1059.8331,-242.0473
-746.7939,604.1636,-244.22223
-934.7147,412.38736,-221.04288
-1305.4098,210.46896,-499.82837
-1913.8671,-72.66256,-440.46304
-3757.383,-3749.0427,373.22446
-2773.4155,-4674.7583,817.30695
-409.82977,-2405.7805,671.55457
430.41882,-1462.0182,558.4512
897.2491,-834.95703,427.98853
808.6866,-529.4661,631.69965
972.6687,-534.3785,744.2583
932.84924,-294.36856,407.30847
656.7011,-727.2696,420.63623
420.56042,-1669.1617,-171.56088
234.2609,-4617.1772,-700.3199
-1588.0208,-5783.7793,-917.46344
-1462.9865,-2145.557,-583.2563
-1203.4978,-629.92236,-288.49695
-1422.3674,458.4954,-0.98360354
-1119.8882,884.14185,39.745136
-787.457,946.18317,-108.92844
-840.8024,623.17926,-79.5429
-1106.7296,413.48392,-226.28023
-1530.1971,44.45279,-392.13647
-2935.2083,-1916.6399,69.54988
-3921.0088,-4619.6196,820.88104
-1505.4061,-3348.6287,562.76935
-50.234695,-1878.5979,429.33023
763.19525,-1151.1018,345.60144
888.0294,-695.21674,437.7286
929.53973,-426.21814,440.70615
942.56195,-519.55316,440.62848
1009.80396,-487.4381,538.65186
662.67145,-1063.1383,315.71017
370.3589,-2788.3364,-226.48003
-759.9779,-5778.563,-826.3997
-2039.601,-4379.813,-892.26013
-1452.629,-901.8092,-268.35318
-1047.9404,-1.8681333,-46.39031
-1165.6483,862.1257,162.85962
-687.52966,1075.2263,-70.81535
-752.31165,687.59296,-234.15189
-778.26245,296.1625,-103.922554
-1220.7533,105.11485,-467.32367
-1565.7142,-140.36612,-426.79834
-3147.7195,-2266.9004,405.6931
-3530.7947,-4088.581,764.28906
-1204.5289,-2986.4785,650.0793
28.84427,-1747.6567,538.08514
535.9848,-1142.8672,776.6689
907.4642,-472.7162,719.84875
770.5497,-296.7028,439.78372
537.70233,-500.69415,394.3188
681.45496,-707.98004,203.60191
563.83307,-1370.8097,45.24256
-273.41776,-3461.4333,-234.2128
-1371.0865,-5015.432,-209.16843
-1244.6913,-2730.8337,5.013808
-463.10623,-764.9539,227.3511
-1350.5433,-190.95554,347.2996
-1468.6382,751.2593,-49.792225
-718.9935,864.9871,-151.22862
-962.0439,574.2956,-286.2923
-916.5419,86.809044,-115.390274
-1002.2768,-17.338064,28.466284
-2074.6025,-958.8661,44.56638
-3350.4248,-3679.0298,361.87375
-2850.3408,-4108.2314,11.173217
-842.30225,-1654.0553,-140.31468
266.78452,-1115.8239,-33.028824
676.21313,-1163.2915,442.5115
864.8677,-820.1432,424.11972
1481.5586,-758.3492,652.0861
1030.3822,-994.025,851.5485
-88.430046,-1811.3148,336.80444
-494.528,-1582.6853,109.090904
-490.62393,-2122.0815,-336.8798
-2325.3413,-5049.9946,-582.6573
-2171.0715,-3169.45,-647.44525
-1251.3723,-1114.0093,-239.97699
-1480.632,-24.721415,-69.28588
-1358.9417,1509.7087,-461.0912
-810.41547,2001.8744,-481.12036
-923.36664,1045.7488,-210.95369
-1132.5074,289.7779,-217.4072
-1846.3839,-377.2414,-596.0134
-2959.6223,-1847.1046,-176.94604
-3954.1401,-3276.3855,-317.6939
-2383.916,-3033.0603,-44.665436
-453.4295,-1436.9224,515.69214
338.52997,-1164.6594,549.77136
779.24426,-845.769,814.7246
931.5423,-467.75397,668.25665
975.5397,-477.58774,513.7479
691.572,-521.83026,437.38223
368.0643,-1149.7974,180.25653
-64.86456,-2009.0062,-230.2808
-945.0029,-4570.317,-738.2583
-2338.3818,-5010.7563,-866.5348
-1584.6847,-1857.5764,-328.9758
-1322.8064,-577.33276,-145.55994
-1267.6628,203.05154,-46.406776
-1018.4306,740.0443,-92.72216
-879.56757,870.49646,-71.87993
-920.34796,618.5472,-101.63475
-899.20703,315.6914,-310.13617
-1208.0223,162.40009,-364.6343
-1628.2014,-614.5981,-105.44399
-3492.891,-3069.5745,151.26373
-3053.71,-4442.8237,646.841
-551.53174,-2514.037,602.91046
361.1773,-1312.5299,690.47577
794.5024,-794.6522,813.23004
899.36926,-420.1446,816.28345
910.15076,-433.93668,693.1647
851.4774,-662.0112,693.64026
390.0218,-928.7195,431.87595
84.83929,-2428.092,-290.1444
-1157.4042,-5489.7886,-988.1736
-2235.0547,-4804.5957,-1321.9188
-1752.2644,-1046.6283,-790.36536
-1029.8441,297.50888,-321.6245
-888.8073,892.3574,-85.56852
-660.3223,1158.2306,0.63049334
-593.9634,1008.6927,-350.8677
-759.9857,466.71652,-439.6914
-1305.2336,-69.874405,-287.68747
-1655.0835,123.14476,-235.34537
-3645.2056,-1991.6011,9.892304
-3959.5996,-4217.693,661.5594
-1480.5892,-2982.2017,325.36407
-45.268402,-1367.7294,354.5995
531.3431,-1235.6581,293.85672
684.8888,-773.90045,483.20438
848.1715,-465.14615,512.417
944.7896,-661.60767,706.68494
1120.3032,-687.0364,783.1116
738.76074,-1246.189,313.45172
143.10477,-2229.0454,-263.31555
-1172.4886,-5998.1265,-1046.4866
-2527.1462,-5266.3677,-1013.19836
-1341.3446,-1199.4851,-184.06387
-1133.6453,-514.2079,122.105415
-1383.538,513.7783,38.364376
-1070.9153,1110.5999,-298.3652
-785.1021,1099.4967,-422.08972
-933.36707,290.48883,-250.15692
-1127.9362,247.99504,-436.70773
-1553.6587,207.01189,-291.1006
-2329.583,-915.04535,-248.61436
-4407.8955,-4137.685,224.10306
-2361.8171,-4974.3286,551.307
-71.38962,-2257.4424,497.4828
586.9245,-1178.0925,614.36035
1015.0961,-638.7349,599.87714
926.35803,-427.0055,548.849
919.09595,-465.7472,505.48203
954.42285,-782.1779,628.9707
661.55774,-1407.3866,280.68225
229.20288,-3101.7493,-639.7599
-1432.0577,-6343.467,-1207.5481
-2377.5422,-4575.1562,-1000.3916
-1669.3629,-1064.7766,-554.7531
-1240.6052,145.53308,-292.66608
-1171.6948,727.1247,61.178333
-925.4012,1146.4344,-134.30426
-818.5675,1092.9569,-411.4788
-1159.4131,517.3303,-303.0103
-1595.0668,88.56642,-443.05984
-2039.2236,-195.41086,-401.26913
-3868.3096,-2819.6196,444.743
-3693.802,-4942.876,1046.5604
-886.958,-3137.1746,754.73517
166.61075,-1692.7407,698.0943
668.774,-978.45264,565.05975
700.53174,-405.24448,490.387
909.5471,-326.59097,446.11282
999.58905,-425.29922,628.46075
943.9882,-677.63055,655.1214
491.23343,-1314.1024,388.80124
336.4512,-3153.4417,-34.197422
-1114.8179,-6337.615,-403.07056
-1816.3022,-4038.882,-544.5448
-1278.5305,-1077.1825,-253.064
-1147.6627,-125.32324,-346.8483
-1200.8026,392.65622,70.21117
-982.09296,838.7036,-105.45312
-1015.5976,642.5575,-173.38493
-1104.9362,484.3524,-253.16493
-1330.8196,326.85498,-368.22272
-1774.7865,-25.252838,-356.9903
-3493.6562,-2576.3938,475.49487
-3690.4001,-4922.8716,869.8211
-793.01215,-3650.1465,797.9905
443.21295,-1738.7185,720.34625
966.9936,-973.15485,723.2725
914.4276,-365.55737,597.3452
1047.0348,-274.1638,501.01678
901.8244,-268.29724,519.0255
770.5471,-813.02454,569.36127
263.25974,-1501.9932,221.46715
-21.288141,-3815.052,-246.31497
-1671.1404,-6085.1304,-489.66064
-1779.9943,-3231.6985,-443.76907
-1146.4542,-664.1306,-276.51367
-1057.9108,134.35048,-135.19278
-1193.2926,679.94604,32.86752
-828.1876,1194.1283,-371.1129
-901.9645,870.8218,-348.65796
-1116.3569,364.60275,-340.57745
-1578.4009,151.86691,-434.02185
-2057.5398,-906.91473,-89.84292
-3931.8047,-3791.5115,989.454
-2651.861,-4398.034,1150.746
-265.58273,-2360.19,631.68243
652.9294,-1374.7484,481.84512
1183.7286,-720.6647,473.71353
1145.3586,-318.919,539.504
998.68744,-482.91388,423.71646
1064.5839,-680.21045,463.75888
900.0378,-1131.0632,236.46129
312.79416,-3113.2039,-362.66934
-1307.426,-5955.4497,-891.90704
-2339.1843,-4695.432,-668.65405
-1654.8762,-1463.0148,-482.33353
-1402.5282,-221.0416,-318.537
-1301.3536,325.57285,-64.35744
-1051.6011,884.8512,23.329575
-695.7017,981.3361,-221.40717
-931.794,551.0874,-1.7042576
-972.5407,357.90137,-356.77765
-1626.3988,209.74878,-209.61162
-2416.4893,-1581.6404,89.48951
-3539.3806,-4395.937,454.21735
-1845.7493,-4239.3076,494.66068
-7.1955314,-2116.2668,346.45575
638.88214,-1152.3851,343.55325
1153.8721,-489.25296,450.75934
1040.4543,-421.4353,461.84155
1002.02325,-492.27106,582.5743
1113.778,-827.4368,692.1889
771.6222,-1619.1858,290.8507
-13.762252,-4069.2542,-415.89835
-1982.0023,-6204.8013,-716.4328
-2215.66,-2940.9705,-646.31573
-1364.2087,-466.9902,-331.79437
-928.63184,192.38727,-319.08826
-908.44434,710.9693,-90.43279
-800.44543,1119.7289,-233.47441
-913.7656,759.8056,-284.22363
-1104.707,439.61252,-507.8599
-1452.2712,238.20831,-481.51984
-2359.3923,-296.9545,-352.41254
-4786.203,-4073.4004,409.04147
-2992.1086,-4646.2417,915.0346
-344.80087,-1996.75,496.91962
467.3558,-1269.3643,413.47342
914.8909,-750.74695,329.88232
890.21704,-485.17462,475.21036
867.4258,-478.8888,436.89822
942.2605,-668.2372,598.87585
729.72546,-869.36505,498.51178
483.57993,-2414.8452,-246.57635
-1009.35803,-5244.365,-727.178
-2517.9514,-5128.7744,-1035.4253
-1742.108,-1505.1761,-650.0306
-1279.8921,-42.701813,-226.04483
-1155.4078,483.5468,-209.56744
-998.2401,1024.3401,-185.73598
-644.35547,1083.2507,-416.89545
-844.26514,471.3228,-80.73732
-1078.8561,300.87875,-371.76028
-1645.1318,171.12686,-439.9474
-3125.209,-1826.1217,-260.05215
-3962.8635,-5505.33,-253.61934
-1087.4823,-3554.8633,191.25932
357.2944,-1543.0441,257.06888
1004.2551,-1105.8121,494.6979
931.4908,-380.92334,496.19348
850.8407,-242.89236,494.69287
795.82526,-421.0888,513.651
954.40405,-766.6714,564.03424
647.4109,-1262.0457,182.59418
350.40417,-3072.7297,-408.1559
-1449.5057,-6593.7734,-775.8759
-1842.7155,-4210.115,-794.5535
-1419.4517,-1420.4146,-500.5296
-1448.8779,-244.60411,-413.5957
-1497.3467,418.6211,-7.94456
-1009.12775,1060.9473,-144.67223
-837.4892,1073.1678,-259.9214
-934.09814,487.77368,-154.61427
-1396.3944,229.62958,-373.44287
-1730.116,275.15866,-494.70007
-3754.4673,-2301.5208,26.91397
-4620.783,-5904.901,682.89716
-1132.3713,-3361.442,727.91425
338.43103,-1561.7219,588.6303
1192.0078,-861.7664,638.6751
1129.58,-379.29166,604.8767
892.4583,-359.72662,583.63104
791.7926,-650.4055,693.11316
992.1118,-903.449,532.14166
478.48444,-1770.007,253.5018
-204.45541,-3814.8655,-406.59406
-1697.2026,-6024.725,-576.9817
-2230.271,-3200.4739,-409.32474
-1468.4265,-669.8507,-247.98033
-1147.4001,8.142178,-236.64572
-1006.60876,693.7695,-164.34193
-941.2479,1067.3159,-150.273
-928.9701,908.3841,-210.46062
-1219.8473,390.4633,-338.2813
-1500.2675,201.58148,-461.09412
-2177.1592,-519.91284,-178.90622
-4012.431,-3358.427,251.12317
-3011.5579,-4803.923,495.95462
-490.0342,-2671.2422,526.6624
331.14932,-1246.9291,584.44257
847.39105,-875.6183,492.95367
917.3522,-593.28674,539.4848
1109.8436,-601.32764,452.65674
1030.7678,-443.48822,532.5271
653.9049,-1190.4752,341.1433
150.34079,-2498.2844,-438.93225
-818.103,-5661.2573,-660.465
-2194.4617,-4982.561,-785.5399
-1600.7772,-1033.8422,-300.63852
-1065.2356,-89.04974,-166.19827
-1121.4852,710.1807,-32.042908
-982.9457,1239.5518,-154.21678
-842.2952,1066.8293,-373.33783
-1062.8589,458.88165,-372.101
-1266.5911,137.44826,-611.05176
-2106.133,-44.222656,-411.61215
-4329.6733,-3512.3518,78.996704
-3643.8857,-4863.143,723.45123
-760.15045,-2473.4211,582.2484
258.76053,-1632.237,411.5005
930.33295,-1060.3563,357.83932
718.4126,-574.64075,377.3526
888.4511,-508.23468,321.0414
999.70764,-761.5895,353.23737
1083.4763,-783.30316,494.55844
470.12762,-1314.1533,44.274242
205.14346,-2760.7148,-582.2709
-1674.2222,-6075.5034,-967.8949
-2212.669,-3865.7642,-772.2485
-1341.2977,-1047.8619,-147.37944
-1076.9741,-274.4734,-68.05626
-1408.1805,698.5682,78.7869
-1090.1432,1262.228,-123.22856
-814.1064,993.983,-128.04121
-901.5386,485.86755,-121.757935
-1524.449,254.92203,-251.21361
-2057.2754,-894.45715,-174.32666
-3416.669,-3546.7976,670.8602
-2569.813,-3790.4275,886.1543
-437.97778,-2069.6821,620.685
263.31802,-1695.7649,673.0112
580.0579,-939.31836,779.4475
997.09,-471.6302,872.3314
952.32776,-421.95908,710.79767
863.4312,-396.68362,650.7771
464.81824,-965.9221,449.1592
103.86761,-2735.568,-7.785768
-2052.7383,-5454.3296,-417.10406
-2671.2778,-4007.2747,-599.78033
-1564.1948,-1093.2551,-239.20987
-1371.5841,-92.701065,-12.60723
-1171.279,1026.9991,113.914116
-676.11383,1573.7119,-157.21756
-654.47095,1120.7273,-319.17337
-844.0415,665.12524,-501.09308
-1538.2996,246.95781,-452.7885
-1854.075,-52.964973,-538.8162
-4366.0493,-2715.6096,-56.474438
-3946.1843,-4107.952,554.89526
-981.3484,-1995.3666,451.4094
223.80257,-1087.4307,625.6382
955.354,-863.0795,669.618
828.82385,-643.9146,711.09033
779.84894,-831.51245,725.1219
708.512,-858.15607,756.6449
568.4425,-1170.7983,449.04565
115.97285,-2050.1958,-208.42502
-868.7188,-3702.5784,-1301.7592
-2706.6768,-5367.6504,-1537.6865
-2447.275,-2830.1443,-1073.8411
-1788.3584,-767.9505,-403.95038
-1567.5092,98.29872,-180.66887
-1377.2567,787.5289,-127.29905
-885.14355,1358.2377,-145.7034
-765.99146,1036.6215,-131.37418
-819.43744,413.56036,-205.50372
-1169.1442,312.8252,-280.94595
-1908.6504,-473.33517,-143.70653
-4120.9355,-4476.678,206.30557
-2423.014,-4560.9746,369.16068
-143.73126,-1970.9723,347.04062
637.0346,-1272.0538,390.46005
1129.7736,-545.72864,468.8423
1127.0122,-399.11807,475.408
1052.0242,-290.17877,550.631
1169.7667,-597.34686,595.98364
655.0278,-1281.0981,334.67987
257.33002,-2335.0398,-358.99054
-1200.3649,-5700.9062,-622.99426
-2561.289,-4801.1733,-634.9775
-1721.409,-1332.3105,-255.67953
-1198.3131,-272.22775,-122.13642
-1109.598,468.05304,-130.90575
-980.1433,1198.3317,-261.92294
-873.33734,1237.704,-477.27264
-862.8433,649.55396,-366.84076
-1161.9117,249.97865,-321.62885
-1719.2264,-144.97896,-280.48007
-3189.631,-2600.9065,298.34158
-3229.001,-4026.948,707.61414
-1279.4885,-2872.111,366.66013
-54.12962,-1614.1581,385.9564
333.09427,-953.0032,449.73346
613.27893,-617.16125,561.10266
742.80255,-511.03702,538.5418
806.71625,-386.03552,708.1446
742.754,-824.85284,551.9406
504.34735,-1173.2916,110.43876
-428.20834,-3607.5132,-891.2007
-2187.2559,-4919.294,-1027.6489
-2104.0542,-2181.8074,-673.7437
-1758.1431,-407.56393,-437.83624
-1238.8246,338.58344,-34.983646
-639.97943,800.721,-20.627874
-452.54556,932.0083,-4.936507
-627.3436,635.30914,-78.20874
-801.97125,249.12561,-36.82443
-1106.9944,215.81754,-585.4156
-2277.654,-527.079,-482.14807
-4261.106,-3590.0955,-172.40227
-2797.0872,-4066.979,91.33485
-581.46045,-1756.5316,469.26822
402.84055,-839.241,547.27167
985.75397,-777.3723,735.28516
1056.1661,-673.3037,610.8083
951.0459,-748.9306,624.2344
844.2384,-766.62164,450.18915
550.9506,-1516.7833,72.00467
-5.3519964,-2354.2368,-608.0777
-1528.391,-4749.3745,-1142.0568
-2502.8909,-4794.022,-989.66016
-1892.8823,-1652.4077,-528.23413
-1559.5281,-276.88586,-257.3467
-1388.4385,526.2135,-268.6122
-1054.1036,1414.2808,-322.76324
-993.5039,1333.2666,-269.8936
-1150.6919,500.49948,-270.47742
-1395.5823,245.70367,-346.62128
-2192.0974,-676.97504,-192.48422
-3474.8533,-3290.145,552.09894
-2904.8982,-4054.6797,701.79565
-940.81604,-2270.973,397.44812
228.58742,-1354.896,412.81128
847.4563,-978.93567,606.1825
994.4149,-627.1389,584.0361
1130.7074,-404.2237,563.2417
983.091,-272.9249,589.02325
827.4512,-845.2791,468.1683
341.47574,-2116.4646,-20.444979
-392.09714,-3406.5112,-804.1655
-1887.7888,-5209.7266,-1080.4282
-2646.347,-3916.6187,-774.77966
-1721.4348,-1078.1053,-398.9325
-1357.4982,42.17604,-136.50354
-1258.3513,811.5665,-338.89258
-952.63776,1621.4849,-412.16916
-1004.98065,1261.3516,-250.10709
-1052.822,308.39453,-185.97261
-1294.7802,164.5777,-448.32053
-2284.1677,-867.77136,-171.26436
-3580.2559,-3719.46,132.2525
-2508.4846,-3906.0828,195.70982
-628.16144,-2119.212,234.85924
240.89597,-1233.1528,418.6683
614.31134,-790.784,522.69037
789.96234,-491.0445,633.0346
915.1352,-392.91733,696.90686
1000.9888,-465.0775,763.86835
670.4356,-1163.7906,565.18866
383.86737,-1752.4829,-203.03589
-998.67444,-4776.6743,-1015.8508
-2703.8103,-5192.6484,-1343.1382
-1932.3876,-1637.0848,-687.4274
-1206.5244,-409.60306,-213.69533
-1023.1367,299.3492,-122.288765
-899.96173,1060.2529,-59.06946
-717.4215,1327.1267,-281.46887
-782.95294,810.14594,-385.02808
-1106.3086,274.13394,-482.2851
-1563.7645,110.80342,-422.1369
-2965.3767,-1834.176,-82.046036
-3728.136,-4141.173,456.31323
-1496.1444,-3207.1997,378.78204
-257.43,-1699.8385,474.7274
271.14432,-992.2219,591.9483
581.7519,-549.4467,768.4849
979.8212,-242.15816,751.5596
696.0344,-135.6143,663.0166
620.89703,-580.9697,569.3208
264.15695,-1128.9894,197.86581
195.06386,-2680.5103,-996.8576
-1693.2268,-4512.6963,-2212.2832
-2288.77,-2809.5146,-1547.056
-1226.0839,-1218.403,-619.79755
-1250.1132,-479.73627,-185.18263
-964.39294,444.34213,15.352322
-823.0714,955.36487,62.392887
-882.9541,886.13446,210.18797
-852.61444,521.3223,-64.32154
-1136.541,503.0063,-60.902985
-1092.9147,-63.980698,-616.3515
-2571.8735,-2010.205,-810.9429
-3476.1497,-4497.2344,-305.54175
-1154.0023,-2866.91,148.93459
210.74773,-1288.0033,576.0768
899.8341,-1097.9016,810.42944
1120.4525,-578.51666,1012.2745
1027.835,-323.04736,937.69055
793.395,-428.27463,827.31744
407.71408,-957.51025,625.69543
161.37009,-2246.3445,-160.00583
-982.5937,-4546.9478,-1402.5159
-2442.0251,-4667.7134,-1428.5339
-1788.7252,-1769.2446,-704.01105
-1339.0962,-441.7043,-260.93314
-1176.1857,635.07745,-234.1792
-815.04956,1430.4225,-218.7821
-668.6324,1412.5446,-346.67502
-1014.5351,706.74445,-203.06851
-1434.1925,254.29955,-351.4972
-1760.4884,-87.91448,-501.58746
-3326.689,-2014.0194,-154.64384
-4036.3599,-4361.701,68.830444
-1620.1134,-2816.277,345.87122
-130.81514,-1326.4242,462.87335
585.2065,-1150.9064,468.53345
855.90063,-656.8969,626.7915
943.5277,-513.5638,651.7969
944.4991,-598.86505,746.0425
983.57117,-682.9355,605.67535
641.48914,-1740.5073,-139.7352
-426.99933,-4214.2764,-1242.7267
-2242.8867,-5620.6255,-1632.9095
-2530.2173,-2826.793,-940.7779
-1449.7638,-443.67886,-301.8318
-1170.6921,358.79843,-174.70389
-947.3327,1109.4333,-163.50389
-783.28534,1511.7189,-365.4112
-838.498,1020.7478,-465.1187
-1307.1145,251.28326,-375.58466
-1611.4711,167.904,-639.52527
-3170.5654,-750.2447,-571.6756
-4993.157,-4168.8022,463.672
-2297.7,-3785.2104,371.7998
-352.15228,-1745.5393,416.59512
503.72928,-1061.5535,497.83527
844.53503,-715.042,681.2602
1115.1747,-553.412,725.3985
977.7527,-727.78204,719.02124
664.7609,-948.1639,616.38965
192.47862,-1234.5847,92.04046
-397.56573,-3054.6348,-856.71796
-2619.1284,-5608.4946,-1811.1582
-2884.807,-3046.6624,-1414.8856
-1541.5195,-462.4032,-312.99924
-1172.6282,170.5181,-92.90957
-858.6625,1309.9916,-30.722782
-619.46027,1731.9044,-321.56
-591.3299,1108.2069,-465.182
-834.5887,388.69604,-544.8912
-1368.8004,110.15705,-454.319
-2447.0923,-96.38895,-809.3131
-5083.676,-3267.9958,-876.0179
-3412.1677,-4315.993,-86.61899
-575.83905,-1899.7838,133.39171
252.73451,-1388.2611,545.1303
620.9261,-904.1326,595.90424
681.117,-692.5402,621.3663
838.702,-676.6068,685.1609
872.03357,-736.5925,851.4071
429.4867,-1208.7776,668.08344
-22.440975,-1862.725,-97.15669
-976.1676,-4818.0117,-674.3229
-2636.9844,-5899.3457,-1073.9312
-2183.6582,-1984.3602,-722.4423
-1420.2772,-194.6134,-292.29617
-1104.4902,280.96777,-209.99142
-975.24445,955.4568,-73.74815
-831.0533,1151.623,-312.074
-881.39294,624.59595,-270.22913
-991.64325,263.19794,-587.88434
-1339.7897,202.59718,-470.53018
-1628.024,-69.58239,-602.9289
-4297.941,-2865.9346,-510.62973
-4294.214,-4982.7993,177.03133
-1065.5283,-2963.1958,683.13324
240.78127,-1194.3059,691.9251
854.61786,-859.32404,636.5379
973.8778,-470.8751,645.40704
1023.8199,-697.5465,560.48096
998.51373,-691.86914,652.1785
641.4584,-1161.1029,366.1953
291.32773,-1917.0338,-346.84918
-943.78595,-5474.198,-1049.6781
-2532.879,-5636.4404,-1190.3186
-2024.0725,-1713.7454,-489.22394
-1391.8331,-253.31348,-213.50633
-1376.7537,699.07556,-8.2218485
-941.5792,1406.053,-126.62421
-746.2604,1132.7153,-445.55695
-844.6066,694.8637,-418.19824
-1347.3765,105.963005,-410.64648
-1510.6709,154.5826,-479.7654
-3479.4224,-1416.2556,-405.70355
-4665.0566,-4410.601,14.694831
-1662.6486,-3559.6182,-24.910156
-242.77966,-1814.7905,60.839905
610.1853,-935.25397,359.27576
682.9631,-911.4393,501.8449
1142.83,-671.39825,360.27252
868.16406,-675.52136,482.99524
1027.9373,-415.63907,330.78302
599.7134,-1364.3816,66.2736
217.43831,-2941.1704,-855.30597
-1767.4993,-5988.994,-1490.3147
-2610.6902,-4444.5044,-1092.7827
-1714.6948,-891.0047,-519.032
-1330.0592,88.539314,-47.128166
-1350.0897,693.91614,-26.045736
-887.2909,1430.2867,-307.62024
-947.4251,1116.1962,-374.42932
-1071.8475,350.69568,-301.8843
-1499.5398,94.73315,-401.70923
-1697.7245,194.2864,-606.7015
-4027.6772,-2461.4033,-97.03292
-4482.268,-6122.571,772.64374
-843.45526,-2963.303,765.53656
415.22052,-1227.8331,683.7425
1000.1203,-649.3654,648.7481
974.2853,-164.23135,600.7703
1038.2886,-329.32825,557.291
984.8815,-752.65454,644.6393
573.78973,-1279.6167,690.3073
161.78331,-1773.9791,75.17622
-472.28406,-4434.809,-393.79938
-1925.1287,-5554.089,-567.03784
-1863.1132,-2303.58,-525.91284
-1124.3577,-343.96515,-251.87843
-1093.3337,261.7001,-213.85646
-1078.1163,970.25085,-144.9661
-837.5409,1370.1232,-433.7778
-913.6603,752.35364,-430.07812
-1381.7349,254.27963,-379.05875
-1613.7714,21.854023,-406.97906
-3255.7285,-2109.3071,323.51337
-4111.437,-4965.515,752.557
-1107.6619,-3481.9058,394.22302
120.371284,-1803.0483,379.3574
793.5527,-606.7258,302.4966
798.8191,-137.34935,289.81564
937.7625,-347.96826,335.17126
919.72516,-542.0665,341.10693
1200.5801,-536.8475,447.22556
895.10284,-1487.9877,24.963503
619.3693,-2992.248,-612.2233
-1242.3671,-6409.7334,-1079.8356
-2261.0083,-4105.006,-761.5178
-1365.9722,-589.3556,-143.48036
-1511.9897,52.976955,18.242228
-1311.8191,1015.5129,22.832355
-805.89404,1214.3193,-175.29843
-688.36914,815.24493,-238.79547
-902.29944,260.24246,-318.08514
-1318.0138,209.22365,-449.88547
-2243.4607,-1033.4221,-346.3803
-3930.636,-4478.1772,159.72878
-2136.5537,-4672.562,427.46213
-35.024746,-1934.927,531.609
802.0954,-907.20325,490.4015
1019.6502,-530.96204,500.89377
916.9543,-232.67184,326.10168
820.0093,-355.2349,412.41412
908.45294,-650.66284,457.70117
628.4763,-1201.7909,367.83008
485.1846,-2449.9094,-159.60532
-694.30786,-5160.597,-336.00598
-2033.3328,-4355.924,-597.74133
-1328.1362,-845.07623,-295.07486
-931.09735,-66.6914,-155.7121
-875.69525,578.0763,38.2899
-913.2097,912.23956,31.197638
-714.45905,998.1879,-152.24127
-689.7982,544.134,-392.72617
-1222.7406,177.29424,-375.19836
-1759.5852,-129.77933,-662.23627
-4114.9004,-3255.4614,-423.11044
-3687.4758,-5382.2725,456.17474
-509.72305,-2517.8174,594.1031
315.65842,-1024.8982,617.2554
1014.8221,-418.16626,323.57193
918.85895,-205.16702,152.84972
974.2015,-121.500946,141.68048
897.281,-313.82834,270.68695
943.35077,-672.0834,240.49944
308.50717,-1757.0265,-120.332245
359.12466,-3763.318,-741.77216
-1561.757,-5890.949,-893.58954
-1927.1843,-2760.2363,-420.75378
-1209.9121,-365.8632,61.66441
-1309.9434,166.66267,332.8957
-926.3213,1195.0927,177.29518
-600.1119,1273.7806,-246.25737
-657.26044,602.908,-187.58672
-892.5887,89.69598,-428.20148
-1273.9701,210.09868,-486.6121
-2293.1528,-1268.6471,-235.95776
-4051.2454,-4713.458,246.07126
-1744.992,-4149.516,521.07306
-6.6352315,-1760.4171,364.92288
851.28357,-790.34985,354.04675
955.78955,-559.57166,420.1786
1020.3284,-345.47495,445.8131
958.44617,-445.54572,461.99158
968.7752,-305.96234,532.31836
471.17303,-1089.7941,329.07855
382.9513,-2989.8135,-289.3103
-932.01154,-5668.9736,-710.88556
-2076.6843,-4864.086,-666.47595
-1602.2109,-1341.0875,-416.9325
-1273.1758,-74.27943,-172.8626
-1280.1864,733.9502,81.761604
-893.4214,1231.6516,-14.28346
-843.1429,919.6251,-152.22768
-858.6439,540.84485,-192.84555
-1339.2041,318.8252,-448.83957
-1815.958,-1.3972718,-377.21066
-3966.4456,-3137.9011,69.675
-3908.7922,-5565.2466,617.0339
-694.3491,-3725.5286,530.2599
633.50604,-1346.9014,290.42883
1562.9667,-1024.9229,369.9912
1248.4281,-529.8341,480.41934
1039.6764,-405.13147,461.1805
994.51855,-273.13754,520.1421
944.60297,-870.64575,513.00037
290.5834,-1975.0536,159.23808
-236.1268,-4076.3792,-244.2299
-1594.8359,-5702.6665,-369.37173
-1711.595,-2659.7385,-465.30783
-1254.367,-480.77625,-293.06717
-1230.29,165.23686,6.3015957
-1086.4365,735.1788,50.777687
-739.72876,1095.8466,-266.2321
-887.09875,832.8488,-199.9317
-1191.3582,324.3444,-277.8521
-1495.8851,236.94295,-494.03625
-2985.4944,-1365.0084,-182.78264
-4501.264,-5129.839,711.45496
-1811.6848,-4393.346,790.78204
176.11128,-2019.6879,584.1994
871.2465,-1157.6527,406.3124
1026.835,-545.3391,489.3421
991.39465,-219.9023,373.16235
975.46063,-319.74826,336.18817
968.07715,-648.6004,482.96976
638.2896,-1372.4348,361.4923
358.02814,-2512.7422,-73.49137
-497.27002,-5378.352,-132.14566
-1715.7957,-4542.4976,-161.05463
-1361.2793,-1363.7045,-127.349365
-1027.6107,-132.28902,-217.16438
-954.82715,380.7712,-98.56215
-898.87854,865.409,-142.89098
-906.86273,982.48175,-360.74222
-1027.8507,443.90912,-483.2927
-1335.2762,408.51306,-400.9455
-1960.8762,-476.96445,-119.45514
-3816.0232,-4402.6416,887.5073
-2415.3533,-4949.6196,1194.9949
147.4144,-2471.5989,685.47375
746.2886,-1278.2286,563.9861
1075.0482,-462.5205,443.64703
832.6583,-191.85002,372.10245
940.034,-54.19168,461.34082
1006.61414,-346.79388,507.11298
1053.7229,-930.0262,618.49414
296.1898,-2305.3801,182.07674
101.01986,-3876.8179,-118.86565
-1185.9077,-5082.697,-168.93394
-1408.6163,-2667.9033,-289.16174
-941.3832,-781.8363,-191.87978
-1012.55475,-82.36605,-206.8192
-1161.5715,521.07855,120.68988
-839.14685,1020.1755,-257.99527
-834.3219,859.0923,-393.04852
-1224.0867,542.3951,-296.6216
-1438.0569,185.42407,-294.82834
-2478.2625,-2118.3582,117.62007
-3440.443,-5053.95,986.92035
-1230.8086,-3651.1956,872.88696
266.9133,-1553.0039,779.9491
789.8152,-784.9236,574.33215
1017.622,-375.25745,413.73947
913.35736,-202.97801,434.44934
800.81744,-391.26285,536.6274
734.7673,-686.63257,641.2943
247.20567,-1380.7242,358.15958
-137.68808,-3487.9736,205.97482
-1683.4176,-5270.726,-129.51016
-1867.931,-2834.5557,-386.0473
-778.1702,-226.82144,-112.3404
-654.0598,-70.126396,-90.139854
-1014.45447,590.666,160.7442
-859.43726,875.0304,-295.42157
-949.0509,792.0144,-523.5912
-1167.7324,450.55737,-337.92242
-1362.9551,133.16159,-491.85263
-2059.2336,-925.22015,-382.34863
-3784.846,-4103.5845,429.99838
-2200.4556,-4370.5864,403.56305
-146.27434,-1873.671,318.35217
593.4163,-1105.5912,226.90736
922.34973,-698.0488,263.48303
952.88983,-328.19882,394.351
925.69147,-410.10336,424.15945
887.61017,-399.28302,493.27713
324.6192,-908.5925,402.12875
258.08084,-1954.3223,45.107735
-367.35306,-4847.0366,-65.242325
-2290.7576,-5428.8687,-308.6538
-1232.9031,-1430.3527,107.205215
-1163.5261,-573.6248,91.205826
-1454.3279,566.01666,200.26572
-964.7484,1112.3265,-158.1215
-705.9731,936.7689,-253.91025
-701.3119,313.89185,-382.39935
-1160.0825,236.09384,-494.97192
-1233.4739,187.74124,-673.0518
-3097.151,-2095.3733,-191.86746
-4191.845,-5477.0356,803.1028
-1024.7563,-3599.1914,626.514
266.93634,-1214.6384,370.605
1028.6937,-826.95886,265.68423
1072.8618,-542.97736,297.50986
1077.3251,-275.29297,523.16736
1007.4939,-415.21506,550.8307
784.3726,-898.7855,584.0611
264.31522,-1446.4568,256.60315
-40.778244,-3691.313,-42.59259
-1807.3792,-6063.0337,-348.7902
-2114.9304,-3332.8994,-328.28006
-1319.2241,-456.7621,-173.13823
-1049.7644,272.03983,-61.77511
-959.7492,1102.4352,-38.677544
-699.0276,1370.9045,-247.11868
-847.6582,757.9443,-456.44672
-1266.5898,342.48508,-502.69424
-1623.264,48.95672,-602.315
-2790.5237,-956.65137,-550.0026
-5065.1035,-5423.685,354.3092
-1835.857,-4721.1885,432.4655
241.8943,-1700.4901,481.40125
1229.0968,-947.17773,296.26468
1273.1044,-579.1491,359.5732
1021.9627,-583.8134,208.78113
804.13165,-715.3352,443.92188
861.68066,-610.11816,397.33954
480.08453,-1011.74384,297.98865
216.46011,-2416.7239,-166.91605
-684.9857,-5267.5474,-467.3021
-1488.7399,-4807.017,-596.26746
-1061.7057,-1792.4612,-168.28964
-882.49585,-366.04343,-213.08548
-1106.5736,403.3071,-32.259514
-1232.8512,867.02344,-6.2548614
-1111.2975,1204.5475,-361.91824
-1184.7965,747.5333,-453.16373
-1658.088,248.73218,-445.6785
-1830.5521,-101.760925,-436.78552
-3532.2683,-2989.8474,115.677704
-3734.7563,-5747.6084,635.9162
-724.28534,-3736.224,633.3729
378.902,-1539.7631,562.9206
1014.1071,-681.83154,507.8865
674.11774,-549.4043,440.56396
683.01587,-498.07507,518.095
679.6839,-464.4339,544.55
902.4375,-353.6866,673.81866
763.1471,-1105.4835,334.93384
670.21045,-2525.2192,-208.1609
-761.8719,-6108.269,-450.535
-1949.7706,-5121.005,-732.68823
-1569.9985,-1234.5378,-452.97223
-1100.8568,117.965096,-323.76843
-1051.8025,736.8812,219.83493
-850.4548,1097.212,-9.722763
-957.2132,989.7663,-373.8891
-1089.9703,492.37576,-468.6573
-1387.3466,1.9948734,-381.17783
-1574.6858,53.156517,-526.3942
-3912.053,-2375.7646,149.30936
-4321.405,-5415.12,1002.8338
-938.00146,-3057.1545,1003.1396
222.09917,-1280.3068,897.754
998.66705,-737.5448,640.7668
1080.9861,-265.75278,544.081
1079.122,-375.67392,463.96173
942.2951,-442.89313,580.92474
747.5723,-820.6292,514.54443
395.23257,-1602.2415,87.24559
-38.263504,-4294.593,-392.06168
-1787.7644,-6266.9995,-922.3455
-1950.7837,-2825.8264,-550.57355
-1292.489,-459.0669,-204.931
-1354.52,325.2446,69.99495
-1256.0629,1209.4846,-3.146824
-882.9469,1313.9218,-298.4153
-924.8782,654.08716,-353.90393
-1231.135,299.71573,-417.47513
-1585.1736,30.566723,-442.78644
-2793.7676,-1509.9108,-119.23762
-4459.387,-4783.376,932.89105
-1749.7114,-3911.7407,849.8466
19.5018,-1766.0066,765.84216
779.89594,-873.98724,553.71155
914.5763,-421.16113,462.99872
958.20013,-334.50467,514.5367
920.8124,-449.3474,480.84937
1015.39795,-403.11414,623.29486
565.3599,-1259.796,350.91693
444.1455,-2761.9343,-337.84872
-811.293,-5565.5723,-737.931
-2057.8174,-4490.754,-814.1043
-1458.9492,-909.21136,-426.71475
-1144.8608,-152.07066,-155.94942
-1247.3455,619.6454,218.51208
-894.3034,1007.1753,-32.56373
-830.57306,808.57513,-178.32146
-776.7661,387.41827,-203.61243
-1145.5593,253.06592,-417.21692
-1696.2112,-184.04477,-327.92758
-3676.4192,-3723.6575,471.16156
-2845.5696,-4932.328,1040.1313
-251.24069,-2230.9492,975.2375
692.3802,-1062.2192,729.63525
990.39307,-473.5848,608.16705
936.0318,-153.40569,404.4293
868.177,-155.12729,413.1506
1182.9899,-470.96057,337.2954
803.9012,-1080.0574,403.75162
480.96823,-3054.022,-127.34451
-934.82587,-5474.3223,-476.2395
-2115.4219,-4060.2917,-569.88293
-1144.801,-709.9987,-271.5257
-869.92456,-119.04579,5.5230336
-934.18164,710.1651,169.7498
-996.9558,952.4599,-76.449875
-742.236,748.3172,-240.5774
-712.3862,394.10104,-363.7339
-1186.0315,326.2863,-360.49646
-1719.4565,-352.78528,-327.96524
-3357.258,-3576.6804,269.1929
-2941.3052,-4318.6226,817.75336
-537.45337,-2261.6619,712.29584
291.8197,-1117.6609,625.59485
860.1073,-460.85376,403.7556
937.8711,-212.15636,409.0601
907.94885,-279.47552,521.79926
1154.6466,-333.54175,467.5463
922.8021,-1250.7157,519.4812
627.46295,-2139.4773,-300.42096
70.3265,-4740.626,-827.5398
-2026.1829,-6064.9683,-947.55396
-1617.2988,-1792.3676,-630.35803
-1162.4677,-221.83795,-229.09619
-1398.1211,432.49445,240.49939
-1289.4386,1367.631,-66.69013
-782.20184,1208.7214,-319.9186
-909.52625,379.0314,-293.2908
-1231.6198,349.9824,-237.24722
-1995.069,-319.0064,-267.72623
-3567.0432,-3885.031,428.89627
-2903.0837,-4907.028,945.8224
-297.6679,-2779.446,596.3659
511.3559,-1251.3197,606.0418
1052.3683,-662.9518,429.9555
819.01263,-318.72806,472.88687
872.15027,-253.32045,480.62567
1020.72723,-299.79565,574.9313
1357.4075,-907.6707,420.60727
756.3089,-2193.6572,-87.1542
130.38803,-4308.1406,-594.875
-1820.28,-5874.454,-359.80173
-1735.1426,-2301.5623,-243.15506
-923.2879,-78.37933,-47.68047
-1019.9922,281.40463,42.115593
-1289.7095,1154.2828,-54.64696
-983.41095,1166.6567,-406.6231
-1011.7519,757.64935,-472.09744
-1464.8196,266.36667,-277.01266
-2314.8044,-310.45602,-413.59918
-3909.2542,-2852.9377,-141.11826
-3393.98,-4734.9756,416.74313
-908.7864,-3227.9463,400.2056
78.58558,-1708.1415,740.7309
779.663,-741.82355,436.12128
937.55676,-406.7784,460.00024
1036.0044,-351.76083,464.66315
851.9647,-215.45851,525.48193
887.0271,-380.55453,496.51392
308.16916,-1557.2998,299.57553
35.574596,-3406.2922,-198.0854
-1363.8765,-5806.619,-485.47473
-1762.0139,-3847.2783,-476.80487
-1101.5219,-1120.6324,-205.73448
-961.963,-125.036446,-351.21893
-1417.9406,344.61597,-21.12721
-1387.9132,932.0844,-147.00484
-991.6586,917.4817,-374.73447
-1013.51807,461.61746,-364.5246
-1456.1537,212.16986,-219.64914
-2011.1964,-247.81737,-217.59729
-3609.772,-3238.7231,371.787
-3131.9834,-4862.1616,851.42236
-576.0413,-3018.4895,760.18036
520.4416,-1535.1178,653.0329
837.90906,-915.104,442.25418
889.5605,-429.56076,470.8815
973.14453,-392.28378,480.20923
1123.17,-197.23212,567.8062
683.64746,-911.3774,633.0246
299.57608,-1977.9708,61.85472
-653.3642,-5379.82,-347.53357
-2177.078,-6319.592,-774.25085
-2000.4718,-2432.5127,-513.8941
-1644.731,-295.0873,-308.71643
-1442.1963,1232.1663,88.52397
-1112.2551,1736.6981,-104.5236
-864.7759,1001.961,-385.5829
-956.29706,387.0236,-357.15366
-1417.3322,88.170784,-448.8943
-1771.8359,-35.066536,-521.6165
-2779.5269,-1618.3037,-32.65567
-4020.7366,-3922.2102,695.72833
-2361.4229,-3919.2566,651.3418
-399.7949,-2084.7004,508.91718
399.3987,-1084.5005,380.35873
742.13074,-696.2606,517.12213
839.0118,-277.85663,661.357
1061.6965,-270.1806,553.33264
1189.6951,-278.5329,758.0634
785.0799,-1404.2499,451.041
291.48465,-2791.3699,-296.47998
-1384.3716,-6074.2593,-822.8477
-2772.452,-5780.508,-782.19525
-2234.2031,-1894.7489,-390.73135
-1790.5588,-258.95096,-275.65756
-1880.2422,559.4833,-93.90881
-1315.4869,1419.8607,-102.5131
-973.2655,1408.4059,-339.01004
-1069.5623,479.74146,-109.818634
-1232.7238,322.77917,-263.0185
-1743.5927,168.04922,-358.81674
-3807.707,-3161.1694,224.99182
-3722.4006,-5351.471,1055.6064
-649.442,-2770.2268,1130.2626
341.58557,-1455.0558,1017.7853
925.06726,-580.132,727.59937
898.181,-219.24675,515.43256
1053.7632,-192.56105,342.20035
968.3581,-266.16837,420.60367
997.2764,-1049.6018,555.80743
591.6636,-1986.929,174.23003
169.46268,-4539.879,-214.6929
-1867.942,-6209.5176,-400.33505
-1799.084,-2136.9136,-272.14975
-1218.0137,-343.01093,-99.97608
-1104.3362,418.69046,-53.21026
-1118.1034,918.30164,135.73701
-807.25244,903.5648,-221.37378
-947.4406,433.29663,-261.96744
-1260.8911,316.5696,-362.34604
-1817.9036,50.372406,-338.8527
-2552.2234,-1793.4323,96.258835
-3705.0925,-4042.492,1174.0264
-2043.5223,-3835.6553,1126.9982
-142.54445,-2036.3586,821.77295
567.2106,-961.98956,602.5578
929.70795,-345.98166,478.50684
997.0761,-150.75269,506.41693
872.3338,-288.1647,468.55066
1069.4517,-204.5945,533.638
865.92426,-1706.4766,409.20483
570.4733,-3007.2666,-256.27704
-1035.0356,-6082.6743,-362.23788
-2037.5178,-4420.043,-343.85956
-1316.5331,-1011.55804,-259.4326
-1302.8691,-12.553187,-223.37521
-1407.4482,797.8678,78.49577
-875.41583,1224.4203,-205.48174
-798.10944,919.64667,-377.69284
-942.52655,324.53555,-239.23415
-1375.6699,251.10066,-327.7343
-2177.7397,-518.80725,-222.47382
-4114.4995,-4295.7646,951.05554
-2667.3203,-5189.5864,1212.0739
-121.66896,-2251.6655,870.8578
896.92975,-958.8638,599.7714
1363.0223,-504.233,459.0977
1225.4286,-286.2413,476.2016
1114.2115,-328.47632,439.06308
1185.4204,-571.5825,394.879
836.98755,-1649.9487,277.79227
225.81761,-3300.899,-243.82317
-1322.469,-5625.786,17.7589
-2148.2346,-3739.6594,-18.916979
-1041.3866,-672.03094,-9.73976
-746.5666,-136.22084,-83.68763
-957.94,531.7176,73.882454
-1088.1981,1122.8031,-249.93631
-914.7457,1037.4484,-446.01016
-1164.5638,271.1362,-348.14093
-1495.3368,280.69424,-455.36444
-2126.736,-560.39264,-462.16693
-3759.565,-3747.8494,398.9792
-2773.9307,-4872.845,995.7002
-327.86075,-2643.8274,1140.0017
466.94562,-988.80994,925.29694
874.50684,-442.30838,539.8105
888.8193,-265.5818,389.86768
971.6544,-264.74524,401.83038
882.1711,-481.86514,683.5558
635.5971,-1114.7051,459.15836
545.82227,-1735.1772,14.678124
-292.35574,-5225.267,0.7912353
-1890.2092,-5423.6133,-133.59845
-1410.3447,-1839.4968,-49.59268
-1038.9702,-469.33447,-200.69041
-1054.6005,178.6366,-46.25663
-1236.234,709.39,1.0581276
-696.9431,1174.2384,-471.35965
-801.59607,518.24805,-411.7527
-1030.4395,263.11447,-230.15878
-1440.5103,202.14914,-285.51614
-2552.089,-2034.7173,533.3502
-3526.9436,-4772.8633,1594.6953
-1393.6283,-3594.7622,1278.2423
106.35912,-1523.5393,808.4535
805.15845,-794.1806,376.09622
1050.1584,-449.9763,255.37712
1202.6019,-362.94934,274.6958
1156.2332,-415.9759,420.82666
1360.9734,-673.81836,413.12646
884.10864,-1863.6157,73.31276
219.03346,-4003.0398,-128.18152
-1811.8146,-6217.9624,25.407915
-2070.2961,-3019.1592,12.853287
-1250.656,-575.40076,-81.60731
-1336.1427,-159.46384,16.694899
-1143.9286,731.5486,128.18826
-615.79095,1103.6764,-315.12848
-788.5576,781.50555,-258.5126
-967.1257,255.78406,-332.67682
-1398.6741,288.06363,-483.90765
-1958.5469,-619.95685,-146.05307
-3859.163,-4040.3423,691.54297
-2646.618,-5124.1978,947.47156
-15.221012,-2213.582,737.42096
743.9442,-1017.70154,536.30115
1132.4425,-519.2794,515.6818
944.43384,-196.64153,602.93933
1038.9595,-147.73447,587.2215
1285.7383,-554.6131,654.1338
923.1126,-1610.9983,533.63654
442.7143,-2836.229,-99.10281
-1027.572,-6087.0093,-87.57075
-2378.6873,-4519.73,-210.92296
-1457.5743,-1052.9437,-153.5281
-1037.6848,-118.57605,-205.82909
-906.7498,631.67706,-126.17027
-1012.9473,986.84436,-139.43655
-921.54175,923.22394,-394.23224
-1158.292,326.7397,-422.8872
-1422.1442,277.44458,-402.77524
-2062.557,-356.66483,-370.23596
-4004.9575,-3625.4678,685.8332
-3096.6123,-4870.264,969.80756
-324.55548,-2656.0713,704.8831
556.514,-1295.9713,543.828
1115.7078,-722.47375,542.2261
1011.9337,-257.43066,543.92224
1007.58325,-370.0396,483.93558
867.4462,-438.2306,564.35266
705.8925,-1312.8961,476.4623
295.45737,-2006.04,-78.96364
-167.85342,-4964.6904,-456.95197
-2047.0895,-6008.151,-593.12714
-1696.0742,-1688.3865,-311.93558
-1199.4404,-464.22873,-157.73131
-1489.1321,530.76276,-40.297226
-1161.9565,1125.8563,-79.86206
-854.61523,1110.8723,-292.13702
-881.16144,447.59702,-265.67087
-1231.9059,244.28105,-271.9773
-1697.6194,-213.56268,-287.8899
-3046.928,-2796.7913,491.28522
-3395.469,-4613.1587,1130.7426
-888.9441,-3100.7678,874.0318
267.55136,-1492.7373,621.12366
942.35736,-838.3894,483.10468
919.01385,-445.5512,493.38434
1057.6698,-609.0587,562.1057
1369.524,-858.839,604.9228
1000.08405,-1240.498,601.50916
354.9187,-2334.846,-136.69257
-587.3613,-4906.4814,-349.40726
-2133.3635,-5441.0947,-644.00336
-1625.6638,-1659.4349,-432.74274
-928.41547,-310.90414,-227.87288
-1076.3934,263.04648,-23.257874
-1208.8695,730.6728,67.18621
-924.09607,1042.2192,-400.7011
-1122.3713,470.82382,-330.03445
-1209.0731,107.15426,-246.89134
-1461.0846,150.81723,-541.782
-2596.1877,-1061.8104,-88.3157
-4807.812,-4379.8257,600.54364
-2467.3218,-4807.88,699.3746
-68.75389,-2120.3162,696.5616
756.99396,-1366.9207,618.991
1021.5274,-748.8079,693.1635
901.9755,-374.42053,611.8609
913.69836,-449.7645,695.2181
1181.7452,-835.5476,790.9485
577.80927,-1632.7362,506.96396
147.45284,-3113.8782,-258.1945
-1798.4141,-7147.651,-552.5947
-2363.4539,-4051.879,-659.7494
-1307.021,-515.4491,-377.3112
-1340.1188,85.37452,-205.35335
-1304.4717,1097.1567,166.22595
-955.7392,1284.1599,-270.0809
-823.9457,763.82697,-389.64948
-1022.39276,226.38902,-289.70822
-1444.5864,143.5796,-416.6895
-2527.8586,-467.51755,-488.79346
-4869.4517,-4063.6587,439.84897
-3320.7095,-5020.399,620.0387
-325.53238,-2717.9849,669.8024
588.829,-1606.7625,651.52625
1202.3395,-944.1487,685.4582
1010.1651,-587.33795,638.09235
1136.048,-595.6256,670.3753
890.03204,-625.3766,665.33405
730.59216,-1353.2318,307.07828
267.3731,-1962.1454,-180.5637
-473.68213,-5080.9277,-545.0432
-1930.9788,-5892.3125,-472.84433
-1701.7046,-1987.2007,-227.59995
-915.9294,-462.0227,-202.62411
-1191.3733,-55.171738,-93.56966
-1234.6827,541.7537,-43.87208
-924.3448,975.66736,-394.5303
-939.7243,609.8184,-416.50537
-1096.3927,104.10755,-452.36957
-1300.8188,194.4656,-453.8445
-2199.909,-951.72144,56.69139
-4150.069,-4950.7153,1183.9476
-2089.555,-4839.2383,1274.3228
282.32672,-1838.0397,780.53986
1039.4731,-767.8024,503.4497
1106.6172,-430.8962,358.4724
899.12195,-127.59245,234.5886
931.9109,-214.51367,217.83911
1095.5105,-507.88074,369.54553
849.32263,-1326.785,297.8691
271.70248,-2830.9539,-237.75478
-662.1824,-4918.794,-295.01794
-1623.4622,-4283.1987,-384.14102
-1060.34,-1523.8717,-169.51228
-765.87036,-200.2947,-186.0869
-1226.5125,289.2177,-58.376373
-1483.3782,975.4036,-167.02467
-1100.4965,1342.2183,-537.9347
-1418.313,570.8181,-565.2117
-1827.7358,170.00563,-296.6824
-2734.3633,-1619.3788,-162.02655
-3697.3708,-4773.0454,766.5946
-1562.9973,-4448.1357,908.7528
74.55963,-2405.8782,774.89197
566.64325,-1173.3572,764.5805
574.8516,-705.77167,487.39722
644.46136,-287.43222,439.91418
1085.8762,-292.01337,391.52972
1216.6871,67.987785,614.3375
776.6638,-1175.7375,478.883
500.4832,-2310.9558,22.382895
72.759834,-5337.024,-66.0316
-1757.6484,-5532.89,-455.95355
-1637.7805,-1717.5945,-269.6912
-1148.917,-409.9118,-346.85873
-1360.2458,647.0977,-58.80726
-954.912,1095.9993,-69.86949
-585.0324,1249.1632,-405.53024
-880.81964,413.90897,-363.00378
-1273.7991,243.21794,-241.58214
-1685.6387,-241.58405,-369.4357
-3386.8228,-2737.133,518.1266
-3588.6624,-5091.7197,1146.4493
-946.52893,-3221.1199,934.7701
350.58585,-975.2522,642.8098
986.1388,-696.341,485.93143
962.0602,-315.57422,556.91815
1120.1534,-429.18933,458.5035
1190.4764,-418.79712,558.27374
1100.3363,-1076.0431,568.64954
601.7557,-1950.9064,21.580181
-228.1551,-4813.8237,-217.95717
-2352.7856,-6413.1313,-350.09018
-2095.306,-2202.6033,-281.4315
-1309.8232,-380.671,-151.11629
-1262.589,358.62213,-41.221977
-1141.4342,1102.173,85.82466
-901.88855,1347.2346,-344.11926
-913.3407,549.89667,-279.6418
-1138.9457,266.1313,-334.65012
-1631.2144,173.08926,-444.6646
-3156.7217,-2170.2231,293.43484
-4032.1523,-4958.7715,1022.6095
-1300.363,-3710.5168,889.89154
121.59978,-1568.4125,725.9103
892.6085,-899.6974,564.3557
1018.6311,-490.27963,526.66925
1172.6753,-471.12592,521.08636
1109.5198,-587.1447,738.10596
982.1531,-1035.6356,652.5287
376.31808,-1766.021,171.76656
-38.730637,-3741.419,-288.60776
-1889.955,-6178.8584,-564.4058
-2018.3158,-3103.197,-440.56183
-1188.7161,-697.17267,-277.62836
-1348.023,-20.350908,-96.65838
-1589.9596,796.39703,141.78665
-992.93005,1369.3824,-311.26334
-1016.42126,767.9054,-152.7321
-1152.45,293.169,-256.64938
-1585.7338,54.443104,-358.48788
-2264.598,-1361.9456,32.997425
-3793.2307,-4173.876,904.11633
-2345.2676,-4113.0913,729.8484
-95.88755,-2062.147,502.53864
804.781,-1036.6293,400.02567
930.4728,-691.34357,647.5784
870.0887,-343.34634,654.8787
1052.4197,-377.43634,489.50443
1232.0892,-506.1023,635.6391
1087.494,-1529.1084,535.293
452.68655,-2916.4822,-196.99469
-1066.5664,-5424.067,-725.663
-2465.6494,-5449.5005,-632.2271
-1830.5671,-1864.9816,-492.51288
-1257.1265,-216.00189,-467.51416
-1123.4039,182.31662,-120.987625
-1188.2433,726.3901,-116.647606
-1041.5262,1142.8527,-482.71353
-1169.4938,692.2843,-518.2081
-1614.4397,362.6354,-239.72359
-1928.7511,-88.840645,-341.8989
-3542.4238,-3520.6304,584.09644
-3148.3186,-5396.4824,1207.5034
-537.1984,-3102.1272,1084.0571
655.4598,-1322.9299,964.9065
987.3759,-647.5794,535.1658
924.1679,-194.96005,308.93372
981.3531,-220.68977,474.7873
1132.2638,-174.78192,533.32556
1079.1252,-671.0177,574.45807
532.35254,-2338.824,278.31793
-475.09882,-5137.1543,-16.949152
-1694.8215,-5927.597,232.23227
-1313.0002,-2456.8088,259.80786
-1049.3832,-607.71344,-30.321701
-1343.0127,66.21581,-195.16692
-1634.0087,407.5667,-99.175385
-1053.5168,1412.82,-447.80298
-1161.9338,549.4304,-380.91925
-1644.5486,97.729126,-443.95197
-1857.9478,-50.729286,-427.75058
-2767.7766,-2104.1548,417.8591
-3580.8364,-5173.2085,1573.0417
-1356.5087,-4036.0986,1324.2808
220.65733,-1791.6511,963.04083
850.2883,-1150.005,758.2102
855.82874,-576.16876,752.8719
794.5061,-280.4399,768.1253
1150.0955,6.411356,754.78
1331.0072,8.639426,786.74457
751.5331,-1257.285,608.89496
-425.74112,-4729.2217,261.2488
-1967.1473,-6739.679,361.26352
-2299.2085,-3622.9675,-97.92177
-1557.6858,-408.0505,-250.91411
-1328.378,193.27155,-405.8461
-1171.2742,1163.5144,-304.23276
-1021.9152,1290.5034,-358.89352
-1204.5306,831.6041,-456.0706
-1402.2616,4.331776,-395.00238
-1714.8616,311.85895,-439.0074
-3280.9897,-1353.5988,9.432911
-4695.6914,-4659.2896,679.0435
-2384.3389,-4511.5522,504.50256
-130.96962,-2128.5813,410.25375
968.91534,-1101.8535,425.6647
1145.2864,-820.7282,531.4499
1176.104,-661.26624,433.3984
1055.7297,-445.32614,467.1191
1151.995,-695.57745,505.73364
534.7672,-1946.157,339.98514
-21.668911,-3597.2937,-617.4507
-1782.5865,-6162.0493,-860.3426
-2294.5288,-3526.6536,-792.14325
-1287.741,-566.7872,-359.33008
-1069.9044,35.392075,-142.90337
-1064.1814,781.7098,99.95911
-1112.7478,1139.3246,-10.251543
-1019.06134,741.7915,-52.76443
-970.97705,356.93518,-346.17194
-1365.1343,265.10474,-585.1792
-2164.649,-1045.143,-483.71796
-4359.322,-4168.307,235.63664
-2757.8943,-4542.839,562.6476
-193.95818,-2035.7002,481.05365
731.2397,-1398.672,407.41324
1240.8752,-915.46967,466.48972
1076.9135,-985.3713,609.32196
1189.9481,-852.3159,727.3774
1067.9314,-1289.8734,512.5116
480.45868,-1484.9695,25.0372
-216.06888,-3388.1074,-829.89294
-1525.641,-6401.9604,-1183.278
-1983.6365,-3809.4211,-609.91644
-1140.4479,-724.4878,-160.99709
-1005.7672,177.12581,-304.14536
-1335.6929,863.46875,-206.43396
-1201.014,1265.3005,-307.796
-1196.9677,658.76996,-316.77246
-1407.869,72.65015,-403.0307
-1952.0231,77.320946,-544.63696
-2652.1975,-1102.1526,-458.57486
-4237.2764,-3661.1497,540.38556
-3201.154,-5028.4883,700.0247
-691.8489,-3107.442,448.98383
230.58968,-1687.2799,437.522
923.08777,-1267.2794,386.7211
945.1117,-636.1513,430.05997
1146.7084,-641.36743,509.79984
1396.1223,-469.305,700.5972
1145.788,-1389.5856,771.36707
582.34875,-2406.1692,133.4386
-821.82336,-5525.575,-403.55142
-2703.3096,-6658.853,-512.8121
-2113.4463,-2210.2222,-436.75436
-1392.0842,-338.1827,-453.3536
-1545.6139,295.06332,-275.17136
-1289.2313,770.5014,-87.01449
-896.4946,1270.088,-569.9473
-1038.2322,380.16098,-253.51157
-1193.5825,98.27305,-234.44592
-1554.3129,95.23818,-522.9777
-3022.2969,-1518.2794,321.47604
-4154.5083,-5401.3633,1101.8783
-1843.9252,-4326.005,1062.4376
-33.668022,-1929.8958,697.54816
919.55,-1115.6663,508.99713
1498.8198,-615.52826,547.46533
1268.548,-275.91583,409.34113
1085.8231,-794.36224,493.78168
862.91174,-1180.0603,863.6717
532.0743,-1596.2671,673.7551
-702.35046,-4438.3047,560.9616
-2440.9397,-6411.258,285.76633
-2493.9463,-3417.1382,-290.72437
-1590.957,-531.629,-533.8891
-1232.7177,327.67682,-392.5646
-1398.3136,1334.8652,-6.4338183
-1316.2488,1671.644,-264.54553
-1451.9335,836.15063,-560.7566
-1751.272,-47.607628,-247.4168
-2186.9956,-91.763336,-619.19324
-3224.76,-1748.335,-126.235916
-4321.95,-4463.7964,782.0487
-2026.9246,-4663.302,418.63953
-172.19427,-2451.736,711.58057
536.6047,-1042.5852,519.1667
851.9408,-727.4019,498.60452
850.99744,-424.40924,481.92752
1230.8608,-572.9984,598.4093
988.9782,-712.89294,854.71045
701.80176,-1201.7244,425.78503
661.8303,-1512.7706,-71.01029
-53.87428,-4925.462,-623.79956
-2061.2947,-6293.111,-1023.26416
-1709.7267,-2419.9263,-503.10492
-1037.637,-567.67145,-324.32224
-1492.5653,193.24973,122.4915
-1472.7705,1016.82324,42.424015
-1052.1249,956.121,-191.98442
-979.58527,512.9196,-59.502636
-1082.6943,225.64822,-126.3296
-1250.2002,190.13274,-357.8262
-2856.598,-2269.5935,202.80862
-3918.0693,-5471.445,785.0152
-1174.766,-4242.1865,751.9703
485.35037,-1824.1567,443.6737
1290.224,-796.6956,372.47412
1335.9053,-408.4452,324.82156
1151.2039,-264.46234,281.83725
1235.7333,-491.08356,297.78583
1296.7828,-865.47546,238.2933
798.6802,-1928.5182,-164.21915
-240.25916,-3602.025,-522.8285
-2241.8608,-5298.062,-423.51694
-2371.633,-3275.737,-257.9574
-1188.0109,-829.8073,-166.76634
-900.66046,-86.49203,-163.65541
-1111.7218,359.9526,-12.670839
-1207.9261,1139.8972,-335.95303
-902.0604,1645.4088,-638.1845
-1137.9797,659.35297,-439.51654
-1348.7975,382.19543,-377.55032
-2640.8499,-1538.7725,72.441414
-3739.395,-4464.522,890.44135
-1876.7947,-3632.5637,786.4277
-251.52603,-1835.1205,549.1365
308.96558,-1169.1783,572.0316
678.9538,-560.1841,485.4662
850.7866,-373.35458,651.6817
1066.7772,-436.92496,614.7764
951.61487,-533.6175,690.4107
631.2071,-1133.2365,463.2056
189.48267,-2047.5267,34.810215
-567.58594,-4174.5034,-108.75992
-2470.204,-5163.396,-235.68887
-1596.0571,-2044.7727,-136.61629
-1030.3774,-518.8313,-230.37923
-1015.9325,23.63331,-188.16936
-1242.2543,487.7519,-309.7781
-1056.8978,1230.9961,-584.7757
-1041.5472,1019.4909,-277.82068
-1016.728,435.93555,-147.52222
-1192.5328,247.29193,-288.881
-2311.2354,-1627.8822,426.99805
-3517.866,-3925.5154,1379.6018
-1823.7019,-3030.5435,1064.6462
-370.96863,-1448.1523,683.7771
268.87872,-1142.2666,449.45798
536.4643,-687.5286,479.51514
744.69635,-429.5383,561.3299
845.0316,-448.43283,500.0342
899.1074,-463.62222,553.9151
500.32074,-908.5989,552.4204
216.66878,-1786.9181,63.82773
-243.55595,-3400.9546,52.666874
-2070.092,-5128.9243,-245.83926
-1772.6213,-2757.178,-285.83325
-942.37225,-842.3728,-151.77138
-950.52936,-384.2062,-11.207691
-1138.8075,209.80096,230.96495
-1049.9241,609.7417,-286.79315
-943.078,923.2949,-275.9494
-912.1521,569.5034,-37.098804
-704.6628,448.84735,-236.40417
-828.40283,-177.56494,-237.21652
-2406.19,-2599.799,663.27234
-2652.5295,-3978.348,952.1873
-1167.0997,-2815.75,955.6956
-267.04587,-1379.1218,776.3216
118.336716,-810.34436,572.1419
381.18152,-524.1613,362.3818
577.63226,-459.09915,340.75946
701.71515,-353.02832,388.40323
623.7454,-585.64813,356.75806
412.91574,-1062.4491,240.90895
-304.98972,-2464.0142,363.11234
-2354.7095,-3453.2393,534.54034
-2159.2651,-2411.6484,271.61115
-1338.1012,-1324.738,157.56453
-768.42834,-751.5435,258.37396
-637.1851,-734.08545,115.89546
-470.50046,-271.24802,-113.10707
-561.50336,-49.194447,74.43169
-415.4424,197.92635,33.928577
