# PAMAP2 dataset (wrist-mounted sensor)

acc_x[mg],acc_y[mg],acc_z[mg]
-417.24176,488.79538,537.23676
-446.54626,656.74,323.33878
-287.6831,617.1585,437.04965
-158.11044,800.3179,361.46964
289.10452,1045.3918,432.84402
208.45824,1151.3032,221.94946
-540.44147,979.28156,612.4919
-657.848,159.84647,87.30135
-926.6009,-109.87053,-65.41826
-1416.3746,-1049.7804,19.683285
-2063.074,-914.99927,-474.42944
-2974.9836,-324.7293,-627.7494
-4648.9653,1114.7739,-97.139046
-4232.1753,2976.1624,114.460236
-1901.0311,2230.0579,3.0255797
-0.3319443,1892.1333,126.17461
1348.4998,669.01746,253.64886
1596.6372,801.2321,98.48407
1060.0024,526.45465,293.14108
676.42957,522.3353,62.761032
245.96962,620.908,58.740555
340.17328,155.5125,3.5937028
-1203.5785,3444.6062,344.50165
-7282.3887,6705.892,-414.31134
-4168.3203,2081.3796,-185.1868
-2993.5444,753.3025,104.846344
-1769.803,-257.96213,106.93759
-994.58813,-939.562,-180.07394
-411.11627,-1475.8759,-402.32858
-754.59546,-1134.5946,-243.09943
-984.4996,-1287.67,-368.93878
-1464.6404,-468.81265,-402.8403
-1514.0785,-790.70105,-397.8855
-4226.9326,837.4896,-519.6803
-6889.3853,4244.2544,760.6584
-3010.0823,3837.9475,311.01352
-2.4795063,1612.6237,-59.820026
1054.076,1299.397,130.47655
1129.0929,919.49866,127.98469
980.7595,725.5667,270.2728
858.5909,586.16785,275.24036
843.5668,360.1092,222.56892
537.6093,591.2913,61.432766
671.23193,-34.972588,224.5499
-763.5274,3877.6477,403.87912
-6298.7856,9816.745,-395.46976
-3007.583,1695.428,-293.99225
-2607.9126,730.637,-511.44623
-1741.1765,-1074.8281,-190.72868
-587.9508,-1958.4,-1321.9956
-699.25275,-1955.0051,-417.4538
-1177.9932,-1124.2144,-185.2194
-1453.283,-313.10385,-180.32385
-1704.9733,-199.28554,-770.0216
-4185.8545,1181.375,210.12054
-5568.4775,5084.0894,545.51465
-1872.8683,3075.2422,450.98694
140.93831,1884.9293,-182.10074
1285.9519,680.8466,3.8624628
974.52264,845.40497,56.90735
1228.3282,69.73441,231.46141
851.4986,873.7121,103.17913
1241.095,-65.257195,415.55002
575.0431,907.42676,12.912964
1149.3335,-396.73618,331.83698
-1620.6648,7367.602,-1264.2158
-5007.0366,7656.377,-994.9606
-2076.749,1101.4703,-647.6476
-2556.4612,461.38846,-845.281
-1516.4193,-1941.964,-572.9484
-1118.3534,-2024.4451,-857.1038
-1050.2063,-1934.5325,-493.3496
-1893.9932,-769.6216,-228.86502
-2180.0566,-845.089,-596.1845
-5599.089,1618.3203,-738.15344
-6153.395,6362.7637,485.51953
-1074.8164,3348.015,-57.135555
150.70892,1851.8467,-128.46518
1262.7256,403.87207,36.062176
903.1611,800.5326,198.86638
1457.4877,79.494,126.26153
1019.33264,801.0781,41.576607
1660.1637,-130.14572,11.081248
466.75174,818.25714,-102.307594
1597.4396,-154.14499,61.62534
-2874.2974,9253.605,-880.5327
-5341.848,6597.061,-451.30502
-2272.1438,534.8281,-166.01129
-2925.577,337.11896,-382.779
-992.0957,-2133.1145,-531.5891
-1158.6631,-1467.1912,-659.592
-851.6513,-1451.2517,-61.41605
-1480.6475,-505.28857,-15.913364
-1146.9739,-340.1432,-363.8849
-2444.7388,334.59717,-43.739384
-4620.1772,4188.29,1003.25836
-2587.099,4002.0835,631.94604
-264.96545,1979.9888,335.1992
185.93388,1516.1871,155.59087
886.53986,650.9732,322.6365
952.49976,498.87186,159.1776
1375.5703,420.74844,423.7407
1184.4366,292.00977,146.25647
1187.4133,513.9122,98.24262
881.60046,353.65027,-156.04309
427.7003,3107.237,-18.773453
-3106.4858,8479.822,-445.09988
-3075.915,3449.104,-246.1317
-2487.3308,1100.164,-46.96949
-1968.9669,-414.40756,-56.672676
-970.65405,-1311.2009,-397.68628
-1058.9147,-1678.1241,-178.77614
-1088.6825,-1151.1913,102.31758
-1312.8635,-505.58035,-252.98839
-1637.8367,-389.95905,-367.07333
-4228.083,2382.7664,421.90466
-4674.412,5064.894,591.46155
-1502.4163,2973.5579,290.06592
66.73661,1752.9529,221.06355
1014.8053,506.9924,141.18427
1026.9696,702.53296,26.65937
1198.8992,270.66916,208.11417
1151.1506,563.64966,109.6758
1186.7705,281.66977,185.9955
599.52295,630.3968,45.66003
762.9227,985.31287,190.33311
-1375.2504,7793.566,-100.28283
-3122.3748,6048.3623,-483.27924
-1979.3922,1358.834,-371.85147
-1819.4393,474.43497,-444.2456
-1527.1173,-1206.9507,-356.32242
-1438.685,-1736.0858,-570.6295
-1209.2141,-1552.2166,-227.66992
-1879.2943,-757.95654,-198.88991
-1688.4836,-503.9129,-506.90106
-4099.0444,638.2297,-145.63055
-6154.416,4405.494,394.04602
-3029.9478,4297.5444,383.88498
-297.3226,1251.1259,88.412895
1020.58344,1524.3046,173.39757
1998.3273,901.8494,369.48807
1362.8505,925.06323,273.57138
1456.946,398.5232,324.49
476.07095,664.1916,125.95491
973.71655,633.9706,142.18518
-3463.024,7591.2466,-627.5618
-5676.5034,5843.5317,-1013.18585
-2330.4866,465.9389,-360.7056
-2503.9653,100.81868,-109.161385
-602.337,-2110.3555,-281.07892
-1170.2601,-2338.1482,-373.55933
-906.82495,-1403.0483,208.9769
-1509.2756,-444.45718,-148.96721
-1392.8645,-690.9385,-347.64264
-3356.6995,306.15765,-55.375835
-6064.5522,3892.7603,618.6587
-3325.1196,4011.13,645.927
-272.7416,1554.8123,135.75238
557.51996,1158.5244,101.57748
1190.9125,873.6906,167.0281
1466.0189,649.0756,107.66954
1680.6283,498.789,199.73122
1134.323,964.0129,96.69161
782.07477,518.67816,55.64726
276.70724,3225.231,-147.45024
-5050.1377,9400.016,-1108.7683
-3783.562,2786.748,-762.1815
-2080.796,734.6726,-269.5992
-2144.829,-538.57166,-57.693302
-984.9019,-1921.4541,-289.5278
-1528.113,-2083.7737,-284.63672
-1421.3914,-1209.2296,71.99676
-2368.7915,-961.9225,-698.3037
-2775.3547,-303.99158,-258.25317
-6400.6353,2127.3296,388.67322
-6598.0737,3549.3193,480.96906
-1351.9598,3691.9019,531.53406
717.1839,576.1509,331.3937
1160.0741,1377.0905,-126.32174
1638.337,485.25803,157.89731
983.5484,897.611,-8.345238
1662.4824,8.234831,178.2388
270.58224,994.7994,-196.39133
1698.8275,-410.49622,347.21716
-3248.5312,6970.4336,-1737.4315
-7474.206,7457.19,-2032.4786
-1980.633,878.7879,-865.7534
-3824.4424,128.86899,-656.9423
-1170.4591,-2100.308,90.61493
-1612.7549,-3208.621,-810.5964
-1269.7316,-1870.0204,-139.19904
-1989.3679,-451.9583,-434.65833
-1642.0756,-323.8444,-414.44174
-3437.4827,396.37204,-81.92295
-6752.0645,3932.9146,-986.8019
-3198.5125,4706.138,-307.6121
7.003011,1170.3627,-554.4545
1017.2492,1473.6168,-906.9672
1658.4032,333.01663,58.522717
1351.3871,839.5292,44.35067
1176.5697,-72.707436,405.13586
1130.6831,777.1627,28.297049
907.3509,-372.3068,441.14587
563.6271,3254.1855,-1270.5758
-5916.9395,9603.064,-2089.608
-2750.7773,2992.3804,-893.1768
-2216.877,483.1134,-657.1026
-2232.3042,-857.01166,84.187744
-910.19006,-1865.4537,-125.407524
-1568.5833,-1998.0922,-24.006466
-862.72327,-1027.2784,-35.012337
-1972.5809,-280.9602,-237.4853
-1711.1431,-593.84796,-427.58624
-4877.5244,4229.6694,-291.01865
-3442.886,5882.5176,308.78085
4.3465233,2284.4375,31.263283
433.0286,1154.671,251.82155
626.4579,410.0517,24.617062
646.9092,465.10074,237.1207
895.32996,430.20798,224.7084
1424.6628,311.15817,294.35507
1376.7615,279.43045,15.574836
880.3816,316.2309,-98.355125
760.2817,2822.5352,-478.82776
-2643.9834,9468.899,-1336.2249
-3331.445,3897.4854,-768.8747
-2061.3489,860.8218,-642.8283
-2231.8633,-24.767519,-364.77213
-1224.9874,-846.3899,-153.8163
-1546.4536,-1452.7115,-311.81454
-1080.2438,-1486.9128,-21.157148
-1995.7664,-232.12013,-277.6729
-1528.2557,-418.17886,-202.7784
-4062.8225,1925.3577,-836.65015
-5983.65,6272.4004,-205.04909
-1483.4895,3638.749,-75.87657
1260.3466,1083.7859,-675.4668
1552.2152,829.257,233.34584
1651.2286,-26.039335,349.23346
1191.1218,404.55505,105.1057
1466.9503,-108.034065,195.93535
703.2558,698.90686,-38.5582
1081.1836,-737.24896,253.37456
-298.64395,4867.6016,-1427.6658
-5964.1377,10171.326,-2444.418
-1805.4095,1206.831,-820.6653
-2577.341,639.9211,-410.6753
-1371.3298,-1569.013,262.34537
-1292.8113,-2240.9678,-154.15912
-1243.5658,-2336.0527,406.29355
-1690.6631,-621.9412,-97.865265
-2526.8972,-973.72144,-804.6528
-4227.1777,79.35314,-744.1875
-7125.0264,4176.6733,19.13492
-3812.935,3894.758,304.11914
-236.58382,1891.6877,-247.25337
923.7967,1115.5571,177.51176
1363.1151,603.03845,186.53236
1535.18,389.74295,116.57737
1105.345,593.2421,91.04755
1264.8345,456.7677,-1.1560309
256.4453,897.6576,-11.406813
1088.0044,730.43115,-356.0906
-1728.9912,8136.4624,-1284.338
-4562.9297,6413.135,-1706.0306
-1905.8137,-256.90964,-366.24423
-1939.8754,900.0782,-38.464943
-890.7235,-1188.6033,132.32777
-748.3222,-879.5105,-419.056
-875.9113,-1752.3057,-147.22755
-1527.3877,-322.78748,-488.48077
-2193.996,-736.8618,-442.7475
-3585.0623,1590.8739,-852.92145
-5654.9556,6162.532,-84.385445
-1566.5258,4748.416,20.791624
940.7342,1035.4263,-502.3033
1384.2867,587.66077,-143.6226
1256.7174,28.349499,-62.04127
1412.8723,274.0024,8.1553135
1024.9849,224.82948,127.513985
1269.7343,154.00095,-20.397188
341.12726,163.89899,28.857685
1638.4025,753.82587,-362.8271
-2392.528,10136.871,-2767.8027
-3460.8015,5125.2637,-1356.8875
-1017.88885,-464.24118,-626.8142
-2465.8223,315.95462,-171.54744
-966.9769,-1782.443,244.5251
-1389.2992,-1395.4342,-328.2076
-1223.9287,-2283.4211,-109.372444
-2351.6042,81.27113,-281.52155
-2609.6292,-590.0038,-516.74146
-4922.179,5800.7197,-488.4333
-5024.6553,2505.9026,-426.0796
-774.2295,4097.076,-1194.5514
1575.7206,1923.959,309.3974
1145.8739,-37.496,119.600784
1776.857,111.96185,417.3504
1260.2479,551.59247,118.10694
1481.0409,-227.53627,399.05807
512.31274,597.7654,-21.966238
853.9284,-513.09955,693.5981
137.1478,3671.2925,-691.18396
-5954.1475,10856.15,-3660.472
-2576.548,-293.1196,-836.918
-1615.0272,501.98233,-182.59952
-1888.4576,-932.8862,382.4887
-601.86444,-2963.0781,-274.47784
-1355.3827,-1775.5928,102.89553
-1183.1234,-956.5901,-299.90118
-2235.732,-664.11664,-323.0291
-3459.212,155.00943,-830.37537
-7269.497,6289.801,-1547.9976
-2130.0466,5243.0493,-343.9651
639.6289,832.3833,-910.8613
1021.1637,648.9938,168.62337
1231.7019,418.4494,2.9537444
1672.7396,349.8296,140.27916
1045.9055,27.854927,-9.403937
1423.1561,106.040085,69.60131
395.50586,-18.440918,6.983022
1608.4445,1477.4475,-755.05994
-3193.6467,10933.793,-3195.0037
-3212.4995,4261.5234,-1556.0458
-2272.947,-181.13799,-1292.7535
-2386.489,-389.53976,-61.50177
-1016.2778,-2005.5106,-340.43146
-1247.504,-2242.7517,-271.30667
-1385.3424,-1258.4944,-350.60074
-2691.916,27.020565,-70.3773
-3789.853,-380.28104,-1369.5338
-7298.1504,6202.237,-1382.3958
-3352.332,6002.794,-314.3459
953.9273,1851.3962,-1141.8558
2110.445,650.7712,-395.1741
1838.0746,226.36389,384.2813
1374.6355,511.7571,20.100203
1216.2109,-183.50652,349.989
935.7367,271.9548,-133.56456
850.17834,-369.5406,615.6282
695.8997,2351.1133,-2206.9465
-6003.755,8813.968,-6302.9956
-1239.4607,2610.577,-2105.728
-1969.9476,-854.88654,-1364.5017
-1863.1284,36.883797,836.458
-1317.6132,-3178.8235,400.04703
-1515.7268,-2205.6438,597.26385
-2048.7102,-1413.0074,-295.16968
-2957.9426,-508.34558,-356.08054
-3803.3967,256.93225,-1310.8773
-7430.9116,5632.717,-2555.2344
-3152.1968,4819.7837,-722.7495
620.0835,1940.7211,-1220.2256
1293.0782,269.21545,105.80398
1810.6143,-109.03998,131.13687
1386.7008,-45.37877,455.67355
1045.5637,206.72812,314.3297
1112.236,-151.7371,279.61383
574.57086,669.52795,27.506433
968.539,-359.36734,-164.8931
-220.4394,6000.619,-4395.9585
-4419.0,7991.9893,-4268.123
-1573.5337,925.2226,-1715.3184
-2508.6372,110.73579,-813.55945
-1833.9524,-642.0442,401.1535
-1477.0334,-1055.1986,198.68153
-745.2174,-2587.1736,416.4969
-1873.0001,-723.7066,260.57028
-1779.6904,364.67398,50.36067
-2630.5083,-423.57248,-717.5131
-5242.208,6450.2324,-1781.7484
-2275.8523,6378.4736,-97.88033
909.29065,636.37683,-1459.4346
1486.2021,548.2623,-521.9641
788.8058,40.923096,5.5106564
1252.4027,-97.2708,230.47656
1257.0839,-179.08693,-221.89223
1811.7249,-576.07043,230.28766
456.09885,384.99173,-200.67516
1770.8248,-1001.2484,607.6954
-757.6749,7906.1016,-2816.303
-5005.332,8780.251,-3221.4336
135.96382,-1227.5016,-209.11615
-3197.4863,1382.2203,-448.15372
-1115.5189,-3397.7847,774.71954
-1384.7405,-1775.359,-0.7835583
-1233.9669,-1357.8342,283.9996
-1564.5635,11.725813,-721.63354
-2415.8816,-1155.8672,-966.8854
-5391.1,4765.647,-1979.7424
-3588.807,6641.0747,-492.25516
-277.24033,2722.7656,-378.8542
1648.7693,616.8844,-525.1847
1334.1036,580.117,95.96892
1378.7542,6.4402776,249.16672
1049.5562,986.36475,102.18646
1268.1876,-208.59387,276.1442
664.33093,746.50757,-311.41547
1640.845,-896.6847,135.26324
-99.22317,6910.598,-3619.2837
-4987.085,7966.3535,-3571.9377
-403.34186,-452.13058,-749.663
-2809.3088,516.11615,-762.50745
-1489.2358,-1846.2002,863.5826
-1547.9875,-2264.084,-22.9126
-1507.2336,-1853.8325,510.43185
-2138.825,142.6795,-393.6665
-3132.1345,-1564.0936,-722.7944
-6721.9463,6024.9004,-3005.013
-3736.449,6500.569,-856.3566
389.1352,2118.8496,-1009.55225
1871.7982,514.2946,-634.821
1298.5612,599.9833,200.88885
1656.4471,-240.38773,324.6087
1116.318,413.06882,-3.9753654
1574.8801,-335.40967,373.1179
637.4022,692.8266,-303.3848
1522.9895,-844.16583,590.98364
-830.01263,7258.5776,-2607.5786
-5918.5923,9515.333,-3290.1648
-951.9982,-589.0143,-584.07416
-3238.0803,862.5025,-486.00018
-874.9554,-3354.583,1263.0713
-1552.6293,-2250.107,69.11743
-1069.3485,-1062.0884,631.18365
-1640.1484,5.8747764,-436.1393
-2415.7786,-617.02344,-378.60272
-4678.351,2285.8079,-1950.5526
-5459.7583,6724.9453,-1026.1582
-795.2041,3227.8386,-476.15823
993.2164,969.6868,-799.60785
1154.4623,599.9724,-175.9041
1258.8517,-491.3439,-3.8191628
1883.6384,122.130585,-97.48098
1238.4692,-146.31737,378.11914
1347.7488,398.40442,5.8598833
545.7339,-193.41895,-171.78542
1498.8905,3154.7397,-1124.608
-4360.24,11809.135,-3435.658
-3884.886,2874.4475,-1472.5101
-1385.0636,-130.24947,-219.61154
-2581.4302,395.1842,-113.35819
-1510.9072,-3205.2632,629.72565
-1173.7411,-1566.3304,295.70654
-1871.4989,-531.4075,-892.37354
-1903.2615,-500.98846,-573.9531
-3552.6006,399.44656,-1439.3486
-4834.216,6349.946,-1952.835
-1863.6185,4805.207,-336.5406
319.79263,1823.0917,-677.066
1257.458,655.9734,-128.81023
679.35223,739.79016,-69.67868
1296.4796,-51.65923,215.2656
1099.715,442.56616,32.44738
1557.4812,-403.00342,427.16342
1102.2032,871.76825,56.827282
1899.1696,-785.1066,807.0723
-179.3252,7591.5913,-1952.2976
-5454.0376,10261.85,-3854.4563
-1149.8453,-1314.5562,-1119.6201
-2138.2048,527.68353,-1248.6246
-1562.6025,-5114.048,-676.24506
-1503.3375,-1752.0411,-673.9885
-1534.0431,-556.82684,-277.24292
-2204.893,-174.87297,-370.54398
-3502.241,-496.7351,-765.4892
-5609.2,3792.815,-1134.2188
-4485.1357,6261.424,-292.66116
-247.57314,2525.4697,-201.2976
769.9281,877.9083,-496.68665
1053.3965,327.54953,-35.41514
864.73694,10.9007015,-173.00925
1534.4166,45.265213,-117.342
1392.0647,-106.7544,-130.17024
1387.1559,121.78149,-18.182436
767.00854,-381.25372,-197.72607
1701.7498,1589.4966,-246.65913
-6513.421,10641.209,-3545.3374
-1815.5656,2029.0682,-845.30615
-403.80792,27.766777,-481.876
-2725.8052,-171.96655,267.52063
-193.04836,-3534.3281,432.88208
-1820.2435,-910.79517,-401.07346
-1288.2823,-679.1066,-349.95633
-2142.8564,-493.28934,-643.5713
-2826.3638,572.7266,-825.0465
-4913.515,6608.173,-1496.4971
-1357.9227,5438.5767,67.822815
380.95865,1480.1646,-401.39774
1239.9105,498.6091,-53.582882
904.3169,-0.85997355,51.355873
1476.2634,-115.93926,286.92725
1083.522,67.8695,-31.960615
1391.8644,-569.5857,182.58751
427.13815,354.09592,-211.41519
2173.727,-392.9929,328.94342
-2755.0408,10160.656,-3412.4045
-4041.5637,6162.1387,-2137.8523
-788.0098,-1338.1553,-551.38794
-3050.74,735.21826,-43.065266
-370.42404,-4004.7407,819.7959
-1836.4716,-1622.7968,-33.271706
-1386.9666,-763.66974,-94.5191
-1923.3533,-299.08536,-632.32446
-3098.956,-317.99368,-1091.4331
-6312.613,7216.7227,-1285.0096
-1651.2888,5691.967,-515.56683
783.0114,1009.79156,-566.32715
1282.1001,31.826464,307.21295
1045.5631,366.33545,159.61203
1613.0007,-318.23236,288.2036
1184.0767,-166.54727,-86.68439
1327.083,-238.40935,110.868515
345.65866,273.5667,-305.89142
1812.21,99.930725,-186.15533
-1884.0013,10306.522,-1957.6191
-3021.927,5006.223,-996.6951
-370.82434,-159.28737,22.102743
-2840.9316,801.02985,-157.93768
-981.556,-2261.2712,-106.81927
-1706.5471,-1572.0851,-535.5751
-1525.231,-1017.5795,-69.015686
-2356.5684,482.311,-315.57767
-2478.2258,-650.13947,-725.7375
-5750.729,6027.115,-1016.24677
-2445.5784,6997.536,-154.43109
1051.8912,1630.4803,-563.58014
1282.0898,645.36475,-298.48602
1187.6113,-482.24728,-121.586006
1192.5193,-49.523228,-23.399164
873.6869,-516.7882,-166.49628
1173.1318,-573.6414,-17.282127
515.8231,-250.33458,-327.52158
2436.7146,-714.6506,16.23166
429.1769,4430.9927,-11.7666445
-4656.744,11314.181,-2461.537
-6.8235435,1273.1493,-710.73663
-3014.1929,495.00015,-1039.8789
-2426.4348,-1689.1409,-716.0328
-1623.83,-3184.8403,-773.33496
-1693.3114,-1476.998,498.33716
-2474.6135,-79.67299,-934.2285
-3465.9138,-571.5862,-747.8519
-6131.5293,4632.2437,-2353.038
-5052.841,7359.082,-859.9952
-339.2554,3039.9236,-739.00964
2167.063,865.25714,-1424.15
1444.159,581.82166,67.02475
1781.8944,115.980934,90.29001
1566.1644,209.31023,-129.12904
1594.6887,-75.88705,-93.0612
483.90945,336.13058,-56.028175
1658.9668,660.09155,-371.8443
-3495.163,11611.611,-2818.2803
-4506.596,4454.5317,-1868.9634
-1879.5353,-691.9322,-664.4234
-2783.576,291.6178,-137.41278
-635.8433,-2032.843,-164.00003
-1238.2311,-1991.3473,-593.25195
-945.00256,-1555.185,41.51264
-2478.1638,92.05938,-418.61823
-2642.7358,-1479.5273,-859.66956
-6922.684,5837.2476,-841.1495
-2989.6125,7060.7935,-268.23444
560.8794,872.78595,-369.4146
858.6797,1016.86,58.03649
1035.6342,353.15033,-27.32234
1768.5831,194.02663,-210.50266
1532.4938,395.01407,7.990587
1270.8796,248.01825,-37.357784
756.73303,455.27246,-96.57378
916.5573,1794.84,268.81137
-2073.622,7692.49,-63.652313
-3828.8257,4216.8677,-262.67062
-1360.0189,65.24294,-119.646194
-1762.1527,655.53033,-350.39655
-896.7823,-974.8789,-272.77493
-1042.9955,-762.36487,-459.55014
-760.331,-1916.9795,-324.4209
-2199.2002,-275.27243,166.17992
-2289.7827,-911.6396,-583.44183
-5139.8887,3781.751,250.2844
-3334.5642,5261.759,827.96924
-232.76581,2363.074,-216.19344
451.133,728.1879,-220.1165
704.66095,962.7667,-208.9472
1012.80334,353.4726,-141.31
1354.4058,700.1385,-455.12067
1478.1332,518.4759,6.096875
1008.2474,907.3192,-347.53778
936.015,969.0369,35.15355
-943.6921,5614.2637,204.61748
-4362.8916,6265.128,159.90462
-2641.7007,1074.2843,149.51701
-1933.7755,158.67227,-434.77478
-1317.1675,-542.8961,-375.64282
-879.3595,-773.9802,-474.97162
-767.0722,-1212.8221,-418.69815
-1435.9741,-987.2493,-85.95094
-1752.5884,-664.0647,134.14104
-2843.6829,-103.702736,-563.65015
-5810.0547,5049.3677,179.50598
-1731.7413,4875.1323,642.0267
267.40372,863.5867,-414.7529
912.2888,1092.7351,-36.376545
822.8648,365.72635,-132.45164
1463.1023,603.41974,-87.516884
1628.298,186.24782,-274.89438
1422.9031,834.4158,149.1327
843.29193,27.652197,-604.58185
1199.6033,2140.3577,555.25604
-6905.0654,9500.072,-975.1282
-4306.8384,1775.4391,-876.1456
-1272.6627,52.86377,-360.3772
-2118.6743,-389.35748,-321.6346
-419.6521,-2472.9133,-643.30725
-1125.6477,-2571.7646,-462.84012
-1567.3971,-913.8616,648.85254
-2020.7561,-256.53278,-276.75775
-2442.4114,123.48937,-617.17035
-6008.7197,2847.8765,-863.6495
-3380.665,4812.916,230.26143
-584.5087,1869.6201,63.74941
382.1275,1075.7749,-709.16705
777.4636,1024.6094,-633.71326
1084.7913,171.91962,-473.2054
1428.5482,421.38434,-635.5553
1706.045,219.51219,-487.0241
1001.00543,666.3019,-363.822
1103.7184,1591.5559,-302.65457
-1501.11,7499.4697,-750.09674
-1853.022,3743.5017,269.87225
-1136.0111,956.3226,394.55667
-1611.9159,676.17444,-278.83887
-1377.8212,-574.079,-701.6734
-2029.1923,-721.0136,-949.42816
-1822.0747,-539.0217,-473.6423
-1575.7057,-290.1649,103.362724
-1414.7466,-299.09363,-100.799866
-2843.8997,2118.8716,265.82242
-3462.2932,6337.3433,1149.0399
-216.42873,3239.3772,320.26074
729.0971,671.0531,-226.57773
718.76605,880.2307,-170.58885
804.3563,-16.475206,-56.274696
1687.8815,247.49594,-264.96545
1586.2001,114.87285,118.13302
906.2455,294.7909,-127.49116
1043.6552,946.89606,169.70015
-2055.9807,8319.165,236.01727
-3674.6594,4758.8374,-478.69592
-2035.4083,702.6163,-22.86309
-2219.701,415.4247,-276.04437
-1245.7086,-1264.3546,-379.40277
-1080.5936,-1486.0953,-727.6476
-1036.9232,-1960.1652,-141.92871
-2255.0735,-375.6407,8.8723755
-1569.73,-572.3495,-531.8316
-4340.2256,1417.462,-702.22644
-5688.5693,6081.172,492.0209
-1264.1052,2721.8647,353.76904
282.12228,1279.3899,-460.68817
984.37836,958.214,-85.743614
898.3752,410.42737,-163.45178
1356.7356,845.23663,-275.93787
1552.6016,451.28345,-138.29747
1351.9125,1002.70026,73.319885
1318.4136,61.339844,-278.45978
-331.12643,3970.3247,413.1536
-7173.054,8789.168,-752.1276
-3021.7332,699.74805,191.93996
-2360.1433,925.4964,-203.19576
-2066.6812,-1492.3145,-671.48267
-861.31573,-2050.9836,-746.014
-825.46405,-2355.257,-462.71567
-1896.4801,-1135.9343,-129.35295
-1841.164,-968.8666,-990.3752
-4348.6895,408.1591,-595.3544
-6498.1367,4531.4043,416.59854
-2272.9106,3504.7966,519.13574
-392.3953,1251.4365,110.07815
625.9829,1394.3251,145.24507
961.6414,761.4046,27.416952
1243.8558,1141.5255,203.04613
1355.5419,731.82306,75.13978
1166.6215,1276.3947,220.21272
472.93924,414.65186,-90.122955
108.44982,3223.131,459.10916
-5228.5835,7198.273,-3.1253338
-4395.052,2746.7712,-85.31771
-2447.174,513.36945,68.43013
-2247.071,166.78407,-358.91437
-1296.3524,-1710.9781,-816.5765
-905.8856,-2238.0867,-1025.252
-1354.1425,-1708.6525,0.45274714
-1803.3347,-525.9972,53.42845
-1973.9403,-307.43878,-584.7376
-4636.982,2431.4858,-463.1982
-5836.841,3778.132,714.64026
-1320.3108,3674.4636,-36.5603
484.38797,1079.8008,-279.44308
535.2265,1196.0985,-12.527644
913.1562,311.13852,-31.230228
1442.7247,965.25433,-233.49171
1718.1802,633.15924,38.81421
988.2692,1182.3055,78.29462
1043.1589,242.77742,-145.00177
-544.20593,4203.5093,536.86365
-5494.068,7122.794,-83.12458
-3004.393,1404.9265,372.05106
-1999.7662,924.0433,160.17545
-1845.3877,-57.717037,-388.38223
-1303.2224,-1274.8558,-767.9722
-1018.4815,-1743.5374,-918.0428
-1299.3983,-936.13934,-67.145996
-1808.1637,-509.8503,15.257097
-1459.98,-325.00626,-212.68002
-3131.7124,1471.0782,-514.9976
-4088.192,5089.0435,229.747
-1346.5054,3664.621,292.2809
261.9542,976.33746,3.4616404
464.13303,1254.274,-339.4195
796.9559,434.2396,-41.25203
1239.0714,674.02466,-96.01537
1765.6522,306.897,122.23938
990.5332,885.4137,-2.2281187
1159.462,-207.00665,36.070347
-363.91818,4937.4814,55.075916
-4307.491,8163.6323,-474.72723
-1986.3014,1044.2562,132.1073
-1954.2128,792.5742,-483.91324
-1657.4152,-894.5113,-403.54828
-1239.8092,-906.87177,-470.04047
-839.7889,-1272.5295,-412.65112
-1116.9661,-492.769,13.622369
-1688.1593,-531.67584,-16.051521
-1902.5068,-44.271713,-457.11963
-4036.5396,2608.2156,-618.6381
-4405.4517,6033.108,-322.797
-368.86032,3044.5227,307.95078
478.85654,785.3236,-184.54813
1009.1568,725.6971,-389.92053
722.3014,-92.779434,-51.027096
1240.5972,-40.69014,-57.322037
1624.7174,-103.16376,111.61806
1342.996,130.30222,177.1463
506.29102,-26.214888,128.58492
1717.635,1638.3989,-435.01508
-2762.0127,10770.475,-2630.3994
-2749.982,3593.785,-662.608
-1277.486,538.74805,-746.09045
-2785.5237,253.85414,-309.01566
-1049.3191,-1780.5936,-260.12524
-1345.4368,-1328.4946,-704.7871
-1205.4956,-1277.7068,-77.95312
-2550.6033,22.564232,-46.148716
-2498.8193,-287.7396,-789.39777
-5515.598,6269.881,78.69563
-2179.9407,6040.325,482.84
620.96204,1837.6412,-585.3975
1141.3278,511.59128,15.617959
699.1912,487.6896,-173.19048
1217.8157,-99.81685,67.01969
1336.7386,538.3484,-211.60149
1634.848,-311.4326,447.68893
557.38226,804.885,-376.1826
1654.328,-802.3036,510.23007
-1904.5466,6614.0244,-1566.3732
-5943.3926,8031.024,-1727.1232
-888.5169,239.46269,250.27875
-2267.1558,807.8625,-1067.3247
-1028.2528,-1917.1813,76.385315
-1222.0927,-1671.1979,-724.5971
-1060.7377,-2988.5276,-60.96394
-2037.203,-249.24857,58.1441
-1823.574,-615.29645,-228.10207
-5055.537,2305.504,-944.72046
-5533.5913,6323.506,807.20276
-414.83218,3334.7856,-40.169872
595.86505,950.28314,-240.86215
759.83813,531.2279,-151.3166
855.4118,61.480137,11.809267
1369.3906,180.28445,-283.43552
1336.151,-74.94315,-106.21507
1450.3522,176.6939,-264.57388
727.6628,10.625051,240.77914
1353.1117,2400.57,197.74055
-2913.3555,9316.246,-1171.7009
-2710.8115,3358.8022,604.2964
-1611.3489,1027.4292,-250.16412
-3001.9507,184.09108,-849.35846
-1876.6119,-1469.477,-844.18506
-1434.8955,-1244.993,-1023.95105
-1415.3684,-1547.0879,265.71243
-2366.5032,175.90437,400.03903
-2622.6265,-713.7498,-705.58887
-6051.74,5757.9526,-84.52867
-2465.6807,6400.1914,305.30655
668.86633,1418.8203,-638.3338
1253.6962,1022.0639,-290.97302
843.71136,229.66808,-52.51395
1642.4298,198.70172,-140.82913
1508.3276,357.4354,-247.96425
1426.8546,142.20264,100.01853
617.3348,328.88074,-296.95148
1636.3207,522.0304,173.1887
-2701.7957,9255.558,-1788.9043
-4348.4087,5240.5635,-585.21295
-790.50616,368.7128,8.259293
-2523.0027,969.9921,-582.77026
-1314.489,-1292.528,-298.7368
-1423.1705,-1053.825,-877.0344
-537.06964,-2732.0527,-1104.9956
-2101.923,-493.40765,37.756153
-2221.912,-555.7151,-348.3094
-5230.628,4672.054,-1079.6697
-3496.6855,7409.3906,1003.62573
630.6797,2507.3416,-548.3945
1447.3585,680.0034,-73.11257
1014.2163,622.31714,-109.75876
1313.282,-139.18178,307.10657
894.67426,369.46887,-54.96108
1289.2657,-403.72183,357.96912
824.665,444.41428,-118.87222
1403.9573,-299.4061,655.0593
-1231.3494,7620.2163,-1366.764
-4193.1216,6154.8857,-1217.5925
-143.47925,-360.1425,139.15123
-1785.1437,1079.6755,-419.5305
-992.78284,-1542.3191,-403.2599
-862.76196,-2115.6313,-1207.8779
-1363.7107,-1615.8389,-373.57352
-2241.058,-62.4406,87.60988
-2489.7883,610.8164,-961.41785
-4320.526,4916.473,79.941605
-1311.1658,4376.3066,221.10701
50.13831,1478.2196,57.925743
596.561,788.1931,82.221756
579.5647,390.634,14.989616
1052.892,336.36523,12.651577
1446.1378,154.61188,-24.618553
1565.902,538.7562,84.21521
994.15356,248.39264,-62.6122
320.2605,3115.7776,538.01746
-3296.9268,7393.7515,602.5755
-2699.361,2241.6375,400.58038
-1831.4532,871.3918,268.98773
-1732.2107,-145.28842,-214.46516
-1050.9462,-868.1997,-789.2145
-912.2651,-1505.9515,-814.74316
-1072.7123,-951.97516,-128.33524
-1801.9707,-400.33997,-108.09253
-1315.7512,-505.26462,-708.00824
-3627.0842,1540.4012,547.21246
-3639.3918,5093.308,1299.4191
-751.01843,2276.3882,661.8047
464.27258,997.408,455.47073
998.1422,940.7395,422.34174
1024.2448,534.95917,239.39948
1197.8136,411.1981,158.21788
1395.3845,368.86093,-31.015163
684.95404,1019.4294,25.615177
116.99012,1868.0825,49.135025
-1783.4442,5595.94,-189.5392
-3099.721,4707.0967,15.621437
-2297.6562,1805.8932,-59.052452
-2151.3772,837.6529,-196.68391
-1529.954,-516.59906,-381.903
-1472.9127,-1267.2112,-910.7874
-1043.6027,-2325.9524,-669.36017
-1748.4785,-798.6554,89.21172
-1448.488,-508.56726,-531.7413
-3463.234,2469.102,-95.23008
-3468.8662,5805.9,721.8283
-483.54233,3106.9026,310.61603
158.12564,1114.7894,219.78471
772.57336,712.6347,67.92726
885.6106,510.19614,213.56221
1190.4714,522.8894,59.97939
1496.1112,269.90326,199.41176
1137.4991,591.4197,174.63606
899.47266,64.10488,24.309696
332.26157,4244.521,-73.167854
-3060.1123,8248.958,-872.9061
-2012.7834,1719.164,-335.8501
-1495.2666,853.36487,-312.13272
-1529.439,-567.20166,-448.02603
-1446.8329,-1017.8372,-801.4643
-1153.1763,-2256.0933,-931.2494
-2090.3435,-1057.9131,-106.97081
-2063.9158,-580.0274,-612.30414
-3562.813,1054.787,-388.15976
-5415.7075,5890.928,372.68665
-1666.7798,3999.8926,-49.36727
4.8977733,1415.9054,328.26816
654.7369,1174.097,36.314945
863.21844,776.19977,91.106514
1382.7407,895.09973,59.938923
1708.3795,381.53625,76.84838
1371.9534,680.7737,59.02155
687.8463,-2.138719,-34.637154
675.058,3122.084,-164.82918
-3613.951,9898.396,-1436.5656
-3488.2373,3221.371,-894.57
-2345.8252,716.51294,-423.01932
-2685.3857,-636.4827,-428.13818
-1188.6176,-2544.7783,-762.42145
-1270.2726,-2115.1685,-471.14575
-1546.3414,-634.14417,157.94763
-1746.1901,-117.227776,-383.41046
-2709.7153,40.742702,-683.5744
-5841.1445,5278.1787,729.8317
-2043.9005,4316.5264,840.0548
-36.446594,1611.8872,304.02734
559.3056,896.6659,500.82236
789.2478,561.2494,163.40991
1001.0433,442.68848,268.11307
1343.2852,483.94733,-77.39534
1517.1298,201.83,89.83397
688.90247,676.13196,-259.42035
1202.1636,15.126421,143.53583
-868.29663,6792.7974,-378.32217
-3653.649,6585.7227,-719.97046
-773.5352,309.6749,161.87723
-1631.1195,1084.011,-283.1859
-1324.1284,-704.97687,-292.54776
-1473.0918,-357.34872,-687.783
-1664.771,-1065.0696,-824.2261
-1651.0886,-575.6721,-487.70602
-1423.1964,-400.1928,-34.231087
-2410.8384,1085.237,-91.410736
-3941.9866,5732.0093,921.4216
-1210.5337,5152.526,769.36615
561.62836,1071.4299,73.791084
538.9931,1057.5679,0.6603743
770.60815,248.43613,54.251648
990.49115,552.75134,-9.427916
1590.0211,201.01114,-119.44916
1108.6863,638.95404,76.14934
831.5393,266.99347,-128.60214
1023.54913,2218.9783,3.4749706
-929.50366,6712.8257,-263.99518
-1932.3494,4216.3335,-96.42695
-1149.6681,932.8597,-29.484074
-1494.2963,591.8162,-241.14822
-1098.866,-439.34592,-409.27795
-1438.054,-610.45886,-748.26013
-1137.8094,-1015.9612,-661.558
-1225.6641,-38.7339,-270.73755
-1101.2263,-171.05779,-106.90925
-2127.409,1763.9572,183.21112
-3120.6663,4345.658,416.58124
-1066.6802,4505.99,222.34407
399.98532,1271.3759,165.47261
442.03058,1341.9624,-114.661766
1049.1062,167.84332,188.32578
1429.2474,810.88495,323.95502
1559.824,39.138676,276.97778
993.0173,847.6342,84.261475
888.5992,-64.27672,33.43415
296.13483,3480.5242,-756.8649
-3849.7012,7693.177,-2111.523
-1902.8177,1893.6221,-622.0396
-1042.09,865.3597,-512.04626
-1387.8167,266.46686,-181.55112
-1084.4126,-475.19394,-318.00806
-1779.9841,-946.4411,-747.0418
-1257.8818,-1966.3877,-717.46313
-1876.0354,-684.62256,133.3864
-1635.5645,-251.69714,-372.13855
-4367.19,5254.422,23.021507
-2308.6958,5816.1943,847.1537
440.27814,1506.4736,20.87977
604.4931,808.31104,27.185066
1009.60925,230.18214,93.56467
1067.6248,454.32385,337.04892
1460.7911,245.60692,265.58188
1328.1759,125.39411,360.43103
896.0692,327.65842,-13.26154
1141.2206,818.72174,26.78633
-1741.543,8294.473,-1369.9929
-3227.4106,5155.9097,-901.3687
-1079.7385,650.13043,-230.79495
-1843.251,957.161,-490.15775
-1369.7758,-784.7694,-306.68765
-1598.3871,-664.0908,-826.5041
-1043.6714,-2026.5349,-898.6507
-1973.7302,-480.3674,-31.044971
-1624.0339,-680.98145,-204.94516
-3423.3745,3386.9688,-73.61265
-2827.4746,6027.627,873.8071
22.719667,2947.4685,204.41304
525.7941,1031.9525,265.2346
984.1233,1019.8151,-20.035625
850.00684,315.63577,237.10033
1021.9609,624.2959,-35.202118
1148.7235,-142.88474,127.07651
898.71814,524.92725,-131.42642
875.2271,-396.95435,240.13367
623.3961,4097.064,-661.7388
-3128.922,9208.221,-1794.1676
-1603.2448,1750.4028,-249.06892
-1402.4957,862.6144,-640.23584
-1991.2324,-579.0288,-561.5764
-1256.6234,-1181.3615,-674.0245
-1533.856,-1319.3206,-521.19244
-1427.9381,-712.8672,39.66708
-1806.6202,-111.733894,-221.62863
-1935.2517,243.29492,-321.70044
-4371.569,4833.5996,-348.57718
-2429.7026,5510.54,235.75636
211.24754,1774.7128,80.78298
369.37534,1044.3806,38.036453
692.23584,634.0904,63.18219
914.6384,505.46713,280.19244
1344.6998,618.12585,143.45506
1506.184,72.03622,378.0584
866.8365,578.8565,-31.21697
1036.0638,-72.68919,242.18097
-387.97696,5507.556,-1491.8313
-3941.9304,7504.7075,-1978.0154
-1334.501,727.9919,-437.5535
-1589.3011,981.9338,-943.02014
-1277.5248,-1047.1267,-233.97003
-970.511,-254.31651,-457.29166
-1248.9364,-1454.5305,-616.2141
-1329.3845,-720.7213,-551.3858
-1904.9751,-375.14658,-41.322136
-2043.3163,977.47437,-272.48618
-3853.4788,4350.837,-117.205
-2188.3003,5628.747,329.2902
608.9721,1781.3654,-104.42462
387.9973,924.69415,-166.1053
691.24493,490.18658,-217.68924
957.0537,-36.659992,8.126093
1269.7479,61.2704,-367.96527
1624.8451,-255.04921,-36.502583
842.848,339.05176,-182.69534
1238.4719,394.01254,647.89484
-1136.3578,7373.1846,-2248.6052
-3632.4492,6234.68,-1574.1714
-498.82428,-30.780409,73.49858
-1841.3987,1352.6351,-710.0151
-1051.9896,-1064.5396,-130.28642
-1645.5985,-400.21292,-814.8921
-1008.42426,-1804.0326,-583.11285
-1650.4058,-280.20532,-178.71814
-1263.3024,-504.74982,31.656216
-2692.3252,2907.5862,-473.4142
-2776.686,7062.668,72.751274
718.66907,2786.821,232.5729
778.0181,582.6835,-4.0297375
957.5725,596.21155,-182.10625
818.5443,-730.37646,94.34131
752.27576,562.60297,216.58008
1403.5509,-365.51038,811.43866
1326.0464,590.11505,646.73737
1561.883,10.689313,236.26764
1241.8059,4679.9277,-131.38602
-1311.232,7046.3745,-669.42456
-510.8981,2201.3108,-511.42117
-620.4433,866.2851,-465.54276
-997.40155,669.7172,-814.8709
-1216.4882,-354.11475,-793.4842
-2085.6382,-283.88916,-892.94635
-2127.5176,-620.41895,-650.39417
-2144.0317,278.88882,-238.8008
-2137.6553,-147.0031,124.51107
-4339.972,4871.589,802.95636
-2352.1096,6196.662,1323.1923
-61.41266,1671.2014,485.1523
664.76184,935.09344,244.45392
855.18964,825.24695,104.45309
1258.4216,362.1812,3.251138
1822.4222,296.07416,-433.83197
1602.1654,12.173183,-39.54043
719.1642,523.86725,-451.41782
1501.7979,253.17632,333.8378
-2807.118,8444.599,-1326.764
-3894.2568,5695.706,-1252.0459
-615.29285,304.62656,-266.25378
-2091.6687,962.9026,-439.60678
-896.6484,-675.557,-352.0252
-1580.8066,-502.37384,-838.28534
-1100.7499,-1336.4244,-640.5774
-1484.8624,-598.2536,-257.41785
-1225.0754,-639.92896,-59.094387
-2117.3818,403.1425,-246.04308
-4193.6206,5487.9526,-54.515537
-1695.9178,5687.0913,226.15283
824.9183,649.64484,229.17465
649.44525,1121.7919,-23.078
1545.5419,32.874676,464.72787
1489.6719,1037.8336,432.65015
1598.9208,-212.18915,455.61713
562.9343,725.42126,-16.758066
798.7658,121.31847,65.55423
-704.2997,5643.5405,-875.41833
-2210.9316,5893.905,-1121.6218
-1517.4875,1730.675,-510.4356
-675.7363,720.3811,-432.86606
-1086.1534,413.1455,-266.01324
-1472.0745,-271.67075,-251.31325
-1588.8545,-914.4358,-645.88043
-1615.2537,-1082.5747,-580.2085
-1885.2083,-82.01718,-64.249504
-1944.0175,396.03104,-238.88779
-3844.1719,5704.968,-176.33226
-1286.9678,5295.657,318.88034
425.21152,1323.2085,65.32729
899.3907,1030.2203,-62.577614
886.4668,497.84964,122.79981
1174.9316,573.93024,305.85565
1185.4508,54.074112,166.45482
1561.604,31.545404,312.0351
712.96875,247.2404,33.07528
1414.3723,944.1284,83.80422
-3703.6409,9463.393,-1963.6317
-4126.117,5025.3955,-838.6152
-1436.1566,120.61813,-68.902145
-2488.8057,644.7952,-822.68506
-924.4649,-1997.5405,-570.7998
-861.80133,-1447.5499,-1122.872
-609.51013,-2558.2341,-740.75934
-1224.4061,-342.0453,-499.08258
-3020.5176,-897.75885,-522.9353
-6328.0083,4098.9795,-1474.5898
-3997.628,7005.224,489.0424
-260.5215,2473.4924,260.98474
468.75555,1420.841,-300.1318
745.4798,719.87897,-197.96278
1068.4633,464.87595,-49.959454
2076.148,408.8135,-261.30942
1777.9257,75.582,185.0559
1179.8239,571.77167,-16.165464
753.33496,-60.81797,209.06299
850.5143,4533.71,-1652.5663
-3388.9612,7245.3467,-2695.8572
-2350.6858,1765.5404,-807.3219
-1951.3541,1116.2838,-916.8916
-2318.441,-763.0136,-365.285
-1235.2788,-968.8941,-523.70245
-1335.1373,-2083.4282,-825.7929
-1292.6088,-1503.2917,-329.80075
-2300.5593,-436.09036,-88.799034
-3151.53,1288.2067,-811.557
-4877.3984,7086.744,-426.06094
-1086.5514,4426.8013,188.51074
631.22833,1548.4415,-411.41464
865.88153,441.0056,65.78356
805.4109,328.3414,61.84268
1201.0863,-109.63367,200.97404
1313.6011,132.4993,-32.073883
1597.8679,-302.64377,331.50983
545.66724,691.14374,-168.93204
1745.7808,-291.28705,372.6986
-1710.7285,8010.665,-1872.2205
-4217.224,6662.8975,-1420.2734
-210.60948,-16.118685,-72.023575
-2357.8804,1008.0004,-848.11096
-1327.3827,-1391.3011,56.994274
-1400.9069,-1000.0459,-802.8523
-1033.0315,-2279.8718,-399.383
-1958.1438,-449.27832,-222.16429
-2105.253,-671.1074,-141.39867
-4189.609,3444.723,-1049.0325
-4242.2046,6377.7144,-339.85034
-476.0186,3355.6013,280.17343
463.02737,630.80634,-316.77826
970.9922,1061.0125,-692.8039
1054.2675,142.86891,-321.8607
1287.2341,412.8889,-182.89809
1475.6229,-173.20067,87.57783
1351.4113,764.22974,50.00222
850.5177,-367.91934,135.19003
1201.7506,3196.7227,-870.476
-3797.3074,9709.786,-1808.6667
-1959.3754,2393.8584,-199.58923
-1145.5535,845.80975,-605.01086
-2103.839,-372.92432,-804.47986
-1556.6785,-869.5769,-779.111
-1618.198,-1434.0754,-813.1247
-1133.2225,-1285.0269,-354.0443
-1896.4773,-9.428921,-19.080227
-2214.5996,271.86703,-578.87885
-4977.2197,6481.2,-168.46852
-1489.1677,5415.882,525.75397
320.96988,1057.6464,54.43193
876.1702,952.8809,-95.86002
959.2041,178.99602,109.91192
1444.8049,408.50534,233.56285
1416.1216,111.921295,33.82283
1408.8738,120.27701,295.31888
464.26584,375.06186,-48.78211
1546.5386,946.1197,163.81372
-2780.6755,9885.213,-1484.8103
-2996.5564,4426.547,-528.1485
-1201.9918,481.85602,-85.769554
-2036.3823,205.38536,-545.73126
-1140.5835,-1027.6405,-489.11127
-1255.6979,-1157.7458,-742.70734
-818.3685,-1373.746,-511.41873
-1750.5576,-152.54034,-91.76242
-1892.5834,106.35892,186.89914
-3484.6477,3607.3691,18.521149
-2749.8657,5774.3906,1235.9312
202.39944,2887.701,322.90463
441.03552,1279.0264,171.99327
898.2906,933.8128,-374.62173
1117.7286,405.8517,-269.9842
1233.4508,137.05437,-384.50537
1629.6147,-297.55188,-267.07562
1340.5001,92.50768,-50.130787
697.33777,24.28807,246.3146
1828.5424,1855.8339,-559.56323
-2104.3833,9180.754,-2772.3308
-2075.158,3458.0886,-383.7944
-535.31665,576.447,-493.83228
-1987.5958,278.3934,-498.6063
-778.6841,-1119.9723,-428.57428
-2013.3188,-653.9645,-902.9791
-1561.3396,-1216.108,-536.20404
-1780.6398,119.7467,-125.62153
-1945.1757,485.05273,-501.0895
-3680.383,5889.096,-216.5134
-942.35895,5804.6685,262.93698
592.8233,1340.843,71.67034
936.81067,743.4298,2.0909255
962.6933,121.02174,67.07912
1115.0,264.58334,226.28851
1251.4993,91.37385,364.69623
1323.8868,-76.03982,536.00134
725.0718,17.178362,159.83781
1319.5966,1270.8564,125.61882
-2763.4338,8737.572,-2156.5466
-2162.8086,3289.643,-536.9771
-185.4312,519.3599,-184.96864
-1402.2025,742.9565,-262.07745
-781.3847,-717.8767,-198.29321
-1360.0846,-610.8053,-625.6922
-1011.0203,-1442.3136,-473.68695
-1831.6176,-136.04166,-64.25468
-1593.9719,-489.3754,-332.17816
-3299.9597,3202.7307,-374.14584
-2669.25,6094.4854,124.69305
1.949767,2981.6323,131.2345
568.8008,925.56665,32.808163
896.0834,880.73315,-37.945778
1174.3339,252.18106,256.49734
1522.9448,678.82336,225.2023
1732.6199,-152.48773,478.045
683.08545,776.5558,171.57677
944.5229,-573.68744,183.06503
-83.974495,5631.033,-1359.5204
-4043.104,7794.6343,-1943.4823
-1108.2982,748.58344,-412.05936
-1289.309,784.3522,-612.8935
-1109.5482,-632.8719,-166.26329
-1058.2723,-593.3021,-493.14822
-1124.4087,-1597.0663,-624.36816
-1465.1318,-905.3669,-416.08853
-1800.6439,-335.45236,-186.6502
-2473.7544,364.26514,-545.1339
-4563.445,6227.447,-483.25134
-1430.5831,5282.285,235.31488
452.07123,969.12714,165.74284
837.4366,914.60114,-43.26659
1104.1293,-18.40006,260.96637
1331.7722,620.5286,291.79773
1303.3916,-36.71404,406.84064
1227.5724,283.1838,336.4065
431.46698,82.562256,361.69116
1128.7455,1435.7562,-791.9945
-2544.1414,9348.116,-3367.855
-2601.9639,4368.6494,-2150.585
-1014.31995,31.619879,-1136.9003
-2340.812,367.58624,-606.0678
-1163.1003,-1277.5193,41.289684
-1408.4551,-693.20593,-478.65002
-751.03894,-1893.547,-236.30118
-1868.982,9.967312,-164.56792
-1743.3102,-1211.2379,-321.04868
-4366.418,3774.0603,-1646.1433
-3507.967,7486.739,-630.3746
217.31465,3185.5476,-182.18872
1062.945,639.39417,-390.1551
1371.3296,386.36316,56.063805
1231.2919,-85.19565,163.1125
1173.1775,652.4567,104.1435
1214.2906,-362.26016,211.45776
739.18805,690.2425,83.63758
941.8681,-803.6583,169.20331
485.462,6028.467,-1122.3037
-3369.5596,8003.5996,-1988.7122
-961.19006,482.38568,-570.22156
-1121.2717,634.88025,-906.2358
-1054.4105,-717.2114,-205.0663
-1144.9546,-215.03523,-577.62976
-1427.6821,-1393.2384,-905.9833
-1744.9581,-662.86145,-657.1356
-2129.4124,-283.68674,-127.59466
-2160.8455,1846.8829,-629.5357
-3245.5955,6760.15,197.50743
-158.00337,4491.2534,79.454124
711.72797,744.6443,136.2999
564.27277,557.23157,78.27152
650.51294,-306.76544,174.4389
802.9651,-8.084828,95.630745
1041.8867,-270.65103,136.12625
1254.5192,-209.79587,167.14871
695.3503,-120.74184,177.82999
1610.8368,1239.09,-291.72638
-1478.6364,8780.338,-2077.1013
-1733.2578,3980.439,-1031.8018
-388.03482,477.1082,-222.87715
-2012.8445,717.7583,-286.82336
-1268.7313,-690.45966,-254.11989
-1792.8344,-674.5589,-787.5223
-1165.7043,-1513.2373,-381.00476
-1770.3752,-82.0563,46.342155
-1661.6245,517.01605,-330.9948
-3051.0535,4991.7754,-559.32263
-1216.3071,5706.2495,101.68605
413.8491,1825.9023,-68.54285
922.3684,907.379,-293.96335
839.73157,478.9888,-133.28957
965.5947,99.271904,148.49036
1254.762,153.06702,-17.435658
1543.456,-371.5477,296.4144
683.69794,322.2498,19.52246
1633.694,351.24252,193.46997
-380.80478,7238.4766,-1853.9438
-2139.0034,5596.403,-1225.4727
-598.5183,710.0842,-442.71548
-1857.9735,497.92053,-896.2963
-1582.4886,-1099.2751,-397.71698
-1336.931,-748.79034,-771.8968
-979.6294,-1195.2577,-288.36673
-1663.0808,-267.81818,-52.080013
-2081.7466,-171.43231,-315.7217
-3675.4927,5067.0317,-543.97327
-2432.2852,5833.174,636.3577
384.75616,1781.8387,-108.86574
533.32733,951.2482,94.03602
771.6242,419.75995,39.00554
769.0104,458.6959,199.79388
1112.1885,163.10797,4.561058
1347.4042,41.27008,280.1343
936.0253,197.28374,-69.14802
1101.1572,17.953367,350.59616
70.065125,5025.493,-992.9009
-2819.9202,7505.9116,-1370.2037
-962.3335,1002.9379,173.56165
-1756.0,1062.7787,-470.5256
-1460.7856,-926.1056,-164.85205
-1581.4393,-620.2626,-590.73236
-1079.6047,-1531.6962,-229.0658
-1357.8474,-271.00168,-49.311665
-1330.7606,-724.91235,-237.44489
-3111.0857,3755.405,-597.39514
-2336.3757,6782.1797,279.86203
267.97943,2499.8625,-6.548297
903.63324,627.8269,-231.8916
1077.4761,357.78235,-226.5589
983.97205,-264.4,122.5267
1042.0393,184.82446,9.607687
1446.9832,-405.643,371.7064
773.1131,466.77032,16.637383
1232.6635,-307.92,489.63132
-786.29376,6594.953,-1693.2646
-3431.479,6810.2915,-1601.4974
-567.44684,348.30908,-293.0908
-1226.4973,880.26996,-664.895
-984.3756,-669.80096,-164.83043
-1094.6029,-318.14548,-367.88733
-1259.9763,-1033.5507,-642.04504
-1383.773,-549.2923,-297.34082
-1839.2831,-219.23021,-117.68208
-1967.474,706.826,-92.1954
-3513.9219,5214.9927,-460.76016
-713.2578,5934.548,-450.35962
701.8994,935.4384,8.851823
792.5592,593.8213,-410.14645
911.1136,-429.85812,-226.56897
1077.5826,-52.663834,-188.86105
1176.4548,286.98636,32.00068
1484.162,-501.11288,196.61937
823.927,408.3591,-86.7148
1960.5122,-337.7576,213.67209
-2534.3594,7879.86,-2937.195
-3466.1685,6207.2583,-1734.8861
528.06335,-527.2446,-502.38358
-2303.6987,518.1296,-719.9265
-434.69992,-1422.4462,-215.70113
-1685.6846,-409.37534,-602.1913
-1037.4485,-2031.66,-78.59069
-2279.3345,-253.99516,-378.18854
-1486.6184,-456.4863,-228.3252
-4035.5374,5133.2036,-930.21564
-1697.5538,6021.6606,-49.649147
382.60876,1705.1069,-215.43047
793.8343,501.9259,-110.86139
753.36084,249.0542,-69.98416
1543.2972,128.14226,110.103065
1120.9083,170.06767,-10.517348
1702.7306,-276.47543,121.84214
568.223,333.8183,-23.106028
1811.0525,351.95523,-270.58557
-2559.6057,8080.402,-4050.4126
-3542.3596,4674.849,-2131.0808
-38.55398,222.28566,-692.6702
-2256.8801,409.23166,-657.5368
-998.89044,-805.2589,-205.39874
-1870.2286,-722.7119,-549.84906
-1310.9718,-1523.9271,-351.21692
-2026.3281,-524.717,-132.16364
-1362.6581,-288.12585,-198.67526
-3235.52,3254.0415,-596.55786
-2806.7935,6891.005,-185.56851
32.265667,2891.8687,-35.590065
645.137,741.7003,-329.51236
841.21606,479.71274,-176.77155
1085.8673,-1.3199823,-96.36529
1320.6532,401.09644,-194.36116
1904.6224,-287.26874,46.724014
831.03735,545.36163,185.75441
1304.3243,-46.19252,284.3429
-49.10529,5768.1577,-2062.7344
-3154.0706,7281.876,-2218.5278
-1196.9939,1446.3811,-716.924
-2071.542,731.1371,-1098.8088
-1349.3442,-1096.135,-270.44498
-1653.0369,-713.58185,-352.62485
-1264.0701,-1370.0687,1.9799057
-1492.1777,-496.94992,-126.60539
-1536.3993,-691.4685,-75.22361
-2524.6592,1772.8022,-341.3643
-3852.5635,6877.341,-247.72736
-162.54277,4663.714,-21.811989
358.52246,795.67346,124.86121
652.4823,790.37683,-219.18462
1123.4364,-592.5758,-159.01302
1052.1158,193.59421,-348.03537
1033.2876,-461.93332,-112.575165
947.777,265.2751,-297.87924
909.7807,-447.72556,107.12581
1137.1841,3457.8245,-472.84677
-1604.3014,9001.028,-1300.2971
-830.942,2141.2808,-114.98447
-1442.0167,983.0857,-282.15555
-1666.1202,-893.9565,-519.8923
-1677.9928,-1011.7568,-640.49713
-1511.3625,-1108.3716,-358.704
-1716.7314,-351.31406,276.9704
-1784.3816,-313.97076,-431.5281
-3532.5674,2096.152,-254.5396
-3721.7727,7969.5747,29.192461
243.60263,2882.2764,126.87663
456.55847,701.12933,-106.600075
1019.8626,246.46991,-79.381744
845.61084,91.013336,14.308057
1170.9658,319.71567,-171.06181
1231.729,-96.8405,40.838905
1090.1385,318.97827,260.5488
947.4485,79.06361,405.19168
1115.2787,4493.795,-718.7618
-1202.5468,7382.0786,-1219.4569
-1092.2217,1453.1243,-490.1245
-1154.3365,1175.6729,-729.7081
-1355.4337,-368.1314,-286.1059
-1483.5497,-250.07394,-336.97214
-1741.7866,-663.2555,-283.79242
-1547.6797,-92.020325,-250.28098
-1690.2188,-299.185,-76.607086
-2006.3373,1852.277,-3.413607
-2841.0388,5659.0356,880.8456
252.0011,4540.472,2.3592863
1202.048,1109.0588,65.7957
731.11444,722.864,-127.124435
785.2301,-180.27518,274.88416
713.727,358.31076,215.80167
1158.9908,-441.91602,551.0019
1216.4587,293.91693,289.43762
875.10767,-551.4363,526.3298
967.6381,3318.3354,-456.47116
-2482.4949,9002.777,-2346.266
-1275.792,1873.0208,-1122.1951
-650.2008,467.05777,-757.58795
-1511.2123,-19.358683,-577.95154
-1049.4545,-828.7934,-310.9743
-1101.216,-916.8082,-508.16745
-988.8705,-1540.1436,-243.96042
-1934.2572,-177.2833,-313.30856
-1587.9482,-526.1792,-372.15198
-3895.964,3969.0095,-1070.7577
-3311.631,7496.1865,-262.55496
73.83961,2111.5198,-77.770386
995.38983,799.86945,-553.39355
1016.10254,297.29303,-50.5127
839.58563,381.3898,196.13849
1338.291,291.97726,156.78113
1235.1066,-146.82936,291.16547
1213.8562,105.367905,-167.72632
937.8117,-339.59366,197.09268
1293.1382,3472.013,-1298.4075
-3159.9473,9439.522,-3133.8557
-1410.7622,2183.1667,-969.81287
-1590.59,883.2776,-1002.394
-2726.8982,-598.19604,-531.08417
-1847.061,-858.1513,-843.1923
-1763.3326,-1899.8887,-565.5203
-1525.384,-981.0044,66.523186
-1900.9572,-266.45032,-218.96661
-3192.5903,1507.7275,-675.84155
-4737.407,8179.3037,-606.9982
191.5194,4073.965,-529.0602
529.25366,534.32446,-208.3969
1040.096,477.897,-144.61658
737.89545,324.6554,-12.571559
1241.9961,220.64502,-238.9925
1218.2859,-107.671394,-79.41871
1326.5623,191.23817,-121.29774
729.90173,-273.32288,29.639933
1492.2687,2037.7919,-736.33276
-1895.1713,9253.964,-2485.2097
-1934.3531,3123.31,-998.61316
-908.0477,258.09824,-457.73108
-1757.1155,130.39484,-429.24213
-1369.061,-965.83484,-422.87042
-1725.3899,-665.0417,-382.5863
-1294.8817,-1505.081,-30.831875
-1938.993,-37.341396,52.319073
-2114.9946,-489.72415,-684.54114
-4988.3086,6756.9575,-577.0278
-1980.229,6152.606,-79.26376
721.82666,1190.6355,-347.3738
513.23157,325.07703,-22.49574
1152.2605,239.84409,-200.21857
1149.2256,28.89343,-128.0425
1660.3893,276.37033,-177.48787
1480.7485,-245.77327,185.40015
925.9593,577.7775,-151.35876
1309.6895,-796.91986,-139.6936
64.09065,7083.095,-1957.7731
-3232.8867,8189.7114,-1713.1241
-1007.47534,345.64264,-365.1586
-2199.8643,1030.1606,-343.41672
-1210.3611,-1091.824,-275.8649
-1522.8702,-298.16064,-549.9758
-1097.2664,-1602.5472,-283.31982
-1315.2935,-483.69144,-152.20073
-1198.4043,-512.8373,-26.789
-2368.9639,1049.2135,-450.72916
-4298.6255,6392.46,-381.62976
-1432.8813,5276.379,313.15536
492.11688,548.4148,-246.36649
1226.5131,920.797,-284.65488
1417.817,-573.78925,98.35157
920.6175,768.09656,111.468575
1136.8036,-603.1811,189.82516
