# PAMAP2 dataset (wrist-mounted sensor)

acc_x[mg],acc_y[mg],acc_z[mg]
-467.30606,970.94415,159.62785
-256.3599,1318.9846,-20.87523
-176.72249,962.8799,63.175026
-61.759556,890.0326,43.46033
-45.20845,1062.7852,-8.109477
81.03748,1290.801,-49.018173
95.11768,1228.0917,-44.288193
55.363712,1211.6909,-93.32725
45.946728,1071.4315,-15.534556
47.81929,937.2657,49.851303
-47.133278,786.3785,64.7471
-206.9167,743.62415,143.47884
-359.56628,569.20044,240.36932
-474.8205,401.50723,182.99626
-713.6442,497.22333,285.2739
-975.74133,534.89545,324.62085
-1205.8339,433.75244,378.23685
-1487.4531,464.51758,397.45145
-1502.9935,564.4193,372.1945
-1185.6964,695.0114,334.89288
-838.92566,746.3991,338.16714
-671.2935,638.35565,294.9618
-628.1598,658.3876,277.34494
-673.7322,810.2381,267.7745
-678.5365,841.53265,235.08357
-680.223,879.1007,193.50235
-694.66833,947.03613,153.91243
-786.1557,1095.5667,87.14146
-928.7493,1400.4214,16.057266
-1188.854,1653.6185,3.5333345
-1494.0225,1948.5176,-118.89587
-1852.1318,2139.4836,-201.04222
-1676.8716,1743.8604,-201.35461
-1435.2992,1498.3317,-176.30365
-1189.4396,970.6861,-212.63191
-696.0963,142.8715,-170.57301
-601.77405,-44.137913,-103.29776
-575.522,-211.974,119.03989
-542.01245,-443.977,86.989204
-706.2317,-240.5003,52.290974
-853.4868,-211.42955,244.00241
-1062.4191,-10.67247,59.110085
-2057.0115,612.2545,-26.860867
-3669.1577,3014.3018,730.59094
-2419.8499,3569.2163,473.34973
-599.65533,1809.5586,160.51402
199.44794,1408.5525,139.06876
757.38153,665.9255,-50.447758
967.11255,582.2907,-149.78937
802.87006,675.4758,-171.06311
497.5147,1157.8325,-129.48798
177.2998,1498.2568,-242.37567
-675.61163,2837.336,-354.5468
-1207.3451,3365.2883,-299.3178
-1470.4325,3015.6453,-19.8008
-1679.1942,1981.1072,-54.62017
-1263.4358,598.8125,-185.7456
-1010.7159,-114.52339,-212.04141
-888.15814,-379.82275,-152.54875
-863.27527,-558.33636,-83.82947
-974.3675,-474.27167,-121.93039
-1237.4528,-270.82727,-97.22836
-1336.6144,79.864525,-6.9668117
-2589.791,1240.1661,238.13199
-3083.8772,3734.7412,515.82086
-1320.5109,2857.0212,374.07214
-343.07385,1638.104,307.66357
503.56595,1267.8868,221.89735
949.21704,691.1701,97.832146
977.2256,648.54846,5.8919563
704.12604,908.98236,12.175385
400.96426,982.09814,-38.892937
42.195305,1443.4344,-104.085526
-484.7709,3055.7825,-203.81882
-1099.9781,3992.2563,-213.12274
-1356.3596,3322.7197,-184.87683
-1288.9862,1483.8442,-170.50212
-937.6935,354.1178,-170.97643
-964.00745,-122.26026,-217.5683
-778.8918,-674.65607,-253.631
-943.35236,-485.4439,-208.06094
-1019.30664,-345.60138,-117.69296
-1272.1268,30.355026,23.603416
-1577.848,-31.895702,-20.110703
-3573.7812,3205.8127,456.32608
-2587.9688,5251.0,406.36496
-286.15335,1880.5848,54.348286
607.1033,1378.268,98.59224
1249.2032,478.64093,13.167355
995.08856,552.34406,-46.662655
826.61646,560.40936,-20.458523
598.2481,671.37695,40.280838
447.16907,782.21796,-76.8162
205.77728,1786.0731,-145.12598
-195.52792,3888.538,-320.1837
-1075.9939,4382.6064,-237.26212
-1167.614,2464.5771,-24.144394
-1074.5939,995.21545,63.095806
-818.5862,-11.269994,-0.014047462
-785.1274,-207.43802,-112.83577
-800.751,-521.7112,-164.17148
-1002.15106,-407.8421,-199.54607
-1132.6322,-367.9871,-151.43602
-1285.8525,185.97449,90.61149
-1898.7483,474.89398,-27.4862
-3579.3643,4572.4985,664.8705
-1640.9587,4391.4556,394.6934
-68.85166,1792.8525,59.47625
767.56415,1264.0908,44.07813
1000.77747,366.70712,-62.614338
977.10754,514.1569,-77.608574
821.26215,441.82007,-81.69427
695.6394,741.5991,6.558006
426.32806,924.6326,-78.36673
208.93568,2786.0857,-207.57492
-611.8476,4391.289,-382.23944
-998.52673,3563.014,-219.94563
-1182.7872,1748.1628,-77.42807
-974.0459,468.23306,-147.23529
-952.1706,-110.597946,-141.68817
-751.1109,-377.8672,-162.10236
-929.0142,-321.75778,-131.35681
-850.7813,-450.63177,-106.33098
-1148.166,-188.99937,17.418406
-1008.19495,-55.213737,16.95137
-2779.8167,1514.0106,153.03687
-3437.13,6015.043,481.19733
-711.9938,3170.9932,79.461494
232.98529,1386.8687,54.468704
1001.59625,649.0302,-27.421831
911.82465,133.06117,-36.425632
789.8199,406.85013,-45.093994
600.8257,322.02783,55.790924
590.5535,513.61993,-25.278786
358.89728,942.1144,29.917942
321.19702,2592.0305,-153.9746
-609.29114,4473.525,-313.49994
-1043.0358,3692.4773,-117.41869
-1082.0195,1889.5195,-5.6045556
-935.42566,454.8043,-13.214161
-962.1848,-35.526527,-40.6764
-788.7698,-474.80008,-167.2254
-877.8404,-516.18536,-120.74443
-871.74506,-403.58643,-82.51959
-1123.03,-109.933136,122.13894
-1263.832,-226.14494,-151.72484
-2855.7085,1739.3613,-13.33176
-3381.536,5330.5586,440.85126
-917.0354,3206.1172,27.561964
178.57634,1658.3986,39.01984
971.2546,798.3217,-39.962883
1066.6715,195.28262,-68.64776
882.1817,481.5941,-70.335655
681.9827,575.20526,28.72311
577.92413,665.6024,-62.838444
321.54343,1052.927,-103.59957
60.31678,2740.53,-233.01978
-712.1384,4136.304,-356.02426
-1090.8394,3734.8691,-140.18945
-1296.7782,1998.8364,-1.6011147
-948.0067,376.37314,-5.889946
-954.6152,-90.528725,-14.762617
-853.5015,-391.43643,-40.079582
-913.2239,-442.6019,-81.92449
-834.0077,-332.30652,-115.01433
-991.90875,-147.23723,69.566185
-930.91406,-23.932571,-38.552296
-2020.9438,989.6017,39.099888
-3356.8518,4866.891,375.16776
-1276.4546,3996.6672,106.73839
15.327643,1509.4087,67.25251
651.8833,981.52496,28.413452
940.8457,117.38988,-57.54435
827.27924,578.21454,-48.460617
737.0515,386.587,12.196349
634.7558,717.1378,60.892082
507.2803,819.773,-128.37776
220.32854,2480.5776,-163.40758
-385.5326,4177.218,-310.2257
-1098.5177,3984.042,-233.6323
-1409.3741,2382.5369,-86.91651
-1128.6952,776.99713,-123.30116
-898.5953,-108.40067,-141.6905
-742.6147,-296.44772,-116.14339
-752.6224,-542.99585,-227.39467
-743.97266,-344.9165,-242.28549
-961.8742,-285.72775,30.565582
-1067.8502,128.06418,76.01113
-1731.3683,58.1189,-60.324226
-3929.3513,4127.0107,460.79172
-2090.1562,4984.705,235.7599
-355.78848,1574.2938,10.03321
503.5724,1416.5896,-91.01
950.75726,188.65845,-343.17953
965.99915,553.53723,-287.411
977.4731,495.50146,-221.70786
847.4616,580.4956,-172.3868
575.2896,692.25146,-231.76352
425.18982,1739.0393,-262.3414
-389.3991,4092.575,-483.20734
-1365.5563,4320.2197,-325.809
-1251.2733,2467.5256,-62.70351
-1242.4172,1319.6448,-51.639603
-978.98834,100.80701,-103.31985
-983.1781,-156.77946,-187.37123
-749.708,-569.28284,-119.33442
-833.57056,-291.50165,-124.29943
-730.87177,-467.3028,-73.674515
-1114.2058,91.20559,-52.977806
-1229.8557,-226.32495,-56.11009
-3429.2444,3078.6182,447.83282
-2770.9373,5394.891,431.09756
-442.98843,2120.3047,117.96152
458.4308,1489.4253,86.762375
1064.4589,503.94934,22.06555
904.3279,375.61673,6.2031746
752.7065,652.63025,40.50801
563.3724,549.24146,146.88165
449.91544,707.0137,48.77342
313.40744,1000.9947,-23.517471
149.24733,2822.062,-94.35092
-827.8321,4604.9326,-271.26398
-1274.1084,3391.6055,-136.16583
-1317.1002,1766.6805,-46.84928
-1060.1382,555.3034,-89.73983
-1048.3717,-85.92697,-119.891655
-734.7888,-497.85928,-159.72339
-894.6374,-554.9654,-117.61194
-870.7174,-524.7911,-64.44582
-1171.8298,-149.70679,98.45586
-933.7954,-32.942593,-137.56035
-2562.6423,870.6938,2.6862173
-4064.682,5422.9863,323.97714
-1335.953,3881.615,32.21696
-98.18745,1481.5958,145.15327
786.0287,917.19617,3.6327362
1014.3099,106.55518,-61.852222
881.48145,635.7111,54.999214
735.8454,451.4986,95.424034
600.2373,739.67834,35.21101
342.90378,809.2091,-12.759387
167.6398,2287.5295,-118.7841
-589.2381,3919.669,-247.27179
-1269.0109,3941.6746,-199.03505
-1341.1396,2123.211,-57.420326
-1048.7875,785.945,-45.484203
-875.4515,-70.88216,-78.33617
-883.7743,-246.99951,-143.19283
-780.92053,-615.08624,-142.03223
-810.6805,-352.74814,-141.2607
-933.5508,-391.48126,44.197845
-1050.2827,146.89102,-68.96421
-1606.136,-33.539444,-200.14673
-3825.6567,4244.724,496.55545
-2143.76,4868.3877,253.20335
-214.00795,1681.9832,54.864304
483.26834,1224.9183,87.22828
902.4716,123.896706,-73.6561
835.6321,350.36176,-46.12988
757.8678,413.47964,-18.532785
639.9552,654.33594,45.926975
509.1039,636.08215,-66.159325
346.14264,1669.6993,-78.93666
-186.41933,3588.8813,-318.3638
-1131.3496,4223.481,-345.76358
-1289.9989,2838.9958,-188.62955
-1130.6494,1254.862,-162.52994
-991.0038,198.02777,-138.50864
-1156.0951,-275.92877,-249.33533
-922.7892,-616.4011,-242.84785
-914.0545,-436.94714,-154.95363
-797.05365,-361.87573,-99.51828
-1122.9714,-17.859552,123.19033
-1077.4539,-36.227795,-80.30189
-3054.4038,1996.7288,252.224
-3512.0605,5322.8325,354.57562
-887.88196,2875.5928,-13.320165
91.6606,1280.0173,-7.7242284
811.4765,630.868,-97.799126
933.6722,292.60858,-112.94354
848.47485,509.3667,-123.128555
621.99335,511.4767,-23.714968
448.69485,862.44275,-20.245308
214.84732,1119.1212,-102.554565
-268.77225,3229.72,-192.62758
-1357.2616,4522.6016,-260.4852
-1590.7434,2822.5945,-79.57984
-1344.8131,1177.3972,73.05467
-971.74817,244.75848,68.72297
-978.0558,-230.0737,22.060993
-755.9155,-526.0986,-128.6316
-871.0892,-521.42413,-117.63495
-740.7589,-314.9962,-84.600266
-1043.7974,-78.7886,34.881855
-947.43634,4.3772483,-98.20013
-2463.586,988.44354,141.77655
-3643.1516,4885.039,581.00244
-1300.0898,3493.8105,194.9529
-130.69691,1474.1942,106.88077
641.8641,918.63135,51.509827
955.11096,204.90843,-55.27599
836.744,419.17902,-34.084347
654.2741,464.70157,58.595165
563.59106,865.58466,-4.0075088
353.54968,887.8089,-135.93987
115.90181,2250.5522,-185.8784
-572.4458,3887.1565,-260.5992
-1350.1904,3831.2,-236.72871
-1373.7112,2227.478,-62.47399
-1040.7423,929.8955,-8.166239
-918.766,77.64586,-50.859463
-858.83264,-251.23923,-113.97169
-860.1632,-590.55743,-100.86507
-872.88245,-441.6338,-131.46632
-913.7052,-412.609,-56.427998
-1109.281,66.07682,-33.118176
-1589.9398,43.151936,-82.267685
-3711.7515,3865.7766,338.01257
-2309.6868,4952.5312,270.0302
-260.86966,1847.7844,-7.91224
515.4167,1285.5123,-45.73843
863.35236,278.34143,-143.99156
799.1,471.09174,-66.93537
685.9217,363.07968,-43.85283
610.28143,612.69965,27.853838
454.10046,578.6815,-48.14083
407.1662,1456.2085,-76.3925
-330.1493,3586.9556,-314.35254
-1233.1726,4192.9595,-351.93005
-1214.3042,2745.8162,-130.57245
-1134.8081,1376.6729,-96.50332
-971.8949,98.40002,-115.69421
-948.0764,-214.1836,-163.59541
-888.4518,-711.6515,-201.82228
-909.04126,-521.4797,-199.49391
-868.8276,-573.4296,-78.97331
-1052.2638,23.040136,8.111003
-1558.8082,-42.3148,-130.84097
-3972.258,4027.7505,487.3023
-2403.125,4600.622,444.12546
-447.31686,1669.2982,127.53497
331.74246,1193.8937,74.11127
877.50726,334.9318,-96.21636
762.911,642.08765,-41.693146
789.7083,466.4105,-77.23675
718.2682,590.39935,15.767
556.2279,739.91705,-106.54367
395.7676,1129.2496,-85.22707
5.6859636,3128.4634,-160.94089
-1144.3735,4386.1265,-207.62408
-1603.0719,3060.9666,28.275198
-1418.7362,1344.398,92.060776
-986.76434,251.15663,39.400433
-857.8122,-229.93369,-141.30583
-796.9131,-503.99066,-237.67598
-809.3462,-519.90765,-190.83685
-800.20056,-564.80756,-178.90915
-1146.3813,-130.71803,-24.368336
-1209.859,-84.58628,-87.92078
-3216.031,1167.3608,181.2753
-4029.4646,5191.765,377.54764
-1393.6456,3000.8562,75.90879
-65.231445,1430.3505,-33.119026
803.3531,927.21643,-69.7242
975.338,511.94894,-27.985073
931.5653,522.9645,-28.804691
636.7377,443.6984,25.4617
538.9978,612.4458,31.467127
274.2118,1036.2438,-9.1526985
82.124344,2434.8296,-117.857
-1222.8242,4537.7583,-311.8921
-1668.6469,3609.236,-135.72539
-1415.076,1671.6699,-24.053732
-1011.35077,479.77438,-21.566917
-961.3873,-72.64468,-104.80293
-770.22876,-366.72256,-231.8052
-784.9874,-743.2962,-214.33098
-722.6844,-505.3721,-205.35355
-1014.50507,-163.63306,22.61818
-991.5584,-149.42253,-171.27701
-2494.739,653.5172,62.228077
-3968.8472,4940.1206,470.40323
-1732.1542,3839.33,137.08762
-200.37036,1462.7814,42.649326
565.59436,1078.8926,-196.06435
829.68665,679.2406,-166.11063
1052.1403,612.4261,-161.79637
864.07947,8.421684,-150.092
732.9554,362.2317,-84.36273
421.4635,522.7359,18.825027
475.93686,1819.2345,-216.49774
-662.5337,4417.1094,-471.55286
-1334.0372,3942.6245,-346.94202
-1186.3447,1881.6252,-188.92363
-1031.9668,913.59894,-238.30336
-770.99664,-92.22992,-240.86475
-674.22253,-409.02283,-347.3447
-793.11176,-623.64154,-133.6863
-911.8481,-81.37186,22.887648
-811.7014,-361.32755,47.506165
-1144.482,131.15556,-71.16626
-1429.6531,-58.564194,-1.5644475
-3751.052,2945.011,176.71326
-2812.683,4943.0273,120.64603
-787.1963,1714.7673,28.937393
137.15164,1206.087,-39.33474
673.6633,468.2018,-6.2537537
844.16315,523.6486,-39.276073
784.4663,454.32867,53.06374
668.93207,686.9951,64.8963
578.9194,730.76996,27.23339
286.95135,1300.0913,-44.941196
-16.878145,2883.3337,-214.66933
-995.35095,4392.8813,-296.61435
-1564.1847,3459.385,-132.0475
-1388.4797,1611.2496,-117.977104
-1124.4186,337.81067,-95.07451
-1141.0002,-147.28145,-121.16485
-895.13696,-592.2344,-186.30399
-907.9632,-675.8285,-97.39886
-860.5992,-451.9365,14.468405
-1098.6132,-161.16432,150.14233
-1135.8368,-166.86316,-123.47908
-2639.6423,1016.02277,138.92685
-3841.3645,4109.5977,645.825
-2033.456,3259.0378,228.0483
-695.5525,1689.5878,65.22163
328.65338,1240.4631,-89.3055
754.707,705.7005,-66.451225
897.2942,856.72955,-160.00851
608.8166,759.7308,-30.421753
482.28583,1072.9705,-3.612562
201.34729,1153.122,-35.473858
-371.42484,2441.2698,-63.199932
-1362.8888,3035.2427,-19.580025
-1609.0698,2848.8877,91.82047
-1714.749,2195.5588,111.28801
-1357.4808,824.6357,-77.796326
-1096.7142,-123.18066,-125.97984
-918.7799,-384.91565,-109.245384
-833.0868,-520.50964,-211.2707
-838.9329,-515.23846,-180.72679
-1062.1024,-370.38068,-158.72932
-1132.226,-121.313896,-82.49619
-1730.0096,339.50436,-41.567085
-3334.165,2697.5427,304.78256
-2454.6018,3723.4526,317.84326
-876.6696,2011.2189,202.61751
-52.48143,1501.8055,124.24981
626.34485,811.0625,131.04356
807.84235,662.7734,41.286682
789.10724,688.18256,40.24837
497.40268,713.9153,151.6094
305.32938,898.46594,61.63501
13.864397,1410.6384,-51.338337
-299.68796,2914.618,-97.14324
-1357.0963,4019.7305,-184.92758
-1815.7749,3096.6182,-198.91547
-1554.9717,1534.1304,-162.5335
-1136.0182,391.52118,-205.98228
-1154.2913,-211.65802,-222.56027
-807.0254,-460.01193,-160.15031
-867.21576,-549.29083,-93.982544
-768.12646,-469.6863,-107.092705
-1073.5112,-185.92752,84.53274
-931.87976,-98.76129,-52.42644
-2721.4558,1124.4463,207.11676
-3858.7852,4829.1978,782.85333
-1471.6328,3080.782,301.73053
-223.63625,1508.7644,61.84193
735.8164,1046.531,-11.390324
855.62067,531.9001,-64.9431
825.03314,613.3391,35.81845
553.89374,456.71265,84.802376
540.2676,794.7244,89.17111
290.25946,815.9415,34.2518
121.55523,2021.0466,-5.47045
-622.5725,3683.1494,-172.08485
-1394.5028,3816.2397,-123.017
-1491.887,2219.973,-87.183334
-1226.0553,955.02094,-81.50587
-871.29803,122.21943,-112.23515
-710.0135,-130.35364,-160.47267
-725.7575,-485.87662,-126.65795
-886.2222,-389.5216,-93.09039
-933.5617,-418.0535,34.167686
-1056.1212,-52.56507,41.525955
-1399.1898,-96.04362,-120.93198
-3493.931,3458.1504,501.01904
-2518.889,4853.351,359.5608
-580.39795,1989.1686,5.876693
343.4244,1551.8674,37.054226
899.42706,598.3446,-112.72011
901.8844,478.41373,-32.196556
800.321,395.85376,-4.9255004
662.86304,549.1766,14.538106
479.67163,812.6811,52.19148
272.9775,1267.3029,-19.023489
-220.31973,3138.928,36.93117
-1409.5145,4376.3525,119.63664
-1519.7523,2866.6177,71.86148
-1335.4259,1413.516,35.338287
-888.3671,393.3863,-122.551796
-848.7887,-139.02226,-251.11646
-610.65894,-541.0789,-303.84647
-868.55774,-583.18024,-220.59447
-793.8293,-548.4332,-249.36859
-1153.6985,-239.87033,10.114116
-1117.0237,-86.067795,-32.310585
-2828.1755,1139.4476,150.96956
-3817.8286,5258.1294,626.40076
-1183.5061,3523.395,223.57951
-151.03055,1359.5719,71.01884
631.97815,868.19214,-41.64971
865.4746,266.3674,-76.59127
892.40344,644.0106,-47.9629
709.9403,454.80228,43.839443
560.4053,839.8886,-17.54448
300.9018,1001.2017,-17.995947
112.10852,2300.72,3.927669
-745.2888,4069.8638,-113.675674
-1424.2382,3739.6116,1.3862886
-1338.772,1931.9653,45.839447
-1095.161,777.09906,-4.139803
-1088.6482,20.324175,-59.65325
-794.0308,-373.27432,-138.38766
-729.95056,-695.3189,-162.97787
-689.4313,-362.4319,-68.972084
-925.51526,-202.79782,102.29895
-973.0548,124.7633,39.439053
-1918.1545,271.51434,5.5533185
-3829.6387,4363.2324,578.14166
-1968.2987,3982.3286,483.93988
-232.04857,1683.7069,64.62662
685.774,1152.0226,31.173513
1034.0175,411.32904,-20.33282
916.44183,524.9803,-34.541233
758.00183,416.0793,-127.37955
662.0598,574.35535,-39.288548
447.65018,694.17346,-65.52874
409.46225,1343.2429,-89.763306
-282.12534,3705.5916,-147.03664
-1497.9501,4182.0244,-162.00505
-1501.4464,2464.9814,75.62637
-1311.4814,1333.0447,87.64542
-929.04596,158.58017,17.472498
-837.39276,-177.01588,-64.56196
-745.00916,-393.61038,-115.66532
-908.4776,-378.3677,-104.75459
-880.26807,-494.66568,-98.008286
-1061.7129,26.929016,16.01326
-1157.3882,-169.00522,-156.17639
-3256.8833,2545.9368,259.39133
-2677.8464,5234.9087,540.4759
-577.5787,2315.1511,117.31559
308.22986,1235.8416,34.44884
944.04553,444.8649,-3.684446
858.76044,496.50998,16.555775
826.62494,405.9521,-12.704494
626.8347,454.0634,60.9889
514.44403,647.32404,0.93729293
261.38477,1140.672,-13.7717495
73.43553,2957.9954,-209.46658
-832.4388,4150.3154,-246.97882
-1495.4059,3362.8083,-72.2306
-1459.4506,1582.2249,40.652096
-1009.53705,580.3525,60.664368
-995.4748,34.676003,9.80002
-652.3775,-367.1665,-99.79812
-622.00745,-537.62213,-190.89384
-634.85455,-412.07553,-166.99747
-1035.8502,-173.79544,107.00249
-970.85095,-113.45483,-103.4235
-2492.4546,497.18213,108.936226
-3872.8464,5248.384,854.854
-1416.8093,3669.9827,305.38852
103.525375,1632.4004,15.0166855
1129.1135,1155.0303,-18.844378
1197.4048,250.20248,19.228899
1073.2567,505.03326,-107.38892
667.1627,346.49557,-30.179518
498.28357,772.8787,-13.676012
226.12718,1150.0123,-46.665985
-150.92152,2839.1848,-118.7167
-1293.4237,4237.7227,-175.94106
-1740.3853,3267.1453,-79.01056
-1537.5752,1643.3236,3.1355174
-1107.7847,789.4177,14.591402
-912.1723,-5.9469624,-89.665764
-884.5536,-397.79446,-182.01468
-872.85974,-742.2438,-168.67166
-851.52814,-422.23062,-119.19451
-894.7969,-309.20364,-38.260986
-1139.7021,118.453674,-14.684218
-1641.6771,271.2874,-87.95064
-3427.009,3811.5242,380.6028
-2365.8655,4511.363,238.9015
-383.71518,2125.5857,14.031817
448.5009,1277.424,23.989237
846.3391,450.44336,-58.531178
845.1191,512.03357,-19.716236
831.58875,415.25073,-8.857167
621.2245,614.58704,36.046196
439.03445,733.44745,-22.009783
225.24844,1460.4885,-34.33018
-284.39206,3765.8296,41.019306
-1323.4668,4553.2983,136.7006
-1419.9491,2257.0713,96.89173
-1066.6556,1101.5931,116.07973
-845.4841,369.09152,-4.6433043
-770.5338,-269.68283,-315.40857
-650.4979,-614.51666,-456.4515
-682.4464,-510.07245,-424.76273
-687.18494,-351.75473,-192.04715
-994.51306,-72.505745,36.419434
-1099.011,-109.062996,-21.917065
-3232.51,2603.013,260.05673
-2782.379,5409.863,589.4665
-632.2069,2556.4788,297.78525
278.15027,1350.0955,96.359314
886.18304,469.40933,-72.091064
848.65,318.50278,-186.56955
834.3402,445.94055,-239.58853
787.2767,542.4624,-176.28233
711.4594,676.4369,-234.88864
405.5546,1432.2406,-186.79517
-20.261349,2887.628,-288.15887
-1111.937,4096.6333,-280.42923
-1429.1223,3077.8132,-67.99379
-1301.1277,1626.472,24.264912
-1032.3802,416.66653,-46.317226
-940.26166,-130.4139,-176.20837
-883.0078,-465.97656,-173.9459
-896.44415,-356.07764,-120.24319
-852.2133,-553.5594,-138.95032
-1152.5735,-120.3347,-85.12288
-1287.6677,-165.56792,-66.91689
-3217.9336,2694.5146,237.77751
-2663.0093,5234.799,347.7942
-453.91437,2345.6443,115.127785
327.08847,1408.7988,-17.904776
932.96747,583.2296,-25.475998
835.63666,516.466,-63.957684
828.4481,589.34973,-74.786224
636.5313,405.862,10.105541
605.87573,695.7208,-34.538902
324.44366,935.51215,-81.122536
191.60315,2591.2527,-187.11864
-1072.4668,4443.964,-424.76166
-1505.6497,3185.1487,-326.07556
-1404.3855,1884.0754,-128.924
-1090.1143,693.03235,-103.02232
-960.8711,-207.59085,-119.003426
-774.0763,-485.39853,-102.734886
-890.60583,-500.0987,-3.6237843
-711.1866,-361.79263,-0.64081466
-868.5193,-358.92975,56.33377
-890.53925,-98.05092,-1.7887716
-2240.6282,528.36084,-26.676271
-3939.694,5116.46,503.94525
-1377.0767,3937.5977,168.83514
-179.85707,1328.3358,12.291251
562.71716,888.48505,-131.67693
863.59357,64.2435,-121.571976
883.1301,565.09015,-87.37325
800.6068,356.85428,-92.15755
763.83545,558.5124,-90.85141
522.62994,696.0276,-77.926056
340.58432,1680.3783,-84.568726
-214.78578,3552.3296,-149.93443
-1269.7983,4293.7046,-108.91664
-1458.565,2417.8977,55.83302
-1207.2764,1150.8866,43.91083
-1024.6116,37.975517,6.539725
-845.6947,-219.86613,-105.732346
-683.21014,-480.83783,-45.569714
-747.5346,-268.05823,-47.794724
-759.3194,-434.2885,25.724043
-977.3283,34.150265,-42.38841
-1294.6033,-72.08069,-9.463816
-3236.975,2948.2925,438.39493
-2396.8496,4843.346,306.53598
-422.54413,2042.7595,126.72142
299.12958,1335.815,12.926266
851.1445,482.13947,-42.169827
777.5613,563.31757,-142.37164
766.33594,431.33658,-163.56699
651.70935,469.55222,-85.148544
673.7055,641.65155,-128.71243
456.3306,894.65674,-96.65176
184.53558,2553.872,-184.15865
-1134.8093,4613.6436,-186.33138
-1571.927,3037.6724,38.67137
-1203.0198,1498.8165,197.02267
-833.7755,645.95245,115.066925
-731.932,-40.21292,-19.436052
-679.36316,-273.64194,-169.67465
-879.734,-534.3695,-227.78096
-815.24084,-549.28107,-253.1359
-1109.6873,-386.2996,-28.195879
-1038.3679,13.708892,-70.5989
-2416.52,837.0792,161.16696
-3608.711,5371.5728,443.0317
-1088.8945,3548.957,200.00725
23.144955,1210.6456,26.619713
750.5767,804.39734,-8.525462
796.18054,181.30203,0.20866266
876.35236,433.07626,-41.920746
644.8529,316.18286,50.65501
645.1882,596.91034,36.446854
379.5337,660.9643,-28.401293
341.01193,2114.7817,-162.29774
-820.9812,4375.7764,-281.49542
-1555.9635,3710.678,-224.0028
-1501.2251,1949.0493,-75.85777
-1223.9766,922.4502,-29.581821
-1074.8765,-56.457615,-102.49449
-926.1029,-396.7663,-187.50514
-822.09564,-665.6201,-96.06697
-759.8645,-495.5724,-82.90323
-879.0248,-456.3498,32.140682
-1081.1863,-6.710522,23.020817
-1807.9525,227.90988,50.83766
-3880.4424,3694.596,463.81317
-2256.4182,4470.9756,295.989
-521.7886,1809.6552,8.751856
349.22714,1142.3187,-123.62467
834.3595,438.22266,-145.44577
877.42804,705.4252,-200.88791
849.4588,365.01816,-189.47478
634.3558,711.68976,-61.492912
408.58524,883.06995,-101.4746
165.63548,2018.574,-111.88649
-368.56015,3608.052,-110.65008
-1259.5103,4090.377,-136.4316
-1328.8245,2439.367,-87.761345
-1104.1133,948.1703,-48.472443
-882.2211,14.606229,-149.14194
-831.63135,-387.54868,-194.0537
-714.17444,-661.72864,-173.37181
-795.34296,-359.99164,-164.0133
-842.9784,-301.87653,-102.738754
-1080.4277,48.689457,55.052982
-1610.3182,50.43836,-100.13354
-3652.0146,3687.8005,267.42084
-2311.7012,4757.849,241.18912
-453.88788,1983.6218,-6.973448
278.97464,1274.3629,-62.039124
698.61914,445.60544,-51.64918
841.6459,351.85712,-7.590595
784.77264,321.1702,-56.00855
714.9328,312.93103,-13.977897
479.95612,554.3227,-46.010017
314.39758,1081.3853,-102.5295
-261.5479,3248.755,-489.57556
-1155.5365,4162.097,-641.0143
-1281.4641,3051.316,-334.64044
-1257.0483,1626.056,8.779049
-889.56885,355.5157,108.408165
-856.533,-251.29411,23.12344
-806.8743,-530.31177,-98.35288
-954.14197,-407.73746,31.184477
-892.9894,-361.77933,18.38188
-991.8758,-156.72328,-42.850647
-1099.4521,-113.66691,-28.192436
-2244.1052,972.7915,-64.926674
-3498.656,4538.484,313.74988
-1597.5092,3820.5308,212.40395
-240.63402,1545.7892,-11.651168
377.1282,1056.6453,-54.881687
623.1995,501.0422,-121.49005
751.88544,635.18445,-157.15152
855.69495,279.96646,-121.733665
711.84094,667.9105,-47.8623
520.3468,653.90283,-133.64908
326.75882,1729.7009,-144.62491
-200.33493,3585.1633,-272.62344
-1331.9897,4433.755,-349.10724
-1521.2504,2347.4128,-122.52219
-1135.2986,1091.4781,-53.769417
-889.47394,210.75984,-118.316414
-862.1451,-179.1877,-180.7003
-799.8121,-671.4835,-138.71591
-833.805,-447.5761,-119.98051
-847.9928,-506.54172,-72.09906
-1057.3105,7.1383276,78.59899
-1291.5472,-105.19039,37.482845
-3421.12,3181.8708,272.40808
-2592.4172,5096.0396,393.3827
-437.1734,2191.2485,60.294216
171.85931,1368.719,-38.02519
731.2466,442.79776,-117.90363
724.8044,487.39078,-81.87361
868.99927,479.78146,-113.38649
691.7086,452.72253,-35.034977
575.8283,613.8251,-27.704836
411.72308,823.0885,-90.14359
140.03857,2851.1118,-183.07425
-778.24524,4671.8843,-387.4995
-1119.9479,3557.9636,-225.56184
-1316.2639,1762.7937,-74.66778
-1124.336,386.10205,-145.70844
-1044.2734,-130.85014,-190.4321
-829.33405,-534.7609,-234.6299
-909.0837,-465.16068,-102.47315
-904.62506,-304.6737,-129.46759
-1186.3668,-145.39803,4.296493
-1147.7018,-49.207897,-90.446846
-2567.5317,972.9172,181.75148
-3742.9104,5129.0576,473.44196
-1482.7416,3700.7913,156.47885
-136.31763,1605.2148,-9.2416
617.5312,1045.2295,-108.58309
881.24457,412.67676,-157.1978
900.9023,565.53253,-235.67258
816.80975,383.05322,-130.02077
645.70544,793.12054,-65.82771
430.09518,878.11743,-134.7658
241.77686,1798.8143,-94.82994
-323.51138,3707.1377,-233.54965
-1320.7903,4167.642,-193.53967
-1339.5536,2218.7673,-16.702572
-1174.9833,935.33234,15.2769575
-1012.02277,75.90005,60.916298
-1042.6901,-72.21735,-197.37685
-901.2942,-511.6239,-222.69608
-972.0658,-345.8913,-241.71281
-873.66907,-224.05446,-233.44757
-1103.3462,185.22923,-36.521053
-1099.5612,-32.457577,-22.186039
-3110.54,2430.5706,384.2432
-2910.9148,5308.5244,418.58798
-724.55914,2450.701,136.08177
161.62186,1434.6742,10.554247
849.1654,555.74384,-82.12931
886.65967,343.465,-98.19352
953.99335,366.28537,-148.33495
688.8496,360.84857,-104.098656
600.77576,553.1775,-84.093704
363.9816,909.259,-182.55965
146.5768,2618.6802,-187.60994
-1352.8236,4735.295,-325.45276
-1802.5155,3118.1924,-153.10683
-1507.3813,1805.8402,28.60867
-1174.1477,892.41626,-24.414713
-1041.666,-33.102867,-166.23732
-863.4335,-471.8518,-225.86945
-917.41876,-564.92804,-202.06482
-756.22266,-565.87585,-131.03732
-882.9914,-484.9245,2.6423347
-904.5363,-436.37003,134.911
-2257.6987,553.26166,151.24446
-3817.05,4277.736,742.8406
-2247.5105,4133.22,435.0094
-469.36237,1803.7184,34.542797
416.02933,1080.3783,-6.8353024
785.6935,530.0725,-83.44647
859.83154,615.2762,-75.06709
767.51227,444.55438,-60.376076
643.22675,601.0928,58.881657
374.3637,813.2867,-4.259543
250.3656,1431.1514,-18.922417
-511.44357,3387.548,-189.49228
-1910.371,4386.4976,-202.52242
-1831.6278,2393.1978,-130.14311
-1424.129,1199.1841,-53.47149
-1188.4119,174.84169,-86.82639
-1002.1423,-304.38864,-186.00903
-711.8476,-751.8607,-213.89418
-757.67645,-562.78674,-121.484604
-867.5569,-524.3494,-32.55705
-1149.1509,-20.195047,74.90578
-1296.27,-144.46758,-84.38658
-3638.936,1781.9203,362.21896
-3784.4568,5166.982,670.5751
-1082.9674,2449.3665,111.77075
116.56223,1183.3021,-23.360655
930.79376,658.9843,-83.26438
904.06433,450.9724,-47.592506
877.22095,454.1028,-15.215296
639.07697,461.76474,42.35157
479.23996,879.7189,55.309464
230.71394,861.6286,-47.212566
84.85185,2392.4878,-113.03735
-1056.5247,4437.269,-331.39355
-1812.7512,4020.8826,-157.6875
-1576.3572,1857.1685,-45.98407
-1011.87775,391.6454,-29.345776
-907.2541,-32.634247,-14.356655
-833.2776,-355.59216,-174.10483
-767.7064,-773.86395,-259.6721
-812.585,-527.6393,-246.45026
-921.7169,-228.333,-50.14381
-1014.98047,87.59458,-25.724955
-1691.5295,151.57759,-16.11252
-3787.5684,3471.9346,718.6657
-2587.2092,4437.7397,634.49994
-599.1472,1943.7124,201.23964
233.24986,1093.1355,103.15576
832.1655,479.42883,-20.075644
830.2234,614.362,-7.083475
811.5596,663.592,-47.428783
671.55756,541.0853,38.378838
550.3438,855.40906,-67.349304
330.7252,1244.9398,-131.57452
-53.886665,2990.542,-334.18976
-1273.5405,4508.938,-452.1149
-1672.5547,3049.3796,-251.73721
-1440.9532,1618.9115,-127.83653
-1171.5387,503.1137,-123.56698
-1157.0267,-147.068,-155.09972
-905.54126,-635.30634,-280.951
-913.48016,-581.3182,-181.09709
-783.8369,-562.16223,-85.386314
-1052.2661,-283.59964,147.38391
-1026.9988,-17.31208,-18.825224
-2869.6638,1383.5311,434.68558
-3649.7996,4763.732,731.25104
-1220.2789,3111.4058,276.00525
-99.19976,1300.9999,141.73355
564.18365,815.09424,72.97725
714.47577,382.98553,8.6814575
745.26886,592.7729,2.5685675
595.7411,439.37027,40.164974
547.03815,693.90735,56.192566
384.81244,706.5569,-43.41412
343.88403,1484.9921,-90.91858
-550.8958,3796.4548,-416.94995
-1807.8867,4026.4675,-427.6609
-1452.3573,2187.2002,-241.30675
-1199.8546,1385.308,-169.48244
-1040.5889,378.62732,-179.17519
-1050.5125,-285.74734,-324.12192
-887.97076,-817.84314,-292.34546
-925.35065,-627.3235,-115.40975
-816.9875,-583.5978,25.796711
-1096.5339,-9.797218,273.65778
-1143.1544,-76.50074,124.15191
-3354.9014,2059.205,629.62756
-3352.164,5010.3696,828.68524
-919.6227,2377.6626,208.60213
-67.93448,1320.4171,127.123726
599.7271,677.5006,-117.75652
799.89276,309.1676,-99.73474
1009.88367,472.4791,-87.05073
717.01355,495.8013,-31.844423
650.053,740.5176,-114.22372
337.61163,904.2596,-105.49664
155.36386,2301.266,-200.12534
-1046.6165,4102.4473,-443.42026
-1865.8717,3568.268,-281.8685
-1495.3672,1846.1073,-130.20044
-1297.6329,905.56195,-136.87021
-1117.4066,-169.14182,-70.56765
-945.29236,-424.1445,-89.966194
-836.19183,-658.573,-32.530865
-776.5251,-509.87265,-23.509188
-847.4057,-550.22833,60.949966
-1117.9681,53.467823,86.48985
-1748.0919,147.00044,17.455915
-3935.07,3722.5625,788.1559
-2333.6816,4179.954,478.50262
-474.13275,1645.8079,139.81036
288.08978,1276.273,153.45987
836.0648,323.11786,-5.916567
789.76117,486.4119,23.16291
709.40234,448.51718,21.346973
553.95044,538.3341,112.41816
405.08575,645.2899,7.636762
290.92136,1025.1155,-19.613562
-238.72511,3024.2617,-187.40636
-1499.1288,4400.332,-262.6389
-1519.2428,2466.9468,-108.572014
-1337.2859,1431.2134,-10.942967
-1101.7078,337.52887,-33.486973
-1032.0977,-110.26461,-34.427814
-925.4863,-386.84158,-78.15969
-940.59406,-389.819,-5.568595
-726.1402,-488.32828,-14.7956705
-995.12354,-267.99994,144.75702
-941.2742,-77.13054,-4.9054966
-2402.0676,1105.1576,340.09036
-3638.511,4536.08,582.36993
-1332.4443,3200.7268,242.2646
-146.25958,1388.4615,105.284004
627.1325,1039.5764,24.018866
780.81366,253.95885,-19.562086
816.30646,457.35596,-21.394548
622.9813,309.0766,47.020203
564.9299,591.9363,128.91006
366.80652,547.2909,-4.6428947
248.84386,1813.3853,-161.62042
-1073.6804,4185.3354,-304.44702
-2074.2012,3818.5198,-209.0741
-1757.5646,2073.1448,-48.846676
-1410.0114,1103.7029,-15.4815035
-1169.7788,-85.80002,-34.89422
-1047.3936,-359.42963,-83.485054
-981.764,-682.58936,29.651756
-910.5975,-527.94434,61.72754
-884.1117,-641.3743,75.54649
-1002.8383,-7.126495,121.76267
-1548.7847,68.28006,16.652285
-3537.1262,3390.5676,657.7236
-2422.6907,4126.944,563.4222
-691.8793,1871.0938,44.46899
181.1765,1312.0759,54.440395
742.14996,506.53156,-38.949154
793.7535,363.04318,-18.078098
782.37775,371.4935,-64.167885
588.88007,523.71075,81.85006
499.15848,700.27325,-46.928307
315.47766,968.497,-147.94322
-121.01274,2934.71,-301.68005
-1459.1921,4170.927,-351.62094
-1704.6176,2872.729,-117.76768
-1383.0453,1571.2458,37.969666
-1181.7574,560.1914,34.441563
-1091.9247,-200.7765,27.35894
-862.1641,-481.46332,-59.824593
-829.6804,-574.1329,-21.952255
-775.5164,-477.53232,-21.814074
-891.32855,-322.96048,156.34273
-952.7571,-52.59898,-16.75647
-1906.8925,586.9615,21.328691
-3718.7822,4193.557,716.50555
-1932.259,3727.5696,222.01175
-378.3387,1579.4365,49.60735
406.8368,1140.8248,-43.520264
785.0635,339.48083,-109.29382
770.89984,324.90234,-124.15807
629.33795,391.39404,-69.26819
601.33185,655.5178,-5.1139426
436.5588,753.7273,-79.80886
234.31854,1576.842,-93.13194
-902.28656,3393.1572,-273.71338
-2014.2667,3528.2185,-204.3258
-1688.2849,2209.3164,-51.988354
-1432.2327,1252.244,-7.577241
-917.042,250.63663,-49.15137
-822.6132,-270.4764,-113.28042
-610.291,-523.28186,-137.04794
-782.19226,-427.02042,-24.349833
-667.87604,-454.26923,-10.811571
-975.5027,-245.14375,135.76259
-926.7425,-139.06369,-51.342285
-2459.767,1254.838,225.92482
-3460.3054,4323.9556,836.4611
-1383.1425,2695.1936,284.81168
-299.23325,1216.7606,116.2873
389.87842,953.5373,93.40607
661.9553,470.54156,69.406075
796.4791,538.722,47.433716
656.9318,483.6141,107.50688
673.22046,507.45245,71.24173
406.1969,731.74786,-5.0317855
211.744,1752.4023,-93.31221
-948.3004,3694.545,-328.287
-1973.6254,3620.8792,-243.41658
-1555.6367,2045.069,-52.67989
-1297.6263,1184.2491,-33.140015
-994.9689,206.01775,-34.204987
-984.91455,-255.77281,-78.772255
-867.443,-561.7042,-138.40973
-964.0255,-446.3842,-87.36744
-725.9351,-594.89185,-52.863647
-963.9886,-206.8964,171.448
-939.4608,-222.32515,49.004982
-3060.2373,1768.7817,592.8562
-3364.9111,4940.4146,822.39575
-928.00684,2516.259,149.73131
-75.66404,1397.4845,123.18631
657.6182,649.1052,-76.990036
797.25256,275.2751,-22.456024
899.37604,372.45782,-84.39954
630.4964,359.6621,-6.4661894
555.10406,587.9227,-44.201706
351.6313,834.3661,-71.53799
148.98645,2390.5427,-235.60301
-1160.7328,4043.8398,-323.38574
-1697.8123,3108.8672,-230.71759
-1556.3984,1866.8759,-100.8248
-1188.8556,917.63556,-76.698975
-1006.28424,88.78503,-91.488625
-806.69543,-349.78046,-151.09271
-742.5514,-610.7104,-43.478115
-683.5617,-439.19113,-32.074333
-817.967,-495.3649,90.68265
-888.8872,-40.302135,22.954731
-1688.1018,138.01361,163.16347
-3741.9036,3825.8357,638.6948
-1951.4482,4181.0693,401.78964
-274.746,1613.3179,114.87119
427.12732,1198.059,59.163628
751.6355,271.20285,-18.299994
893.69586,377.13007,-30.8475
769.9369,290.17267,-39.2441
680.50146,493.3331,6.1751065
469.31604,434.15793,-115.56646
345.37616,1490.6693,-145.962
-631.4196,3587.023,-449.04807
-1736.3811,3749.4036,-424.04343
-1500.2267,2103.1772,-187.0058
-1308.1172,1348.1932,-93.16261
-983.7002,237.95409,-68.54634
-905.44196,-127.04143,-84.39843
-788.00214,-582.3151,-31.984665
-827.2079,-408.7221,35.216225
-719.38464,-610.2423,-6.190219
-960.3508,-66.63646,120.944016
-1144.5892,1.0901859,113.77528
-3090.063,2519.0479,531.199
-2466.3381,4362.179,599.419
-641.44574,2142.9592,138.91234
98.556206,1219.3838,114.94993
687.2143,616.4406,56.88502
769.62683,278.55118,36.084255
742.9784,348.1613,24.078373
582.658,442.50772,80.8818
570.08606,697.6728,-29.478285
348.87686,945.1176,-98.32384
128.60336,2349.1777,-328.4375
-1229.5413,4130.9736,-439.90384
-1867.8258,3236.4187,-272.375
-1529.828,1726.8221,-71.30374
-1214.9027,808.71674,-1.0246091
-1033.1313,-11.029316,18.722319
-911.2376,-442.41302,-65.47004
-946.3486,-626.08673,2.095521
-794.68365,-547.09436,-25.912642
-956.82715,-402.91898,101.82796
-836.78864,-3.2767806,117.04425
-1883.5519,625.2631,256.62708
-3398.992,4442.798,640.27277
-1376.7047,3539.867,331.47278
-180.43073,1433.7732,107.220795
485.07428,985.1174,37.561054
686.2915,315.75052,-55.999954
747.7726,335.2686,-82.1151
604.78455,323.4644,-16.497234
602.5862,442.6513,25.313187
353.06247,666.333,-25.39955
256.09415,1196.0833,-59.149475
-531.16876,3187.5508,-238.80275
-1742.4846,3901.8325,-291.61606
-1794.05,2466.3347,-144.30884
-1373.9541,1402.5059,-71.179
-954.03845,406.63855,19.807795
-748.93085,-128.35886,5.6272945
-557.362,-469.9079,-41.33435
-717.7187,-556.7879,-4.3522596
-738.1411,-431.02313,25.550024
-862.0655,-314.8705,128.98006
-866.5361,-60.604706,5.251046
-1917.906,581.6611,241.05122
-3599.4312,4027.1772,712.7567
-1653.7625,3505.3547,232.5327
-335.45297,1337.6925,133.1206
349.5435,990.8335,74.058525
730.1214,177.33943,-0.8945471
838.736,342.51535,6.848072
686.20435,230.70259,78.17787
626.68756,524.71484,72.13415
395.39877,602.7256,-0.5449035
216.27956,1759.6202,-174.1609
-789.53345,3529.0796,-388.73257
-1640.1115,3484.591,-335.6268
-1519.9606,2079.9387,-85.43551
-1202.7568,1188.0364,-53.029415
-922.12823,159.79921,22.712704
-863.96014,-125.68448,-42.40824
-860.24866,-555.8663,-26.759586
-903.948,-357.19672,-26.393074
-872.90796,-673.69714,8.661578
-1031.0894,-152.85884,29.649694
-1390.8182,-81.41923,11.176759
-3382.3284,3277.1768,439.59683
-2317.3665,4323.114,407.53906
-381.81317,1628.8455,21.916245
306.42688,1197.0425,38.809185
794.18805,451.76517,59.361725
817.3951,303.54837,58.150074
730.9678,285.88162,69.42602
511.77045,549.43677,169.26886
315.26898,798.3064,93.528015
113.89414,1481.3243,-22.518187
-662.8714,3394.2788,-120.855515
-1690.1996,3413.2979,-164.36493
-1493.7019,2021.5529,-114.249245
-1261.2137,1115.8817,18.412247
-840.0416,296.2691,4.205909
-866.0348,-111.32056,-24.04984
-667.3238,-467.55847,-47.762753
-924.748,-518.2323,26.646027
-687.1205,-524.4611,-35.697544
-1042.8711,-214.15366,110.55922
-1013.50684,-102.408936,-15.749374
-2749.1174,1434.8564,433.64893
-3364.1177,4733.394,770.6322
-1081.5863,2666.8447,207.6043
-155.72618,1316.9397,112.66576
549.31714,705.72955,39.46185
760.33716,250.81694,22.506676
844.4344,377.3954,7.842238
599.2327,401.43622,119.09371
492.44305,610.1298,51.21628
291.83942,788.65625,-34.061825
-23.051254,2516.3613,-146.91403
-1191.8345,3870.9167,-249.08963
-1502.5034,2928.9316,-152.80702
-1262.701,1744.3004,-36.973103
-1093.8984,744.9824,-47.30271
-1045.1329,-40.372414,-81.14169
-903.03156,-392.8927,-88.80703
-870.8944,-448.21646,-13.552122
-799.1827,-468.2553,-28.676939
-936.6857,-361.76654,99.79646
-942.3206,-116.961555,72.66768
-1981.8247,599.79285,187.97244
-3541.8354,4361.19,750.67633
-1531.3713,3704.8958,323.77786
-209.56007,1509.3986,118.409836
475.30774,1027.5016,73.623024
787.7474,247.0729,7.7626796
830.1915,311.27872,-56.925266
647.208,297.24698,-28.09124
624.79407,557.34515,-6.7611384
321.3348,720.49567,-3.7535486
186.56372,1877.2565,-197.35165
-1006.5467,3736.212,-415.31296
-1746.2355,3597.8276,-253.82758
-1533.9662,2224.0327,-85.971565
-1188.583,927.8348,-119.74573
-936.6657,-4.7247486,-41.062828
-979.49805,-196.36592,45.941086
-1002.1699,-495.5702,196.90561
-935.7235,-532.25366,178.65088
-896.977,-669.0751,114.35102
-1100.026,-200.42842,138.573
-1710.4259,54.399147,-98.09198
-3349.688,3909.5828,-33.46885
-2144.5295,4256.3013,149.61613
-509.2677,1696.6134,-78.38921
192.97054,1381.6356,-104.99724
682.7531,489.16153,-47.04079
743.26984,423.87613,0.039022427
656.3937,286.73462,-34.176144
596.6062,633.4222,50.79794
479.74982,707.0888,-55.937134
352.41577,1323.6672,-142.9301
-427.8192,3293.9849,-467.26965
-1612.146,4012.101,-484.2928
-1625.8395,2646.6252,-297.19223
-1310.1482,1177.8866,-153.06691
-1230.813,124.33585,-74.75184
-1164.7445,-435.76782,-15.980051
-862.82935,-733.5631,-87.619644
-843.0285,-583.3784,-19.764015
-767.5885,-420.443,40.43899
-1008.8101,-111.24585,165.53806
-1113.1681,-43.07756,-152.86804
-3016.075,2266.6028,321.7743
-2970.0925,4591.1865,579.2932
-845.87115,2386.619,156.93091
-92.31622,1218.5627,136.83559
478.2266,605.01196,54.609802
618.0939,334.4335,43.608166
741.0255,399.53943,-0.19091655
619.79645,477.2278,87.01521
569.43304,579.677,78.47663
278.79236,991.4902,-3.9060469
-124.465645,2467.9849,-187.81459
-1637.0764,3923.6877,-345.88055
-1892.9408,2808.0112,-272.75174
-1414.9545,1467.3468,-58.44281
-1175.795,584.4415,39.728306
-948.3649,-250.78107,29.10933
-640.00507,-694.9776,65.642815
-698.9805,-805.7863,179.12491
-614.8945,-624.465,64.69246
-930.7771,-327.10913,-32.89949
-1182.9198,-126.127815,-308.1877
-2829.8213,1807.3151,425.25363
-3003.1582,3939.5361,608.0864
-1050.0842,2283.3462,131.26639
-348.28714,1253.425,188.79588
335.92667,635.43585,77.90733
466.31485,389.67154,61.183228
712.6717,382.5353,83.8783
607.3208,425.06955,143.7462
608.863,695.43933,141.80598
361.81284,626.9706,34.241714
297.4784,1997.4929,-106.56352
-1117.9241,4148.34,-328.0469
-1604.9049,3174.2466,-281.43753
-1367.4808,1709.8824,-86.91517
-1177.1991,882.04095,-21.591297
-1124.7034,-30.282324,-15.082149
-881.04126,-457.3843,-105.91237
-756.46295,-650.5446,-21.969828
-671.8742,-471.4755,-45.59789
-839.07135,-379.8067,24.6619
-888.84326,-96.76377,-84.547646
-1849.6494,500.91818,-9.815256
-3599.1667,4078.6072,533.50824
-1754.0044,3582.5,347.06805
-358.7345,1451.4706,121.98866
350.32697,927.33466,83.53915
620.024,329.26035,38.294655
692.5623,510.14355,59.81335
639.1615,282.51746,85.0743
622.30237,428.29443,153.57309
365.2532,539.11914,68.22745
455.63788,1055.458,-49.410305
-692.12885,3811.0657,-290.09503
-2111.0342,4097.6025,-337.4218
-1450.6407,1918.291,-212.17017
-1259.1598,1267.7172,-88.556435
-823.3794,174.7797,-30.087776
-761.9111,-156.0936,-40.685062
-572.31683,-784.90137,-18.890574
-775.2799,-675.3448,-11.2644615
-759.77594,-519.916,-51.67397
-1071.145,-12.85537,126.996414
-1105.7366,-101.443794,-61.737026
-2919.1772,2138.6077,254.74998
-2970.3086,4509.2583,591.10004
-917.621,2443.9426,99.961975
-107.865395,1246.0425,9.122355
533.54407,623.2944,-104.734116
727.9215,222.71877,-99.97032
772.88873,363.80573,-148.58789
660.15674,449.80707,-38.182323
514.472,682.464,-0.43148428
289.77475,860.06085,-51.64382
-111.689,2439.2402,-223.13423
-1473.0825,3923.6196,-156.21204
-1805.5175,3022.16,-5.2248306
-1583.6779,1673.396,90.23036
-1332.6633,742.3208,46.370438
-1159.6821,-173.2288,-67.21384
-842.0162,-441.46274,-207.03886
-712.9385,-530.9722,-170.57005
-710.0429,-421.5326,-128.0001
-781.0074,-377.1595,14.577941
-847.03705,-28.059803,-10.900055
-1533.1163,419.75116,17.494621
-3274.5605,3897.6772,522.90393
-1800.4218,3807.1675,319.0785
-349.2841,1574.8947,100.64911
265.19922,1107.6844,144.39882
579.78186,395.01938,70.7433
798.48157,335.98648,-8.703154
629.791,387.57642,-5.0687923
629.701,612.11816,97.223335
478.98044,644.7495,6.008071
411.08148,1781.0317,-37.271023
-1476.2456,4121.563,-272.87485
-2185.6401,3074.6204,-229.1966
-1441.3708,1700.1577,-60.329082
-1185.2056,1187.9995,-137.19173
-851.0633,125.7547,-156.48874
-763.263,-105.32061,-173.75203
-718.4151,-635.5608,-154.17181
-670.57935,-694.3002,-272.8645
-903.9711,-469.68323,-77.09265
-908.91925,-152.79054,105.481125
-1578.9778,325.5517,225.6736
-3083.409,3705.0896,727.003
-1679.3665,3853.2986,496.70773
-388.74713,1524.5459,194.88824
346.02304,1070.3585,76.01148
640.0503,515.9417,88.99038
767.41095,422.29727,9.84424
607.33,347.93246,21.11008
527.1286,518.5265,52.52284
334.1663,603.30176,79.175705
88.73269,1884.3525,-23.050777
-1002.43134,3770.1982,-201.15231
-1752.6608,3549.4558,-99.245094
-1495.9069,2161.494,-109.28201
-1250.396,898.99854,12.713609
-954.9717,65.3452,-45.27435
-808.627,-162.3437,-61.836765
-764.4802,-613.8803,-148.51036
-726.3166,-493.93182,-149.20448
-819.8258,-435.02988,-62.495365
-1013.7784,-38.15346,95.71335
-1288.6158,-85.481575,-9.045919
-3354.9622,3322.1667,568.637
-2170.8398,4599.9272,447.85822
-358.84763,1852.6405,108.35975
289.471,1313.607,21.433022
752.171,386.1861,-62.712166
823.49976,344.79544,-78.628586
689.2788,317.28455,-104.76441
581.47876,548.8084,28.541954
443.61722,595.6186,-5.492412
333.41168,1300.293,-81.760704
-426.95428,3445.6396,-242.15613
-1586.9456,3966.4094,-230.60512
-1591.6154,2430.4238,-120.739914
-1304.6454,1207.8792,-63.56727
-988.4344,57.26682,-32.60393
-804.7315,-232.222,-35.89302
-675.56024,-615.8665,1.9085046
-813.2034,-402.1552,73.43068
-771.75903,-481.38486,75.44088
-1045.1624,-95.26218,3.9021456
-1280.2332,0.2873282,-124.1874
-3273.646,2524.2424,477.37372
-2705.7751,4510.8857,435.07526
-670.14813,1919.7286,81.89821
57.40496,1214.9751,22.303616
613.3612,543.5268,10.404965
650.32526,349.15457,8.39896
717.7163,284.54883,50.81259
544.13574,464.35477,163.60309
479.9587,619.24084,176.41373
119.060646,1201.0765,120.06295
-120.69769,2821.7517,-58.256863
-1131.4423,3971.4026,-114.06811
-1388.3765,2883.4976,-129.59753
-1116.9486,1517.2803,-44.663513
-853.20416,646.25824,-10.715692
-986.0884,-38.50482,-66.52961
-766.1766,-407.74094,-85.468666
-879.00275,-565.7359,-65.67855
-772.22534,-573.8171,-105.12035
-1085.9001,-256.91937,3.675068
-855.6451,-25.096592,-41.88181
-2531.267,1323.5449,211.53609
-3111.2205,5282.5293,407.3821
-951.68866,2873.684,254.76865
-110.755516,1255.5736,110.293175
606.8326,689.2877,-0.87578464
688.8573,296.88046,13.834575
738.57,450.0737,22.740808
491.06802,435.68234,139.0496
427.62436,605.1029,245.00087
283.4385,839.4468,52.84354
178.67278,2301.557,-83.82933
-754.78925,4027.4414,-204.51558
-1317.6162,3360.774,-276.25726
-1215.5884,1786.583,-278.7607
-1041.0906,738.2045,-244.13332
-1021.7987,31.294657,-183.71336
-842.5792,-406.86517,-174.15906
-930.169,-683.54987,-35.335632
-812.7059,-449.73,-9.368241
-978.3672,-351.5274,151.00987
-925.4602,-77.405136,49.687206
-2159.0068,751.1755,92.47776
-3782.4885,4959.7554,345.97467
-1398.8054,3640.1836,189.27295
-105.76717,1315.9387,8.119452
552.83356,931.1422,-111.79697
640.2916,218.61494,-74.21036
672.94507,504.12985,-70.1211
570.5453,361.32507,-65.12405
631.6519,484.38818,-36.00444
407.06082,532.88586,-20.988716
381.5607,1526.1542,-95.729065
-450.81137,3563.84,-366.5048
-1638.8895,3967.892,-439.25366
-1455.5889,2056.2986,-103.65617
-1190.1951,1155.4944,-45.897392
-943.5087,-8.182832,-16.841496
-718.62213,-329.28003,-129.34357
-766.0491,-704.9014,-62.5018
-762.2148,-445.30365,-60.682747
-902.9181,-456.3666,-33.10593
-928.105,85.31652,-129.66415
-1700.8362,236.41621,48.5848
-3447.222,3935.5383,325.87872
-1699.3928,4038.1296,136.26842
-392.59192,1490.0426,58.651825
346.03238,1057.3661,-78.87691
668.6047,401.0684,-88.86364
734.7795,614.62994,-56.314236
723.20056,424.41055,-22.297108
620.1883,550.1151,54.456608
426.7889,599.7263,-15.688727
430.18726,1112.8112,-89.09434
-188.65523,3442.5735,-305.0986
-1498.4167,4167.15,-502.4271
-1443.4355,2464.2754,-221.96977
-1324.8921,1334.7002,-137.22726
-1133.85,322.71454,-59.180504
-1056.3665,-325.86496,-197.76817
-961.118,-774.6844,-217.91061
-815.3095,-575.6321,-113.53861
-878.57623,-464.08755,-24.638407
-950.15784,-106.75178,35.65507
-1411.0178,131.69211,-5.929203
-3129.9846,2964.4639,337.3841
-2287.4504,4151.4175,360.37912
-756.89453,1998.7625,87.854004
95.955086,1372.3972,29.990948
509.48456,707.0984,19.455591
758.9589,633.7302,6.881251
774.98505,417.09464,-1.5501939
625.14026,711.5301,69.43377
340.36694,926.22736,48.69182
-2.137397,2032.8931,-90.58629
-815.25287,2979.2256,-158.3383
-1680.4623,3272.597,-31.230621
-2015.8864,1979.075,-169.49174
-1344.6539,548.5174,2.428645
-1051.416,12.597654,209.48631
-834.8442,-382.23135,245.72766
-723.2262,-841.01215,148.47543
-796.4644,-692.95825,-15.85614
-1037.5521,-213.3527,-71.23306
-1024.7085,-18.33807,-42.887394
-2168.97,1006.74316,77.27746
-2905.8188,2917.4324,227.65659
-1560.6917,2768.6968,171.6297
-813.63763,1898.9613,77.96881
-71.428955,1328.1116,44.900246
373.18256,693.8178,56.324936
693.10583,679.02747,84.39354
711.1805,667.4854,124.10664
570.32526,565.0866,208.68437
333.98828,712.34216,159.47243
304.52698,1040.5718,138.80437
-541.15045,3008.505,-17.791477
-1914.6713,3850.5027,-188.17201
-1837.0443,2311.67,-119.49752
-1598.604,1509.8947,-93.43002
-1137.4252,462.4226,-119.25413
-1013.15533,-79.61107,-183.55711
-745.6526,-381.757,-170.2375
-821.77435,-424.9298,-130.66002
-613.06476,-470.92264,-149.64386
-979.1643,-441.48224,11.263076
-880.36414,-264.07245,-35.690834
-2411.0813,1043.9202,137.52167
-3407.1812,4515.078,401.20602
-1363.5354,3227.174,69.89355
7.9719515,1606.3617,-82.83609
661.05695,862.9531,-61.376427
789.9986,340.01196,6.7499084
813.88257,216.11096,-29.508162
540.307,364.89752,52.47176
413.66122,617.3164,176.42285
136.21246,1154.0038,99.8195
-168.54079,2617.9954,32.144768
-1401.7711,4157.1895,-256.3204
-1752.5756,3335.1614,-509.44376
-1428.6853,1592.0786,-358.124
-1017.19904,473.85574,-239.86417
-819.50366,-469.03653,-99.408325
-671.9846,-811.3651,-51.992836
-844.747,-663.1479,-25.584734
-950.8673,-365.66046,-139.40758
-1213.8137,-229.62231,-170.26317
-1397.6852,11.503223,-192.26996
-2592.4858,1701.3646,-20.796576
-3069.923,4210.227,413.75812
