# PAMAP2 dataset (wrist-mounted sensor)

acc_x[mg],acc_y[mg],acc_z[mg]
343.6625,-183.23978,-46.78157
1522.6588,1299.8855,-792.55914
-2773.3018,8810.042,-3091.9424
-1704.4414,2762.0298,-1011.90924
125.25638,473.4782,-466.26508
-1689.5236,121.70031,-281.08875
-875.4661,-431.7879,28.613823
-1831.6962,-832.67816,-555.80237
-1048.8544,-1326.9524,-224.24115
-1985.4628,-420.62656,-416.13306
-1302.0482,-599.753,-383.3422
-3638.8604,3406.284,-1346.921
-2965.33,7406.9336,-970.4007
204.20572,2255.7642,-66.52076
721.5171,1051.9403,-435.68176
1344.1084,-3.779135,-143.32253
1177.076,-5.5179763,84.930695
1617.081,88.12729,12.101923
1229.3546,-251.32138,325.17053
703.5657,310.62216,9.323428
953.462,-472.8147,245.18298
368.30768,5820.0596,-2273.9368
-4010.323,7871.5596,-2697.3254
-98.99523,153.4948,-179.3205
-1464.8606,1307.249,-728.50476
-1224.809,-1282.3192,-7.5431657
-1418.6407,-297.92722,-623.39465
-1182.0823,-2433.9448,-563.7774
-1808.467,-544.5988,-353.3821
-1808.7013,-1833.7507,-447.36914
-4349.012,3315.2183,-1168.4917
-4490.2783,7850.5547,-1104.5496
-457.94037,3090.0806,-931.2243
1547.0677,1298.9824,-782.9542
1796.6292,712.1009,-289.1291
1635.5651,-154.7009,313.43005
1166.1627,482.9198,116.46934
1146.2673,-269.75906,510.96564
501.30627,662.2216,-103.46505
1332.4825,-457.46826,325.26544
-546.85846,6462.603,-2522.0828
-4092.4895,6913.7456,-2650.195
54.30602,412.73553,-542.9618
-1134.6152,654.74286,-936.5873
-1056.0316,-770.4946,-144.17003
-1272.783,-520.05835,-457.20084
-1298.6763,-1082.9563,-556.3722
-1509.0094,-882.1931,-649.814
-1580.8959,-305.54837,-279.6587
-1944.1888,256.95267,-602.3508
-3690.041,6476.0337,-992.60785
-1386.0099,5837.9043,-115.635056
840.7329,1231.439,-242.00438
1035.2515,679.18567,-54.6977
1267.801,-307.79428,155.12364
1467.9843,-151.77266,159.92252
1273.0106,-280.46786,305.7097
1034.6299,-86.68275,209.3808
534.2359,-189.80048,196.16614
2016.3257,1619.4873,-525.04065
-2848.1216,9671.964,-3784.152
-1693.9105,2691.594,-656.0402
125.402794,449.61667,-677.20306
-2283.9897,-150.28555,-49.38558
-914.5908,-1511.5267,-341.19962
-1510.7657,-1801.1394,-588.67883
-1262.3492,-974.3887,-82.36682
-1912.5529,-508.2714,-216.14929
-2674.563,1796.1014,-1345.3096
-4093.7942,8176.8003,-663.39954
13.545497,3453.3618,-621.5439
1644.7178,919.7647,-913.231
1168.124,243.91481,-28.844206
890.0261,-289.95868,291.39926
1542.8359,241.5192,250.68445
1286.2074,-438.50726,442.21973
733.3115,240.48325,-58.10374
1127.9979,-579.97186,344.4788
188.53978,6406.2476,-1949.0284
-3424.7815,7040.1484,-2226.8784
675.81024,-100.93995,-202.8221
-1216.5228,1171.7806,-792.2999
-1138.6777,-1161.0925,-106.69773
-1747.8577,-580.2129,-1028.958
-1358.7424,-2178.7969,-561.1623
-1902.1393,-271.62338,-289.36148
-1750.1721,-1056.7692,-520.94867
-4463.2183,6001.8413,-951.45764
-2187.9695,6768.8203,-1206.4993
868.17395,1721.4618,-55.861683
1553.0925,509.691,76.4766
1352.2528,-54.83418,153.8322
1563.2207,-78.32242,390.5576
915.4684,68.05412,431.87164
1232.6151,-272.23764,294.98828
528.5058,13.601007,95.23159
1927.6608,340.4966,-470.8542
-1754.0298,9576.768,-3986.6472
-2821.6758,4180.479,-1963.2479
283.31592,-216.6587,-669.74884
-2168.0647,365.45068,-445.1066
-1050.3615,-765.692,-12.414842
-1676.8258,-1364.0771,-382.36755
-1436.3721,-1751.4738,-630.9521
-2434.0542,-796.62756,-243.11185
-3116.4097,693.5594,-1320.1936
-4093.1045,8508.777,-1892.7909
-115.31398,4818.0864,-718.00806
953.0718,1214.5204,-389.9794
1324.68,324.18454,-81.47349
727.73804,9.428511,33.485847
1502.2251,-85.422646,-81.93012
1283.0581,-186.51308,194.63176
1398.9916,-38.30798,46.647408
543.35205,-12.612847,141.51608
1663.192,2451.3918,-1007.95337
-2883.621,9573.801,-3092.9143
-1376.6061,1765.4482,-708.6095
-337.22595,868.10394,-907.15765
-1674.4928,-442.227,-388.62857
-1513.3488,-885.20746,-569.49475
-1598.2609,-1906.6868,-672.7865
-1782.09,-936.54065,-492.2314
-2046.9943,-949.18256,-337.27777
-3146.926,1722.4553,-1570.2844
-4080.0566,8276.052,-1563.2316
55.20996,4179.714,-852.01117
901.81757,634.1217,-220.81839
1183.7052,345.3904,-110.678535
1262.1183,-267.1688,231.07994
1359.5029,360.7942,223.29958
1337.6191,-490.55585,542.2586
652.1184,566.87506,-51.930923
1254.2687,-830.9249,360.61688
-600.57385,5315.6616,-2458.8274
-5329.72,7441.9487,-3177.5596
660.7725,81.861565,-371.77563
-1541.0215,1099.7787,-640.3521
-1010.48126,-883.8521,402.03632
-1327.1942,-373.61774,-749.55133
-1321.1029,-2311.0005,-484.73602
-1689.4231,-1153.5719,-401.04352
-1725.2362,-1027.7294,-244.5066
-2886.1172,2826.9597,-1004.2848
-2494.3394,7495.7876,-920.6619
121.019394,3233.4883,8.146964
800.79114,890.4725,-108.46604
1034.6649,562.66974,-183.31285
1091.017,-390.25424,235.94308
1177.3716,-42.851063,168.07362
1230.4426,-261.62573,508.89743
655.2556,307.3417,37.145767
1156.7205,-347.8267,345.66196
326.7732,6255.1533,-2720.6284
-3296.1248,7125.0127,-2691.5894
-261.6816,48.926525,-566.69727
-1252.5125,1003.17334,-985.808
-1450.7434,-1265.0343,-59.632782
-1762.7454,-719.1935,-647.1879
-1457.5435,-2091.8198,-438.19925
-1950.3497,-568.97205,-212.46617
-2106.56,-979.87946,-184.37674
-3998.4604,2370.8235,-1653.9783
-5451.314,7314.7217,-1298.8611
-714.23126,3577.1287,-673.43274
1582.7521,847.4773,-949.2656
1089.2705,598.46063,-182.04659
1468.8043,-190.41461,137.81898
1661.7357,374.01465,88.6195
1581.7416,-290.7115,221.77058
700.3003,527.3809,-119.08163
1512.1516,-250.36212,-126.05545
-1200.5612,7866.057,-3019.6348
-4517.2935,6714.0156,-2404.2563
-336.11798,289.6095,-490.63416
-2436.551,876.4706,-712.78766
-1152.1942,-1272.7119,-80.10041
-2145.3513,-1217.1914,-846.80237
-1472.1107,-2360.3943,-320.48236
-2310.7043,-604.4355,-249.9102
-2211.217,-274.19424,-532.71954
-3758.0632,4754.895,-2050.0737
-2818.3591,6824.8516,-896.7231
28.046244,2730.9507,-545.56934
1085.8602,584.2375,-436.807
885.94977,336.17813,-47.51239
1515.8923,-96.80983,-18.196434
1431.4454,257.22864,-9.902451
1740.4722,-386.9242,206.46098
298.63144,304.64618,85.97639
1939.1472,81.35055,-58.52631
-1992.9375,8830.988,-3007.4658
-3391.5269,5126.941,-1745.556
195.97247,-69.575554,-450.30612
-2175.8838,608.86273,-627.8201
-921.62573,-997.853,-24.452133
-1951.3293,-637.4867,-495.82748
-998.87305,-2131.0928,-219.77628
-1950.431,-167.45584,-278.17822
-1458.1173,-246.6153,-63.837532
-2742.89,5047.685,-1445.4542
-1629.5638,6784.136,-1259.4241
677.08136,1902.3534,-83.73919
627.597,487.7,-526.6044
1089.9315,-33.709427,-160.36394
1113.7161,-604.73224,75.91609
1343.1599,195.91095,341.2829
1633.8124,-354.74863,584.4184
754.63165,555.8616,281.04236
1368.7925,-582.47797,44.91222
-435.7464,7326.2725,-2800.9192
-3706.8152,6553.8994,-2181.2107
283.1622,-80.7167,-303.7858
-1749.7277,928.5935,-674.1707
-940.3161,-1039.9996,122.45756
-1555.8077,-456.5398,-596.3486
-1204.195,-2212.8965,-356.11478
-1907.251,-370.08337,-141.19542
-1928.1896,-1083.9271,-217.37558
-4138.855,4441.2935,-1446.3722
-2645.9907,7698.5693,-655.66235
269.9925,2330.128,100.975975
934.6775,814.78613,-289.65143
1022.1671,220.66429,-62.104458
1372.6805,-467.05368,197.67307
1129.8899,-63.94878,155.48813
1288.4437,-309.3637,290.3553
446.08267,145.03911,-10.708901
1811.302,43.133774,130.63512
-1360.0988,8191.5923,-3137.6863
-3261.3115,5268.805,-1594.5458
545.1626,-171.38411,-248.96967
-1917.249,834.2863,-526.2775
-856.381,-1383.8657,-54.442135
-1742.889,-734.51355,-632.0365
-1158.6534,-2139.1353,-172.9364
-2413.2534,-167.2784,-371.89325
-2187.851,-1340.7218,-615.189
-4840.85,5165.8438,-2269.6716
-3191.656,7207.0493,-1337.2137
201.66602,2100.2388,-577.2228
1948.4623,874.96075,-389.7181
1417.7054,297.33008,525.8396
1785.551,105.56104,564.73413
980.1785,262.83997,584.035
1284.0245,31.448448,191.02744
179.50813,199.2341,103.94419
1468.2782,1094.882,-495.9955
-3528.6968,10021.587,-3618.074
-2983.4531,3299.4468,-1833.2389
-83.84335,37.45233,-576.54517
-1698.525,-10.594628,-473.21017
-1152.4755,-1033.523,-8.838423
-1705.4042,-2000.8954,-718.746
-1926.921,-2731.962,-322.05185
-3206.417,-1085.5167,-593.69727
-4044.1357,1366.2178,-1704.6334
-4839.8433,9151.972,-1846.9788
-379.9773,3782.9902,-734.53595
483.4686,733.8298,-87.45249
1181.1007,247.42062,186.51445
1074.1526,35.486507,264.5671
1281.3694,-208.53001,433.34082
768.58655,-108.10135,229.05463
979.75116,-71.98105,286.0337
287.94962,-146.05211,-86.419914
1457.6504,1590.5406,55.4194
-4315.8154,8511.108,-2311.6704
-2141.702,3794.287,-475.61215
-333.23645,142.60529,-19.662043
-1384.1222,712.419,-435.62314
-1430.6885,-1119.9227,-166.89021
-1688.1244,-1742.4244,-1138.9232
-1332.9214,-2900.2268,-778.6725
-2162.5642,-944.33685,-45.63008
-2392.1577,751.3237,-889.2699
-4765.565,8186.9517,-943.411
-1045.5554,5331.631,181.52487
830.6391,1009.9349,-530.945
865.29364,665.3152,-218.72295
895.40924,-340.1089,-217.4092
1374.1204,-292.21506,-129.79323
1597.651,-111.95811,-74.857506
1395.0457,-180.24683,458.2367
607.12286,116.65222,147.65457
1817.4928,929.97614,-74.583954
-2167.1965,9149.983,-3180.9587
-2424.0095,3844.9797,-921.6807
117.34669,316.498,-776.543
-1771.6176,295.203,-647.89435
-1501.5907,-1134.7858,-419.4438
-1829.2002,-1564.3616,-898.44354
-1494.5255,-1393.6088,-536.93
-2118.984,-774.11835,-83.431366
-2950.1248,2384.267,-931.282
-4113.193,8716.287,-520.3184
612.4404,3110.6262,-225.08133
778.9535,578.1553,-295.82162
1160.1461,135.10811,157.88014
778.712,-408.9356,116.48697
1514.6276,-296.39957,153.62422
1275.3385,-513.6826,458.20724
992.2632,270.00238,185.55978
681.1329,-414.4117,823.5341
1517.0925,4290.793,-1480.7026
-3812.2478,9579.8,-3171.0046
-706.3394,517.2847,-357.71884
-1195.9583,1265.4415,-812.0828
-2071.9897,-983.7237,11.965945
-1595.3005,-1105.2017,-915.44025
-1170.1774,-2539.0837,-610.17316
-2084.3274,-558.74365,-203.79012
-2126.1,-979.2422,-279.31766
-4228.6675,5215.043,-1007.8462
-2966.6033,7532.9287,260.123
792.2717,2172.8477,-355.54044
1210.0673,829.80035,-232.96693
960.9003,-34.293285,109.95544
1218.9106,-105.614944,112.44593
1372.5289,-94.30004,56.068516
1501.5387,-243.22855,267.50403
538.89386,34.836365,-183.79219
1831.0833,717.5924,30.238602
-2364.959,9180.509,-2114.61
-2307.5789,3787.3484,-807.8093
226.53587,393.3987,-301.06323
-1689.5448,460.35718,-442.59573
-1138.9072,-1278.9305,-267.35825
-1660.4703,-1476.4014,-800.358
-1460.0457,-1548.2778,-374.94186
-2125.6914,-745.73285,-300.0136
-2550.662,353.90582,-897.07434
-4608.1997,7055.46,-1022.29803
-1473.7429,5143.222,156.82108
740.3775,1341.9268,-467.00757
1403.1824,589.75366,-69.50275
1340.6372,-41.20493,336.68686
1402.109,-63.878384,388.5468
1185.7102,-18.302065,395.69858
996.7839,39.19132,218.59447
602.15485,-137.12413,305.34555
970.09717,2903.5127,-89.67094
-2945.187,9200.174,-1853.809
-1577.8175,2281.815,-439.77573
-863.08075,1027.7268,-353.5904
-1309.3314,33.470352,-154.45511
-1342.6036,-368.3518,-829.14966
-2071.5786,-1689.8097,-1260.091
-1484.2693,-1085.3214,-707.226
-1477.8895,-352.95166,-120.894554
-1556.4554,118.45622,-223.0423
-3820.4377,5790.443,-7.2332788
-1810.6326,6495.0283,221.80821
576.44073,1136.1302,374.80933
1019.0321,941.6829,-96.645836
1098.3716,-365.6287,160.29533
1239.2738,48.435516,73.231544
1388.8757,-455.10272,323.76624
891.0422,518.9185,201.48946
1015.3751,-769.9543,290.95895
470.725,5452.925,-1310.363
-2686.784,8365.415,-1598.3955
-295.74756,632.40924,-405.45145
-1016.0185,947.76965,-769.67334
-943.4921,-798.70844,-730.6579
-1651.3123,-507.13892,-1239.4492
-1855.2183,-1590.7173,-1004.82544
-1783.7261,-523.20795,-448.43256
-1838.8121,-184.74132,-123.10544
-3291.3677,1679.5187,-57.27565
-4206.813,7534.221,297.51254
-404.11407,3871.224,278.58475
930.0792,567.925,-18.777262
1274.5381,728.05994,-41.85114
1414.9452,-276.90002,-171.90854
1715.9758,276.9395,-301.43744
1508.506,32.153862,146.84181
578.6213,407.9968,9.055475
1145.1349,482.4588,-349.92883
-1508.0061,7641.915,-2091.494
-2632.4275,5305.468,-962.7496
-213.8483,1028.5626,-711.2366
-1654.3704,686.6062,-449.00626
-979.38605,-456.77762,-268.14688
-2101.334,6.3870096,-462.0204
-1800.8594,-1349.0559,-676.0917
-1682.8574,-826.1752,-380.25055
-1429.4707,-309.29605,-29.175352
-2111.911,1774.2578,-132.78102
-2570.0925,6105.1406,-470.52484
-524.3918,4676.0073,-23.133562
622.75574,755.5257,-2.7644262
720.6409,701.8038,-364.0441
1295.6417,-382.98416,-121.27142
1276.7228,237.04337,-116.524345
1613.7251,-372.8623,168.93948
613.3732,99.35139,-105.52501
1516.3931,288.15546,-59.126152
-739.1951,6579.625,-1656.3457
-2341.7148,5194.719,-765.7227
22.857246,718.26544,-84.13871
-944.80023,740.7494,-492.3123
-980.8968,-288.69693,-19.52806
-1623.1025,-535.425,-473.0595
-1457.4125,-1091.7972,-315.82962
-1360.9613,-384.97443,-127.379326
-1168.721,-516.69385,-83.41995
-1846.5038,862.2049,-692.1367
-3052.8147,5792.651,-42.36554
-1203.3573,4380.2603,504.77554
651.96533,1024.9636,-27.31551
911.4115,964.83185,-437.64783
1328.5979,-29.37895,100.80613
1457.1086,146.14343,121.2629
1594.3153,-90.35997,429.12396
609.27057,294.6183,14.206248
1480.7241,-50.58159,199.51021
-770.13043,6211.6973,-2119.5222
-3321.2886,6505.0474,-1741.8242
-188.15114,604.7259,64.25049
-1094.7833,1424.0659,-600.2331
-1119.6481,-394.74323,-78.36801
-1824.508,-448.1154,-560.4531
-1705.3932,-1963.0273,-1237.8165
-1661.6323,-1337.6722,-789.07513
-1825.4583,-1175.6893,156.07007
-3185.818,2429.6252,-592.6236
-4069.7598,6622.583,-925.2043
-1474.6058,4500.606,-306.11526
847.4961,1392.5626,-156.20033
939.8049,755.38763,-399.2732
1722.8315,-27.924528,472.84967
1289.5791,-60.97228,223.84668
1549.3595,-240.7885,696.6502
273.40466,482.5583,140.76534
1523.5413,-227.87964,200.93156
-933.94556,6734.751,-2790.0757
-3469.329,6533.528,-2760.4744
-193.88255,277.86252,-143.16776
-1635.4409,897.87744,-553.3337
-1193.026,-894.9135,272.62494
-1374.6642,-1070.1901,-419.18353
-1068.111,-1281.4899,-481.08035
-1455.8647,-748.51776,-489.5947
-1568.3046,-517.31335,-775.1196
-2308.5293,370.83682,-1226.1003
-4323.4614,6447.355,-2666.0068
-1430.5417,5675.023,-731.82544
368.36905,1369.4343,156.19586
1192.0065,1125.7777,-546.55566
1670.0343,-372.24133,407.3348
1629.3817,66.84765,-30.499403
1720.0885,-412.36908,669.74475
1261.049,403.31827,-11.41561
1024.9238,-660.8023,633.6245
1253.9469,4151.2305,-2713.594
-4603.5713,9084.127,-4094.7693
-1108.3452,1345.287,-251.82141
-1153.1617,1068.3551,-996.27576
-2007.9342,-427.99084,-155.1399
-1385.8221,-1033.464,-331.43002
-1405.9249,-1639.0027,-510.19696
-1337.8267,-1080.819,-251.17554
-1638.2118,-782.3543,-319.91006
-2089.7375,1445.0121,-586.0073
-3780.843,6376.437,-1700.3011
-1886.1135,5974.1904,-638.41473
980.9792,1495.1562,-153.51636
1279.6011,546.1064,-655.7143
1196.4447,46.138126,-36.782333
1530.1531,-566.2597,-21.382492
1123.8425,-290.45206,556.3589
583.20416,41.708893,236.64024
834.46265,-499.69925,142.58205
1605.8613,2136.3362,-584.3495
-3226.2874,8117.467,-3161.63
-1006.9862,2416.1626,-108.35686
151.15698,384.14572,-147.08154
-1422.4263,654.9495,-144.35318
-1153.1722,-1256.6207,-223.76321
-1288.2234,-1451.0048,-839.112
-1528.6382,-714.56134,-98.754005
-1807.5453,-542.6064,-54.475323
-1895.7039,333.24698,-455.45218
-4148.792,6602.083,-874.51917
-1406.5107,5901.6646,120.893745
1097.8318,1138.5214,-343.3361
846.0557,313.99796,-19.048859
992.1382,-145.8306,-44.701397
1353.0494,-583.7775,173.71062
1346.9991,-173.02206,98.88003
1158.9377,-329.5754,488.02838
449.55817,21.755465,-109.50096
2109.5886,398.237,429.29672
-772.7125,7938.6567,-2645.047
-2266.9958,5488.9985,-1368.6189
495.1408,452.8185,-529.11053
-1425.6637,341.31787,-636.1613
-834.6552,-727.056,-219.61354
-1633.6973,-980.85077,-1008.41516
-1270.8502,-1259.113,-1189.1587
-1970.7867,-303.50827,-125.91019
-2102.9963,916.3472,-223.37317
-3153.6658,6274.761,-790.9594
-1320.9803,5657.811,610.49054
947.3405,1856.6328,-177.87439
1086.1759,918.15314,-28.54085
1064.6014,163.56155,-170.15564
993.756,-288.43158,107.248886
1314.4907,-20.742584,-172.62294
1204.1431,-270.4407,390.15085
634.2801,182.90033,-71.286385
1465.3118,983.1449,551.08704
-2371.4233,8323.11,-1699.2639
-2229.98,4775.381,-550.05695
-173.9773,-55.58959,88.38022
-1240.4166,881.0668,-646.4631
-1357.7693,-1449.6958,-336.37
-1604.835,-849.2291,-1085.58
-1059.0322,-1728.1827,-490.3375
-1868.9282,-537.0234,-154.2862
-2035.5605,-498.0717,-659.1592
-4407.8154,6258.3706,-1221.2462
-1717.3143,6455.061,196.84909
439.44183,1357.1149,-288.4217
1284.2803,880.7561,-333.70917
1038.6199,-103.24055,-64.98561
1359.8083,-293.73553,258.20218
1238.9832,20.590305,221.4514
1122.6094,-127.72646,518.5709
440.03824,-38.51457,-24.306335
1705.0774,847.33496,60.119972
-2173.2114,8669.974,-3337.8503
-2451.6667,4416.043,-942.89026
234.08356,291.69424,-402.34537
-1768.8937,494.46875,-780.3924
-1094.1442,-1720.1238,-276.24426
-1711.1525,-1363.0168,-865.4259
-1350.2406,-2113.2368,-411.6233
-2296.9167,-538.743,-103.75916
-2903.0889,604.51056,-1036.8967
-5244.791,7144.562,-1358.8011
-1366.0858,5325.5986,-215.94566
928.506,1024.8566,-461.01614
865.29584,680.1306,-102.45243
992.04913,-155.59537,-50.98756
1272.2494,-320.35452,186.93686
1103.8167,-234.78163,125.451385
1256.5056,-179.35373,257.70734
582.9803,14.29873,239.48735
1339.313,1266.944,-127.34519
-3896.3562,8706.753,-3208.7117
-1656.8683,2945.545,-842.96106
246.4784,221.55077,-479.00372
-1660.0931,302.62738,-49.724995
-783.94354,-1177.5652,-10.848589
-1452.2185,-1743.3846,-978.3929
-1629.8563,-1997.5671,-616.52106
-2452.674,-893.608,8.81914
-3170.4048,740.2162,-1397.4067
-5232.087,7745.935,-1568.0
-1046.591,4628.856,50.93157
653.57745,1042.8336,-499.76273
1117.4518,637.54443,-124.94681
758.5694,-135.86499,-47.47652
1551.577,-337.35684,154.36029
1341.893,-64.62815,195.24672
1324.6475,28.71095,478.76105
949.62524,102.21324,191.2377
1228.413,2206.5068,-210.25514
-2549.3916,9532.053,-2984.4756
-1826.1212,2399.3896,-803.7207
-636.76337,665.22235,-944.8082
-1429.3207,-86.20061,-353.2666
-1404.3975,-496.25027,-416.20786
-2012.1837,-1980.8975,-1250.953
-1878.5958,-1772.6454,-1388.9674
-2672.2478,-843.2141,283.79733
-3615.4321,3174.1567,-1961.1011
-3810.2092,8443.007,-336.71298
28.585777,3153.8442,105.41944
784.7114,934.40607,-314.97964
740.13605,406.2167,-47.414143
1210.5197,-529.17737,-3.9525416
1765.1842,144.38748,-1.5306122
1624.7622,-324.95685,659.66797
794.1515,382.8852,197.24803
1466.1013,-460.72302,480.41193
-403.2942,5951.033,-1537.9016
-3845.704,7706.9556,-2146.812
113.36875,-2.172853,219.09926
-1124.7059,1372.429,-798.80524
-1230.5814,-1027.0876,177.72258
-1801.0719,-335.47684,-707.20026
-1327.1528,-2389.1384,-427.29062
-1906.2421,-1541.8878,-554.7494
-2223.6533,-1600.6,-286.3441
-4009.4272,5248.1353,-2326.4712
-3332.3076,7225.0127,-463.6788
33.378353,2354.2415,-427.26828
664.877,802.87665,-301.61588
952.6519,47.64144,-98.104385
1493.1047,-383.37296,151.59915
1616.9161,307.57047,231.59128
1542.8784,-179.52995,909.9713
514.31055,474.86145,130.91083
1472.6555,-481.26242,482.7592
-1236.4993,6735.659,-1657.6227
-4082.5127,6797.24,-1683.1924
376.54538,203.83612,-215.6525
-1313.8503,770.66156,-481.5487
-565.27106,-1039.564,-210.9325
-1957.1732,-1040.9424,-981.9876
-1136.7542,-2676.488,-620.7277
-2158.7427,-880.67645,-457.37036
-1624.9294,-473.88004,-384.56113
-4105.31,5592.6396,-831.69745
-1973.4258,6037.866,-2.061781
81.9435,1719.1371,121.32295
568.4253,562.962,384.9041
756.5747,330.9585,272.30493
1178.7849,162.32515,545.1941
1062.6464,100.73915,295.45193
1781.8732,-333.7406,306.73486
655.5555,268.06546,-31.354189
1812.8024,691.5429,306.45087
-2033.9768,9036.555,-1971.4214
-3417.2769,4418.808,-766.29694
-594.1779,230.35573,95.42825
-2064.7847,932.4414,-346.4302
-1376.9291,-1755.7695,-450.6693
-1446.9498,-2047.3645,-1056.517
-1640.2114,-1820.4294,113.60327
-1794.2238,-13.69495,-124.538086
-2320.5251,403.70215,-737.384
-5201.819,7643.2935,-406.06274
-1037.2715,4065.239,325.93558
761.1864,868.03516,53.62055
1197.5338,746.14514,-48.298935
1685.2716,-76.45816,562.9186
1586.0348,-41.46853,427.23123
1497.313,-270.31198,425.80356
509.7478,257.94574,-24.049597
1255.1077,-39.42517,229.09149
-999.8506,6828.0894,-2004.6759
-3533.8433,6424.41,-2206.0256
-480.19934,777.356,-56.944935
-1648.0385,1066.6345,-767.7409
-1431.4957,-172.40254,-148.54832
-2399.135,-536.7289,-764.23236
-1644.9359,-2022.7908,-563.7575
-1503.8779,-5.259832,-126.090225
-1103.6924,-1063.2108,206.87546
-1611.4208,1971.42,-726.43945
-2443.1467,6452.0747,-762.5037
-605.8391,4450.1387,-282.42676
706.45154,1325.6343,-573.927
912.8513,725.2324,-540.4026
1652.7543,-80.43947,90.25353
1359.4324,-49.77594,145.69702
1085.6387,-479.24246,479.89468
1011.8123,183.55165,-58.38404
1179.7911,-590.52185,202.67119
1743.8639,3247.77,-1018.6943
-1910.302,8145.181,-3216.9253
-233.44461,2119.2913,-976.96924
-459.79056,810.37897,-872.93036
-1985.0455,-297.78293,-350.98572
-1019.2598,-1880.7307,-1229.2345
-1816.5231,-1243.376,-958.99207
-1504.7153,-3.7807996,343.32986
-1502.5067,-212.47084,508.94675
-1976.1138,1062.5511,173.59663
-4553.7056,5508.9585,949.69446
-1391.1022,5048.2896,427.21414
1164.9214,1245.0486,110.90572
795.37866,324.42273,276.1067
1594.409,-122.08897,145.87346
1556.2838,-61.347176,299.43518
1301.534,-7.078024,265.5075
446.11142,17.859476,358.8464
1577.2562,1220.6177,-780.45514
-1195.6569,8101.5786,-3731.3179
-2707.425,4130.3735,-2147.9944
-195.73131,159.9788,-793.4218
-1547.19,543.2453,-474.05228
-1043.3696,-704.3561,-284.63385
-1991.1274,-551.846,-862.6929
-1149.5247,-2100.6194,-593.2652
-2522.454,-454.0858,-354.62225
-1851.0709,-698.9882,-314.22433
-4856.83,3228.4321,-1151.337
-3881.5776,7332.5366,-479.68692
-386.96426,2523.9983,153.51534
949.86536,992.05316,-369.0598
1239.9253,568.68665,-295.7811
1713.9689,-191.95549,350.74005
1416.9648,507.84506,236.61703
1546.767,-64.93209,546.11206
503.56772,654.2895,-272.66507
1575.8975,-435.2824,255.52411
-1860.4766,4269.909,-3849.1628
-5654.883,6599.9053,-3764.781
-613.7309,582.35706,123.14551
-1181.4951,1512.3121,-1539.6794
-1079.0635,-830.186,-486.35034
-2352.748,-1379.2395,-862.8065
-1058.6305,-3198.062,-561.655
-1980.8209,-1306.23,-324.7451
-1369.4641,-592.33606,-17.909616
-3482.8472,4576.189,-1509.5756
-2650.876,6510.331,-532.3544
-4.646986,2322.428,-12.468681
421.66428,1143.5619,-152.98271
986.2056,417.43597,-178.94168
1373.7476,-265.53903,406.3945
1265.0254,118.98727,282.03778
1415.2179,-128.63232,710.37695
809.4062,471.61786,248.40508
1200.0924,-14.800147,357.1432
-783.5077,6292.242,-3749.8987
-3668.0068,6365.349,-2535.7896
-897.1728,865.6167,-1239.7955
-1938.876,657.049,-1181.0656
-1667.9292,-1486.3672,-248.12904
-1534.4237,-1426.0314,-642.70746
-1279.7212,-2195.5698,-473.48935
-2085.4402,-935.03064,-88.51353
-2044.4199,-561.8139,-236.35847
-4813.709,4065.2947,-1428.3556
-3877.0254,6738.9683,-127.533104
-194.20815,2500.79,85.042046
644.3772,1458.7052,-453.84006
1259.3583,488.4972,11.648052
1807.3729,348.34076,456.00714
1809.2406,313.45013,655.1359
1367.493,519.69604,337.80515
1049.4355,372.5293,79.93449
977.1305,3283.77,-1457.8462
-2314.4568,8323.266,-3048.4092
-3017.4915,2728.245,-1712.7831
-1407.6321,925.85913,-1177.7914
-1670.8921,-267.9621,-560.6358
-697.8289,-680.06335,-146.62708
-1232.1465,-1291.949,-468.0602
-863.57025,-1313.4509,-437.6564
-1622.7928,-568.9469,-62.398632
-1241.0685,-183.77942,219.46352
-2713.3855,1719.1157,-742.7255
-4381.566,6351.595,-637.6643
-799.6698,3208.416,582.4332
886.2958,927.52905,-317.65472
1263.4941,997.5646,-130.28038
1475.246,256.53812,572.2125
1444.2072,367.59985,514.0262
1507.4082,211.04123,256.3506
625.1508,447.29224,108.163345
1211.8933,1562.304,-96.543465
-2436.9106,9406.548,-2537.7673
-3091.096,4245.937,-1382.4109
-945.91034,535.441,-560.58765
-2076.2646,743.7313,-513.0099
-1425.7163,-1055.3591,-261.61536
-1884.7216,-1578.8843,-863.9424
-1663.041,-2556.589,-393.91028
-2683.069,-295.41135,53.968624
-1972.6553,-259.51593,-559.6181
-4471.409,4696.2925,-1104.6781
-2782.0881,6119.4917,45.1936
-61.72207,1816.645,128.1162
864.44037,1405.052,-186.20598
1159.7218,645.82367,10.368435
1701.8582,663.52515,404.02115
1217.2227,283.4598,308.875
1181.936,189.22012,252.13777
257.21753,124.53281,-6.8739567
1269.8499,755.96985,-472.26517
-2332.775,8715.487,-2959.955
-3223.4165,4383.671,-1785.9664
-200.89893,424.86087,-644.749
-1709.8763,666.59296,-606.51306
-880.00116,-870.23553,-64.626144
-1641.7993,-499.985,-639.1234
-1277.5891,-1880.916,-882.5946
-1978.7395,-761.1658,-269.05472
-1452.3539,-843.1602,70.32071
-2897.4924,2475.5664,-1187.0806
-3611.3699,7671.1104,-779.5131
-336.27386,3873.2378,-112.58506
899.5742,802.62164,-236.96204
786.8976,632.4943,109.70086
1210.5942,-466.08194,248.749
1338.7755,250.08469,215.12865
1373.0931,-523.5544,340.89594
667.80707,415.97177,34.44511
1188.7927,-820.42975,158.67055
286.2393,6038.6284,-1427.8485
-3741.5576,7881.852,-1902.7913
-51.159843,59.668392,24.088055
-1196.2292,936.09924,-569.6547
-936.70404,-1157.1652,-82.961006
-1337.6245,-863.8082,-759.02344
-1220.3619,-1962.3011,-306.97858
-2128.9854,-677.0836,-133.53683
-2796.5437,-952.6161,16.915161
-3811.6318,2468.0886,-1200.1702
-4331.8013,7339.0566,-210.30016
-631.5963,3065.9417,307.02426
672.08765,879.55365,-383.5796
978.2442,408.4201,-231.02304
1594.3217,-383.79434,197.6376
1643.4281,430.2053,285.94824
1467.5592,-172.85832,550.1337
600.6087,434.17783,-11.699503
1312.6705,-355.4932,95.644035
-1114.2322,7813.292,-1846.8118
-3759.1443,6899.318,-1756.1688
-123.2069,-229.266,-283.4301
-1577.5736,649.27057,-730.10065
-743.91113,-1199.8427,-149.83977
-1583.6726,-540.2475,-559.22754
-894.84344,-2159.6313,-837.70374
-2033.9169,-456.0008,-643.50134
-1599.8033,-806.7416,-155.46007
-3971.52,3538.519,-1804.0916
-3467.1277,8062.415,-402.6025
26.71267,2785.5896,297.1813
774.73883,775.07794,-274.43063
873.8764,-210.52805,17.355852
1363.4612,-192.1092,129.18306
1162.7195,219.33377,81.15622
1502.6423,-662.16693,192.31123
559.1208,202.9055,-151.79851
2048.1736,-378.13297,105.08999
-1793.797,8400.285,-2563.9604
-3114.8513,5997.9624,-1582.4706
122.08694,-179.48318,29.634386
-1880.7897,1109.8964,-556.16266
-1157.2664,-1420.2074,-88.41097
-1326.4604,-1162.1208,-901.76807
-886.5765,-1537.3489,-234.21819
-1861.0459,-284.51544,-346.23352
-1593.8401,-642.2722,-483.56357
-3506.8923,4207.4404,-963.6662
-3197.5112,6999.6895,-53.194633
136.13141,3082.6658,-363.302
1331.5997,748.85913,-427.18622
758.0211,332.16888,-327.67136
1927.9696,-515.3281,55.37038
1344.9988,275.13754,-60.111897
1452.3394,-561.86633,425.29904
330.35153,459.9322,-391.15057
2079.4417,-624.67316,201.80534
-1246.2426,7276.283,-936.3828
-4074.168,7408.6577,-1193.1233
-99.49615,301.89713,737.25696
-1755.7756,1433.9227,-639.6044
-1283.2147,-1169.3582,-481.04477
-2161.2869,-920.3853,-1307.4088
-1630.523,-1442.7233,-618.5762
-1988.6174,-737.6024,372.67627
-1345.747,-171.06676,-121.80139
-3481.9968,1949.3285,961.2384
-4659.09,6424.3867,2867.2866
-12.369674,3542.3735,561.104
1352.9554,256.02472,-138.87976
1166.3453,664.6406,-330.7541
1255.3508,-58.199883,164.73872
1286.1459,249.11424,-19.272345
1490.5432,-518.7308,588.0931
943.3259,492.84958,258.93933
1505.2035,-190.31453,812.8768
-2169.2478,9841.172,-615.2274
-2473.7588,4536.8228,-168.05336
-457.31073,-520.4697,-94.270386
-1428.3323,806.32294,-221.38054
-1049.6705,-1054.8207,-238.5194
-1560.3885,-600.7113,-892.5656
-1042.6183,-2168.2786,-398.90186
-1852.2653,-663.6373,-132.83907
-2209.3591,-888.30225,-96.406075
-4551.897,5960.109,-1000.4067
-2075.9697,6874.835,612.22266
7.8910418,1230.2478,227.24136
800.3819,1247.6559,-642.8442
1153.4108,300.22272,-550.4055
1264.9828,-69.96467,-280.36017
1683.5466,117.71833,-334.50287
1468.4955,-96.86968,202.81517
550.6435,30.414255,-88.428185
1780.3273,374.7402,164.12172
-626.1222,7394.673,-1679.6246
-2582.7512,5718.8135,-950.5589
269.74655,-76.983665,-186.22565
-1433.6173,821.3046,-693.61786
-1124.068,-1377.6617,-433.3955
-1813.2961,-907.94025,-815.7078
-1583.3949,-1436.0085,-416.97946
-1988.5737,-323.4988,-438.54202
-2554.784,-435.5859,-695.5532
-5274.185,6165.4663,-1702.372
-2211.4895,5790.9805,-733.6312
363.0519,1536.9606,-148.31145
1405.8633,835.10675,-128.09254
1122.971,359.86703,262.04
1756.0135,382.37436,288.90463
1538.8887,-97.742424,279.77582
1208.5146,219.7523,202.56064
395.768,-23.586882,254.45413
1502.3005,2258.538,-755.6585
-2999.7083,10062.709,-2729.0112
-2081.091,2037.0143,-1144.9856
-931.81464,302.83014,-436.56564
-1627.9895,-267.35602,-150.6252
-1313.6937,-776.6055,-456.19095
-1454.1798,-1954.1509,-536.85724
-1542.0663,-1341.3545,-380.577
-2440.2798,-677.8027,-169.16263
-3270.974,1304.4121,-1630.3702
-4544.0366,7455.986,-818.9712
-950.6283,4621.2017,-264.54617
1001.738,1126.25,-639.3155
1180.6039,692.1029,25.393486
1177.5051,-49.507824,-74.14377
1603.0359,570.8419,65.62682
1633.9594,-235.52821,286.1542
876.21436,695.9572,293.5644
798.9251,-616.722,20.402124
736.3781,5331.153,-1440.9343
-2933.9377,8069.9097,-2379.3496
-879.9862,673.493,-574.09814
-886.9354,628.5883,-731.1995
-1264.4409,-609.9124,-78.7111
-1368.878,-655.3275,-645.7805
-1350.0804,-1694.4216,-722.9727
-1821.9783,-494.0173,-375.57748
-1893.1549,-489.60287,10.930743
-2661.7195,1553.7292,-1006.78796
-3648.1357,7643.2617,-472.98083
-109.1361,4036.6133,61.583103
647.3993,854.7847,-216.39647
1252.236,531.7417,31.51056
777.7931,-278.29587,343.18552
1164.0134,214.89929,166.91351
1191.8425,-272.68268,297.46997
1320.5695,252.27013,-11.167209
802.3342,-394.0806,403.33752
1383.6781,3800.9365,-1766.7975
-3895.6074,9410.499,-3721.503
-720.2214,759.9576,-990.2612
-1156.0374,448.1342,-687.40704
-1620.1826,-761.5096,22.727766
-1354.6202,-778.5773,-495.0072
-1020.1584,-3355.825,-948.88226
-2273.0015,-885.1039,-329.49274
-2228.8489,-1213.1584,-855.5757
-5287.389,4540.9873,-1311.8284
-4138.6353,8313.356,-512.0183
383.99423,1819.432,-333.62857
549.0003,672.0622,-223.45857
1304.0226,224.6013,-13.079635
986.485,94.36586,-64.08696
1810.2964,-64.77258,-156.47475
1706.2815,-364.2651,132.44295
955.2998,669.7041,38.369514
1111.1287,-632.16437,-47.542812
194.526,6812.293,-1737.4293
-3583.4585,8538.165,-2611.7583
-1140.871,9.76674,-746.86224
-1719.8555,923.7601,-805.44165
-1514.7816,-1487.1702,-213.93118
-1626.7552,-1176.0728,-593.17816
-1278.468,-2397.8103,-274.31125
-2411.867,111.88311,-323.99167
-2181.8525,-960.00836,-568.33
-4549.4067,4735.467,-1525.028
-3171.1619,6595.8164,-427.28198
-110.11202,2679.6597,-237.69695
1134.975,792.29785,-511.71173
1152.2694,606.80786,30.91417
1373.8351,61.43426,324.20142
1784.6526,416.83813,131.55852
1494.1265,-421.1404,307.90012
715.0948,632.89594,-183.31413
1890.6838,-921.7692,-144.74086
290.51016,7152.6104,-2866.5962
-3805.982,8676.959,-2818.7236
-1868.3141,975.72455,-857.15344
-2843.5518,444.10318,-801.20935
-1562.065,-1512.898,-450.65207
-2285.4385,-946.3244,-648.1048
-960.93677,-1980.9855,-199.64401
-1963.2063,-371.8922,-557.3213
-1909.5114,-547.77734,-457.05966
-4444.618,7472.5483,-1521.1392
-957.5345,7458.9385,-777.53613
1138.1896,916.22235,-377.24084
1280.82,788.2783,-193.6501
1293.6675,-429.45343,25.986029
1458.9178,269.5375,-37.37793
1466.0647,-613.95795,283.60153
1205.4978,277.0841,143.40344
791.7081,-778.9643,194.75085
1272.1025,4569.532,-1091.4502
-1628.007,8451.851,-1986.991
-1311.546,1445.3789,-483.54672
-789.886,449.59012,-388.6283
-872.3092,-613.0031,-377.4329
-1213.3411,-549.8842,-702.2179
-1519.989,-1211.9896,-567.5556
-1496.7512,-350.3924,-349.9362
-1608.5535,-390.4228,-334.13046
-2299.129,987.50275,-388.05634
-3830.187,6294.2515,82.69619
-926.3314,5028.38,206.72751
765.6021,1171.945,-6.275037
1297.8829,893.74646,-79.645996
1537.2104,-317.51727,460.93027
1600.0527,223.68286,283.32834
1409.6049,-168.88885,576.3163
690.0152,322.34717,129.4837
1157.8215,437.41663,211.82741
32.983772,7288.2124,-1976.831
-3210.8276,6676.6655,-1931.9374
-771.55035,476.99362,-334.17474
-1290.7449,689.45526,-920.63495
-1144.5006,-727.4189,-176.8198
-1636.5083,-866.49274,-724.6932
-1356.9158,-1866.0154,-756.26825
-2481.2747,-575.42163,-644.0103
-2250.6062,-481.93585,-59.438244
-3667.711,3373.1543,-1277.9941
-3401.4824,7691.1367,-220.78741
-162.40602,3484.6057,-85.95937
1141.9052,735.7546,-534.67084
1071.0027,542.34076,-255.78156
1535.8214,-562.8287,91.17326
1347.0453,220.05063,28.876678
1256.4686,-461.38174,458.83737
455.6932,375.64133,-179.31581
1810.1654,-610.26666,440.48856
-659.06433,7508.7383,-2319.8457
-3490.0952,6922.159,-2041.0731
431.44858,-357.3984,-125.1992
-1783.3403,804.20667,-1090.1064
-1688.4279,-1455.2622,14.728082
-1900.0332,-1098.1381,-981.3206
-1358.5066,-1729.0321,-38.174423
-2126.9824,-344.1154,-426.7783
-2558.1218,-627.0223,-468.54776
-4663.323,5826.015,-1630.2307
-2957.6108,6283.453,-197.18204
492.04297,2207.5916,-612.861
1712.5692,829.9498,-821.41565
1245.7236,102.85325,96.202385
1814.1678,-224.46526,175.30907
1277.7595,139.83377,587.2563
940.5828,214.42514,297.22934
606.07715,-603.788,217.24658
1316.7424,3541.5115,-922.4472
-3771.3105,9422.019,-2851.8684
-1027.2152,968.15594,-288.10266
-531.1476,813.95917,-856.64764
-1348.5411,-580.42365,-51.154686
-1270.7611,-580.08276,-463.50198
-1542.6162,-2232.963,-740.5198
-2008.5413,-668.5839,-497.55646
-2268.8164,-922.76917,-77.139915
-3684.7727,2943.7852,-1560.7946
-3481.9187,7862.375,-68.23739
18.497852,3279.1396,124.39686
1072.8331,641.4077,-277.21396
1381.4006,483.76697,-135.14087
1072.0638,-520.0491,329.3654
1034.7684,122.30891,16.546175
1122.1116,-512.91614,471.74622
695.855,419.55475,107.23264
1671.7753,-608.3802,1163.5825
402.31332,6065.7134,-1435.1604
-3436.735,8719.845,-2018.8142
167.3029,38.119118,-400.4839
-1244.8093,942.43207,-1116.3795
-1432.9467,-858.4905,-509.93912
-1709.9727,-1066.1603,-900.3763
-1379.6852,-1485.5237,-727.2144
-2264.7766,-303.41388,-284.4768
-2124.1162,-775.21576,-297.10052
-4541.4766,3139.4084,-1216.091
-4225.5415,7878.8105,-294.85016
-383.02393,3077.1953,-70.46174
1685.6981,1391.7205,-1068.9713
1270.7305,199.65292,-497.31152
1915.1776,41.750736,-347.89316
1628.6263,-34.094353,-39.842125
1137.071,359.3404,106.40248
726.67865,-560.60175,-24.595768
1331.2716,3218.1978,-1080.0784
-3744.8867,9325.853,-2451.0857
-1690.3582,1843.1453,-492.9366
-81.9736,829.9439,-513.70593
-1694.7184,122.39459,-225.72649
-1181.737,-619.4586,-371.65735
-2508.6265,-1257.4413,-821.77704
-1753.4667,-1592.7268,-789.3582
-1993.8806,-456.00064,-28.256323
-1830.5546,-37.85872,-278.24396
-4582.7163,5568.159,-1259.859
-2939.0125,6869.3696,-732.19727
829.57745,1238.3206,-721.18634
1160.6895,950.9322,-465.66672
1061.7327,-347.8639,236.26622
1707.704,-20.125723,54.95065
1423.9138,-445.24936,661.53015
1352.3553,-10.793679,79.53448
1070.5282,-674.29144,467.2508
1847.7534,3094.8838,-952.2147
-4465.9253,9623.766,-4665.047
-763.58405,1738.3123,-812.05994
-740.74786,-244.92467,-922.15753
-1696.808,-738.5438,170.90184
-1013.36694,-1387.7347,-127.48873
-1314.3904,-2401.5103,70.12147
-1835.1393,-533.95935,-262.55295
-1763.2234,-547.07324,-316.22302
-3673.3054,2370.0989,-1353.8467
-4759.383,7966.029,-1246.0885
-540.60754,3408.1533,-461.46017
1662.4088,672.2505,-866.97174
1470.3392,27.151031,129.70583
1380.6063,-120.947105,206.5896
1633.3615,72.096306,428.5131
1242.0737,-141.68275,460.48846
379.13928,99.118004,185.4183
1520.4537,514.7347,-137.72664
-3173.8894,8754.419,-2085.2603
-2888.4336,3708.6401,-1808.2935
510.4214,-377.2198,-429.9123
-1861.4824,486.56918,-286.8662
-827.3766,-1049.7942,142.26353
-1828.1372,-1173.7118,-727.9282
-972.94586,-2230.116,-396.3792
-2757.023,-466.69193,-318.948
-2530.737,-1519.9963,-1209.2968
-7471.2324,7136.059,-576.5175
-2746.9497,7131.879,-378.13803
1330.8304,1276.6925,-698.6002
1458.4646,928.6154,46.985245
1521.9219,320.12317,53.9636
2355.0723,207.90854,30.090256
1451.0101,-286.52716,18.022142
1374.9718,448.45294,-89.302444
879.0578,-583.0411,-83.309105
1263.1458,3773.0576,-745.4521
-4231.866,11213.679,-2718.3538
-2721.785,1828.3352,-948.5672
-1917.7773,722.55225,-849.8825
-1466.394,-844.39966,-209.8725
-1329.6378,-527.6321,-441.9403
-1401.8127,-2155.316,-793.3624
-1534.0917,-1365.0549,-653.8147
-2306.3125,-899.9633,-163.06976
-3056.0183,597.7336,-805.7303
-5370.438,7457.5786,-1588.3419
-1733.6559,6274.2954,-75.93385
871.5286,1097.3694,47.332485
1462.5374,999.7197,-613.25494
1676.4835,-558.33795,-65.961426
1454.9062,-75.239784,-255.77786
1609.3232,-468.35376,495.87415
397.14368,659.86523,-5.5065084
1381.4337,-1105.3752,460.6644
-685.9022,5642.6465,-883.5604
-4979.7427,8568.258,-2368.1323
431.60355,-249.57912,748.56573
-778.382,1411.9849,-645.80096
-1242.8241,-1124.2413,-88.52683
-1560.4036,-1397.2048,-936.3806
-1207.4512,-2439.6963,-555.377
-2354.9065,-714.90314,-80.13411
-2080.215,-1103.0887,-301.91348
-4610.9214,2476.1677,-1419.3746
-5327.882,7827.9014,-144.18845
-580.0604,3297.2527,46.163345
1358.1078,1375.8582,-734.5659
1454.5698,572.1523,5.130247
1799.7069,266.27512,20.970263
1943.35,274.2002,-30.731924
1333.4707,376.1649,185.6183
1098.3143,-71.12164,-168.40414
1184.2911,2798.4895,-1075.794
-1017.6206,7985.054,-3161.335
-3103.7473,4316.1206,-2740.842
-1279.6259,481.11896,-847.0587
-1636.1995,74.24553,-849.5324
-1470.6232,-935.30194,-404.56503
-1793.0428,-1788.11,-1125.6626
-1547.4264,-1690.9216,-317.9827
-2663.2795,0.65688294,18.393898
-1722.4697,-197.75946,-84.7529
-5062.2827,1700.9629,-1477.8129
-6105.663,8345.683,-1983.4802
-677.29065,2997.2236,-32.542305
1419.252,623.13086,-1353.3276
1185.7587,32.80238,-279.92053
2001.7069,-486.0377,-408.86145
1451.9988,381.70813,193.35876
1327.2705,-29.418625,197.77563
390.7823,-29.005487,-56.51921
1719.4763,762.478,-887.8602
-3651.3577,9375.467,-3626.0747
-2801.8557,3729.4465,-1488.015
-130.18542,147.71144,-311.19244
-2436.0078,416.7892,-268.66003
-891.564,-1055.6625,135.30618
-1477.6338,-1698.5336,-182.95435
-1019.3717,-2313.943,-133.27399
-2627.3528,-487.7023,-876.188
-2594.019,-1089.8187,-725.55457
-5065.7056,4633.0483,-2506.1294
-4046.1702,7856.076,-1509.3339
242.9181,3041.1462,-810.06244
1537.7478,699.5775,-647.1331
1148.0516,302.49863,-195.52306
1624.9103,-538.9398,25.029743
1478.1968,423.2231,167.51303
1394.8737,-341.94766,362.67725
459.34158,363.32782,-31.909292
1355.2052,-257.60223,114.2326
-615.5408,7658.296,-1671.6765
-3721.4536,7077.7676,-1869.7299
-516.1301,-50.288895,-263.04922
-1497.5085,1265.0986,-753.6014
-1582.3776,-1361.1343,68.203575
-1577.3663,-1150.404,-845.77136
-1063.0472,-2300.1992,-255.5198
-2177.411,-356.88367,-184.33752
-2089.5415,-1106.1504,-426.93155
-4378.2993,4972.5,-1898.2817
-3344.2188,6986.219,-616.4899
173.5325,2933.6282,-515.0782
1593.0566,742.0688,-373.14157
1053.827,416.26303,224.67131
1897.1744,-287.36353,242.68195
1508.1628,277.49774,431.9631
1442.0822,-460.5748,381.9062
397.2918,541.9304,-27.742794
1675.1691,-551.8795,-260.42218
-2042.6956,9788.067,-3109.6658
-3816.7727,5879.5054,-2353.76
-626.92847,-553.72516,-604.1355
-2101.7239,559.9433,-208.79626
-1247.0308,-1258.3326,-152.80856
-1690.3734,-1851.9906,-682.2751
-1772.7207,-3063.8228,-637.03143
-3073.384,-950.4871,-671.0303
-4497.7607,148.3123,-1620.0931
-6605.5312,8962.547,-2058.2844
-1462.1277,5126.452,-555.0564
653.81976,1081.0397,-413.79935
1470.212,421.9081,-196.42311
1214.3702,-112.48551,38.422344
2028.4042,298.80875,138.19345
1654.623,-16.65005,336.5399
1014.6704,451.02048,102.35872
975.9411,33.306705,-159.474
-294.59122,6216.8164,-722.60175
-4675.465,7538.3594,-1092.3835
-1339.5308,621.4955,-298.45496
-1879.4958,823.88464,-338.57825
-1188.1643,-799.4668,3.655407
-1651.5588,-1402.7794,-764.6836
-1007.9174,-2830.6934,-440.1255
-2303.3958,-101.17256,-539.64545
-2090.825,-908.7324,-654.31995
-5338.0425,4654.049,666.4772
-3289.9758,5360.3867,1198.8417
50.233044,2158.0693,256.28192
962.6731,927.5557,223.04413
1218.1099,527.70557,23.216421
1522.2719,241.33861,498.0806
1490.1396,184.23595,459.7634
1476.4977,41.81118,772.25195
484.94357,477.03693,187.05896
1242.0494,1607.1633,427.45673
-3278.0955,9314.142,-1156.04
-3156.4194,3065.9792,-619.9727
-580.56714,590.32855,-309.25406
-1302.6576,387.97095,-482.4185
-1012.8806,-844.8531,-364.68326
-1538.0576,-1647.8912,-1165.8552
-1515.2759,-2145.2124,-1005.3435
-2737.682,-580.32184,246.803
-2131.882,-707.73065,-736.8199
-5224.697,5756.862,-558.9837
-2764.1172,6792.307,500.89426
509.54373,1127.6006,171.01349
301.27155,891.30347,342.77542
1251.9355,-328.7472,117.80016
1235.8497,464.19495,324.65497
1565.6665,-445.10034,218.22096
1248.9553,334.45053,254.90074
867.14484,-570.25134,-29.659885
884.95306,3064.4204,53.55081
-3303.3896,9248.811,-1259.3352
-2167.2253,2320.2422,-542.5561
-836.9344,688.66907,61.199944
-1464.3706,89.592834,-263.9099
-720.4792,-944.35144,-338.852
-1472.9023,-1544.6432,-1031.4119
-1152.4736,-2077.7668,-429.26065
-2721.9912,-411.33713,-732.91614
-2175.0964,-481.01657,-520.7648
-5292.625,5050.324,-1540.6882
-3237.0273,6898.348,-1389.8754
221.13019,2432.632,-671.9816
1224.1207,784.31885,-656.77344
711.4343,275.86594,-11.512226
1719.197,-250.99496,-171.56088
1435.8048,164.30391,281.37494
1530.0133,-221.25032,184.32166
337.83066,41.422756,-52.52889
1862.0657,1068.7869,-422.59177
-3667.029,9890.555,-3159.6243
-3274.6458,2578.727,-995.0445
-873.6098,562.4563,-534.10846
-1534.8132,-794.60693,-311.66238
-94.05779,-1898.7732,-75.5647
-1002.98346,-2893.9893,-325.541
-1182.293,-988.33734,-166.07425
-2683.7354,-1762.9719,-694.9883
-4372.176,2482.4556,-1123.3351
-5665.828,3777.2964,-1357.76
-3321.924,4306.3584,-1340.2467
1488.0775,3010.6755,-402.49747
690.89886,-92.0051,293.85153
1665.9711,992.7389,272.4615
1799.0277,334.9776,561.82153
1830.0944,638.9973,525.7405
482.04898,442.55746,312.985
1705.1265,-431.36218,-218.69464
-2413.5146,8373.772,-2443.809
-5284.016,6905.0073,-3113.7432
-1587.1682,-959.09125,-764.5307
-1814.7587,1037.1941,-382.9081
-745.9163,-1136.6869,298.63055
-1253.7739,-813.32245,-646.45215
-957.3239,-2748.7056,-754.2157
-2200.5645,-990.47424,-639.07275
-2380.433,-1053.4875,-634.5346
-3950.711,950.54694,-1680.7358
-6731.828,6057.833,-1890.1174
-2413.5408,5359.6104,-333.797
1310.4164,871.4724,-764.2395
1115.7664,1341.7086,-80.026794
1587.7118,-485.7984,408.3327
1754.3604,800.3689,147.60909
1595.1487,-368.29465,339.28714
539.40686,790.9436,-8.255497
1244.6235,-796.01685,147.1572
-1081.8046,6929.0283,-2046.6692
-5397.2188,7371.511,-2569.4941
-905.8142,478.07504,-546.1921
-1735.0769,930.4348,-565.01184
-1241.5636,-656.7783,91.91726
-2197.0088,-908.70276,-950.5185
-1120.1062,-3497.6902,-1165.5481
-2741.8965,-1652.9211,-208.60371
-2697.9385,-805.8874,-587.67847
-5822.3135,2719.4434,-1772.2262
-5343.0127,8924.417,-1255.0239
-87.505264,3154.6243,-725.5607
815.9827,743.24744,-505.93457
1387.4039,415.42792,-191.49365
1242.0562,520.9494,-373.41855
2104.3828,39.569534,-244.16168
1389.4834,376.47318,194.22505
1085.8125,560.3477,27.295502
607.6761,-284.80972,-72.47266
90.909424,4224.0737,-1442.7617
-4929.63,9405.27,-2664.7888
-2560.363,1691.5242,-915.9592
-1991.25,742.3038,-829.35565
-1639.3234,-967.0786,-135.69153
-1079.92,-982.5071,-241.95471
-731.25104,-2925.633,-697.68085
-1438.5271,-1703.6051,-413.93484
-1905.911,-759.7995,-589.8918
-2644.8318,-285.1135,-1618.4653
-6496.122,6552.4707,-2473.1765
-2522.6091,4804.9414,-1447.8036
937.5768,1161.8386,-310.49637
995.5399,1210.7721,499.34125
1058.9589,99.39398,610.5879
1319.8787,789.5164,632.9378
1625.7094,-140.86029,843.2607
1150.7162,1043.4724,453.92075
724.6578,-650.33386,417.4989
650.3204,4241.3174,-2048.7678
-5061.102,8992.641,-4360.502
-1875.2474,1234.9893,-1289.0278
-1499.5668,431.4841,-1037.6144
-1866.8326,-415.74844,89.97589
-1041.6302,-1391.9675,-362.41202
-1402.2256,-2193.352,-598.8357
-1576.4232,-2289.276,-314.12024
-2892.0645,-450.65753,40.978992
-2846.1836,144.36267,-1024.8044
-5485.2363,7044.9663,-1359.948
-2162.7256,5707.3013,-164.6763
981.05914,1103.7705,-711.4286
917.9373,856.6467,-36.039223
923.9621,-120.54646,140.91791
1413.5383,474.6884,26.39322
1643.4425,174.42227,63.108673
1541.0901,-106.14368,179.83951
436.92706,376.72403,148.78493
1722.3978,-138.84294,-524.5903
-1605.3318,8565.732,-3019.1455
-3655.8486,6128.772,-2322.932
-464.62955,-494.7428,-666.9988
-2026.0302,638.3092,-340.51773
-1494.8625,-924.09753,-36.297802
-2122.9583,-923.97034,-630.8777
-1069.5996,-2545.7068,-459.46268
-2253.2705,-323.11514,-246.31172
-1104.0055,-343.59723,135.59639
-4278.7676,4002.417,-1321.1224
-3875.1453,7149.9287,-163.40192
-100.36041,1698.8627,38.713516
918.5053,974.0082,-693.0785
1196.796,195.43834,79.720634
1404.3301,16.310871,249.46198
1564.3705,338.86703,493.17526
1606.9078,-136.85509,506.9253
651.8605,461.49753,651.49866
1572.174,638.38043,85.68666
-2648.8113,9536.973,-1662.4183
-2750.3767,4363.644,-626.18805
-573.983,-27.471014,-687.6719
-1770.1465,753.5958,-502.68793
-1239.8827,-1235.8156,-478.35486
-1694.5585,-1200.9689,-636.7424
-1304.1876,-2835.0356,-821.9494
-2079.6284,-1333.0991,-105.674644
-3388.707,215.88925,-798.0511
-5732.3594,7157.893,-1203.2585
-2777.6116,5016.807,718.1638
350.8656,1457.7704,-820.52246
881.6288,1317.6771,-150.59988
718.56274,-29.598188,-45.92488
1213.7793,456.1283,-203.53052
2013.9012,-279.38818,-351.59592
1332.4138,519.0033,197.50374
551.413,-130.17911,200.46198
1393.2899,2262.7498,-764.7101
-3749.9531,9043.857,-2992.3118
-2026.1135,2256.345,-276.81656
-370.44104,555.4821,-663.1334
-1726.6743,-313.1566,-230.4878
-1007.1212,-1636.7672,-487.86255
-1357.051,-2043.9338,-830.5716
-1740.1334,-1583.7533,-611.17395
-2496.777,-362.89163,83.30612
-2792.3027,438.3824,-1438.0813
-5492.421,6769.242,-1053.7275
-1366.7145,4997.509,-541.0873
304.82706,873.244,-189.5796
791.7345,763.7105,166.08366
1002.5757,73.70538,-35.67922
1723.3158,686.7127,250.88966
1696.1934,122.28757,474.96082
1258.5454,417.5603,164.09927
657.24677,-443.35315,94.06223
913.09454,3674.0916,-1677.4214
-4024.2637,8735.169,-3360.1414
-2036.5604,1397.0509,-1118.5269
-1240.0076,803.18823,-695.36145
-1495.1212,-423.2616,-1.855805
-756.22943,-895.1707,-117.89171
-961.24774,-2289.269,-639.812
-962.53595,-1998.0946,-527.308
-1955.0946,-681.68207,-235.56158
-2223.6543,18.369123,-794.3011
-4771.027,4894.7393,-1192.2502
-3291.7163,5663.28,229.28249
-324.02197,1394.7418,216.69377
438.4847,1016.137,-426.70038
802.25836,164.48717,114.28138
1110.8354,120.185936,254.18137
1488.6987,30.610437,410.67667
1299.6597,327.19946,350.7308
767.5452,51.11791,310.9707
1020.79535,3191.182,-384.03857
-1821.7601,7362.175,-1060.4324
-2196.7258,3006.0967,-521.34955
-952.7226,670.1709,-612.4878
-1282.9885,-129.4949,-352.86038
-996.2311,-1084.932,-360.9847
-1004.1374,-1740.995,-629.0269
-1134.5327,-1555.1715,-597.71857
-2236.249,-306.77466,120.92188
-2172.577,118.739944,-642.4277
-4986.7056,5778.765,-1037.3726
-2079.6658,5217.836,137.57578
640.6664,1322.7822,-397.02762
603.51337,1084.0074,136.93167
657.4864,19.529512,63.038822
1765.5026,189.46255,296.0313
1682.6055,-169.64134,418.80518
1636.3765,118.53893,303.8413
686.408,-84.83546,2.4067814
1593.3401,1649.5283,-870.1731
-2335.8079,10329.459,-3445.3484
-3841.4382,4094.6929,-1981.6626
-1792.1835,257.92337,-611.98816
-2366.2705,247.93898,-386.31305
-1128.1819,-1626.6924,-189.54272
-1257.6903,-1392.5112,-530.1349
-1258.8993,-2047.174,-279.13998
-1907.8357,-138.40662,2.4328372
-1959.1206,-693.8046,119.540794
-3263.7107,7195.453,1374.8342
-2641.8118,2709.409,-470.28223
-12.594178,2483.6018,-53.0107
768.6204,2865.235,1207.7484
399.6567,-1678.9951,77.00866
1233.3499,-12.515048,69.642845
1628.9474,-375.83212,74.81803
1873.6223,505.4849,432.68866
314.3542,-346.37878,357.68317
1740.2815,1543.808,-325.5885
-1741.423,9909.9375,-3246.09
-3072.427,4650.935,-1730.4541
-1299.9034,27.896915,-639.05664
-2287.297,578.8101,-214.5347
-1272.2927,-2057.7026,-229.78152
-1352.5836,-1809.4122,-580.7283
-1630.1858,-2262.2476,-41.703957
-2627.674,180.09328,-327.64578
-1929.1305,-1233.0911,-720.2495
-6369.64,4818.7847,-1155.2515
-3710.2605,6258.4307,-80.16619
-130.22,1533.0914,-13.45316
1057.3326,1358.9366,-356.165
1431.529,415.93054,42.408016
1894.351,639.79504,-35.055622
1457.6841,203.83743,2.1904497
975.32306,560.6781,157.47621
388.11594,147.10086,-227.78612
946.7509,1566.0276,-366.06586
-2984.2522,7617.3027,-1781.4835
-3959.3499,4322.105,-559.66705
-912.86346,1058.1571,-56.198376
-1513.5807,738.4663,-438.77792
-1244.3923,-512.1706,-161.75087
-1704.1893,-1323.5884,-551.11835
-1331.4789,-2110.794,-1122.1349
-2536.3298,-1604.6995,-8.908879
-2023.8966,-1548.1987,-402.58298
-4002.4983,1887.4163,-689.5772
-6718.581,5764.09,468.7026
-1731.4677,5084.913,-301.6226
766.1985,453.18314,369.2913
618.30566,985.2481,-42.51461
1780.2124,-128.70161,182.23859
1447.6511,461.08777,-24.377625
1849.262,-337.10333,39.869858
655.8124,729.92706,-209.67767
1045.1392,-566.45966,-370.82248
-284.6533,3740.7192,-252.44249
-5596.855,8260.208,-1732.2214
-2229.755,1591.5461,483.26453
-1501.3478,1185.0186,86.24741
-1727.6332,-118.301865,-284.42505
-1647.6449,-1881.8201,-625.7505
-846.08276,-3037.5696,-780.45026
-1998.6816,-1524.9113,332.2857
-2082.1577,-917.9509,-542.4455
-3448.3162,951.6706,-1199.7604
-5575.696,7102.4116,-548.4051
-1346.6884,4793.4727,257.36584
448.09006,1084.7622,-400.306
1130.6097,775.48267,182.59048
1472.9418,-161.36224,352.79587
1451.8015,479.10333,415.57413
1382.0693,-349.34708,393.86206
849.47485,778.1649,312.7635
867.10016,-375.34665,92.57322
15.465004,4730.769,-923.8846
-5162.5356,7648.1875,-1956.1791
-1098.7255,1090.2927,-501.35464
-1091.959,655.67303,-706.3418
-951.3862,-407.95807,18.94593
-1075.0426,-884.5193,-626.8152
-1036.0632,-2178.2705,-680.666
-1779.2455,-1489.192,-342.2877
-1894.4745,-617.71014,-53.30296
-2647.5203,27.236877,-946.6346
-5051.3096,5833.1646,-1490.542
-2231.0676,5185.205,-131.43015
181.60916,931.0246,130.1034
612.8159,1250.452,-474.78397
1342.2244,-211.06516,287.07312
1462.8867,678.15063,286.34277
1804.9656,-181.87817,661.579
834.7163,644.74506,27.766615
1223.0183,-401.46146,150.25157
30.7073,5726.3477,-1596.5128
-4155.4165,7284.029,-1963.3033
-849.57684,561.6983,37.160793
-1192.0831,1058.8152,-283.77597
-1137.6929,-716.0878,-107.50196
-1023.00903,-1176.6064,-635.0515
-1080.4004,-2036.867,-611.8746
-1477.2728,-651.84436,-190.08295
-1374.6166,-584.34973,-141.04048
-2061.551,1803.0435,-470.0399
-3462.1128,6007.16,-204.107
-757.3864,3458.362,517.79926
139.80664,1092.222,260.01636
669.8391,966.43665,-52.70028
1028.5028,-106.75534,281.44974
1271.1962,500.69513,503.48694
1195.4644,-200.4327,498.68707
987.9242,617.8127,291.8475
728.3683,-253.9671,79.32859
609.78186,4773.168,-993.8439
-2604.2236,7070.6753,-2048.4302
-1362.7452,1528.1879,-845.04504
-1012.5207,1150.2253,-741.1522
-1036.2039,-307.55972,-167.81505
-1221.7407,-811.7179,-435.47372
-1094.829,-1631.344,-882.5235
-1221.1442,-1030.161,-597.586
-1268.304,-578.2414,162.71574
-1666.0515,14.602039,-206.3552
-5306.335,5163.2485,-685.1881
-3180.5757,5569.689,345.9814
824.4673,1180.4963,61.370342
984.8058,1414.1188,-718.8598
1683.0215,99.395164,308.00204
1650.8097,246.28198,-58.194435
2254.6199,-533.89716,-31.691372
736.24536,743.91046,-146.65453
1463.8525,-224.8054,-295.84036
-1208.1575,7543.4326,-3162.1724
-3686.5999,6562.295,-2524.0996
-1573.1067,464.03195,-1120.2034
-1950.5385,317.26328,-475.3567
-1117.1987,-611.25366,-242.85706
-1277.8872,-782.67926,-94.18669
-1218.0475,-1504.0146,-601.56775
-1407.7676,-974.6964,-174.60231
-1647.9646,-635.71783,-327.22217
-2011.666,-490.47375,-160.08408
-5721.353,3127.4055,-3309.533
-3182.9346,7036.7026,-2631.164
-205.15723,1751.7971,-622.3143
957.5122,1579.6086,-1286.5297
1439.6549,-529.94135,-6.413997
1585.9664,378.9964,348.30573
1439.6516,67.62695,581.3597
1012.95215,459.52383,94.10857
518.7562,-406.5769,98.66723
992.60223,2516.218,-776.9549
-5569.056,9831.085,-3482.846
-2707.5107,1910.9592,-844.9223
-997.6109,775.5007,-679.5993
-2329.2014,-318.5335,-65.643715
-983.7658,-1318.7573,-246.38345
-1280.2054,-2179.1255,-666.0645
-1305.75,-1926.8368,-39.962643
-2481.043,88.810104,-15.206901
-1144.5149,7.429778,-672.4231
-4770.868,3616.4612,717.08844
-3190.6704,6352.9775,515.1979
366.615,2343.7842,193.83253
911.9726,947.26996,-34.069138
1164.4689,43.3126,67.303215
1449.3494,-35.697285,-94.49571
1405.196,116.58399,408.5543
1205.4309,349.22018,267.35574
396.08704,-136.30984,393.3255
1071.9615,2019.3425,-1182.3615
-4605.9097,9647.484,-3638.6543
-2544.3596,2652.1853,-1514.6503
-314.74615,393.74417,-608.74585
-1103.0275,-216.53969,-376.09546
-658.6233,-904.25433,-303.86887
-1194.4963,-1748.3705,-1493.9073
-844.95605,-2088.6853,-1127.3788
-1811.9579,-410.90024,-462.5266
-1691.6769,106.396614,856.49115
-2994.927,3477.2083,-2608.0735
-3124.2512,6894.9233,-1318.7007
-919.6536,2974.2612,577.7811
1063.796,873.90375,-1555.8225
1251.9321,-509.8558,-297.26813
1384.2627,-261.77548,-100.17336
1195.3204,107.553116,443.84363
2146.308,-233.3451,-37.797997
794.916,-259.68033,370.45184
1738.0934,1677.0623,-789.73987
-3122.336,9689.538,-3472.5642
-2954.548,3134.9941,-623.0917
-272.30417,611.20984,-209.67287
-1912.1244,73.44571,-338.18878
-440.25565,-1804.2153,-95.651474
-918.46136,-2026.287,-640.8711
-672.48755,-1982.279,-526.4092
-2077.909,-520.42645,-545.1028
-2071.5237,-477.8605,-452.08792
-4517.507,3614.4707,-2278.181
-3622.335,7038.1245,-625.06946
-9.178549,1919.903,-172.1641
1064.8787,1162.0957,-232.25015
1482.4878,-186.92003,397.74713
1514.1976,730.4352,444.77975
1215.5343,-33.31155,713.57983
629.4147,517.3839,287.61285
831.32416,-385.84418,50.719894
-281.9752,4894.7554,-1440.0944
-4225.375,7074.136,-1992.7976
-1035.7991,659.1771,-230.73123
-1130.4141,1015.95685,-474.59116
-837.9642,-601.46436,-20.569117
-1075.8811,-730.6338,-436.27194
-889.0964,-2081.2888,-675.81177
-1327.7015,-1599.2634,-673.50037
-2014.4423,-742.2493,-397.59076
-2502.0847,29.199783,-778.163
-4188.184,4701.118,-1149.4762
-2994.24,5674.076,-199.44592
96.424385,1829.7603,197.81326
709.5473,1506.817,37.592842
1761.6014,-205.46748,360.93155
1654.4678,786.3983,472.7456
1678.6294,31.85826,750.4837
524.8935,983.0088,314.4261
1146.349,707.2407,6.6031156
-679.3678,6530.4473,-1187.4993
-3501.3843,6177.415,-812.29364
-1388.2838,849.61865,-791.3637
-1448.3422,314.21283,-700.2552
-1197.3734,-767.80566,-149.0641
-982.1848,-885.5835,-276.17993
-1387.6364,-2164.152,-686.63995
-1644.621,-894.659,-451.0664
-2299.7617,-275.34033,-100.258896
-2393.0532,1208.993,84.26921
-3914.2014,5546.057,310.9625
-1134.2955,4147.239,439.22006
742.7493,888.31616,76.36907
775.15784,1180.5371,150.44032
1123.9325,-156.73082,502.09622
1557.6384,87.6635,88.89091
1688.8019,-344.40118,118.51072
874.1549,321.19577,-4.621795
797.07776,-192.60449,243.83826
662.9315,5269.2207,-1438.5098
-4210.894,8838.523,-2456.7666
-1207.2567,521.4453,-689.8407
-1791.7502,887.7602,-290.21152
-1738.0382,-466.52795,483.00143
-1603.2524,-257.96448,596.3544
-1138.5465,-1763.5322,-250.47998
-1927.0028,-1823.9788,-660.77075
-2372.208,-1076.7242,-358.9052
-3608.7114,1817.6167,-2034.8035
-4446.775,8237.91,-2011.6775
-1027.9799,3851.7134,-555.475
1420.9067,1284.8456,-866.5247
1193.7559,529.54596,280.84854
2224.1934,9.13961,261.79025
1610.6173,159.11966,731.7319
1613.9188,180.99927,44.349648
740.9806,46.15449,-54.87331
1240.4235,1787.1975,-1013.3088
-3630.5312,9057.133,-2618.2415
-2854.3818,3198.1035,-1131.2539
-718.831,392.49304,-331.89807
-1614.0024,28.17561,-47.06908
-703.1233,-644.6289,133.97888
-1530.898,-1028.9384,-128.17706
-988.6806,-1211.3951,-146.70259
-2126.5352,-624.3172,-599.80475
-1608.8927,-449.83374,-62.65765
-3393.0054,1257.5885,-1650.297
-4078.6184,7887.274,-2590.7559
-454.1257,3271.394,-825.3179
540.22943,794.9492,-773.899
1099.5166,-20.13405,-72.73069
1618.8151,-312.99408,110.37006
1781.5447,128.78323,314.90826
1188.0424,-374.25674,419.12598
494.75357,345.88022,42.13673
1119.8113,-826.2341,196.87665
388.83728,5702.441,-2620.3762
-3868.9102,8337.917,-3317.663
-466.93524,582.5656,-171.25781
-2271.5203,1243.1039,-306.20322
-1349.3263,-1132.5769,248.09537
-1653.6414,-1965.9413,-933.1085
-1272.6061,-2978.631,71.269775
-2853.3276,159.34604,-133.02133
-2103.7683,-1256.2089,-680.5695
-5749.1396,5505.628,-2090.819
-2764.4888,7829.9966,-1185.9822
568.399,903.8976,-762.42346
733.5597,350.44727,-139.08955
1028.1359,245.6579,-117.21932
1591.18,307.66632,96.79468
1701.2262,-159.16809,19.101744
1725.6664,-74.804535,277.9247
405.40103,87.13625,-51.339745
1673.5964,1168.2421,-446.01245
-3514.4402,9089.411,-3316.2375
-3197.5237,3588.7913,-1741.8429
-372.05823,220.86165,-290.91043
-1870.7726,146.9661,-326.47626
-904.0155,-902.0054,-176.66109
-1898.1158,-1546.059,-548.18805
-1632.7697,-2061.9634,-190.79858
-2743.6892,-372.27716,-293.591
-2545.3752,-508.24643,-634.1681
-5383.451,5753.209,-1601.6694
-2386.1208,6585.8345,-666.4546
126.42427,960.6889,-256.19257
1085.2601,858.46375,-194.07155
1363.8884,-36.406437,146.4972
1505.9099,692.9277,20.649065
1832.0792,-395.4983,126.85983
1048.0287,709.53723,-3.3128793
919.27637,-293.91592,307.57666
-262.57745,5710.462,-1707.2622
-3765.8848,6873.54,-1987.8739
-1111.0272,1305.196,-222.40273
-1378.2933,1156.1156,-666.99725
-1088.4576,-347.29974,-388.75143
-1262.8372,-657.73193,-852.6756
-1311.0935,-1678.9989,-623.9753
-1556.3622,-1050.3281,-86.652084
-1777.6022,-427.97794,-208.27428
-1934.4625,255.38385,-285.21246
-3951.6055,5857.1763,-65.158264
-1855.1675,6172.076,32.645927
616.26105,1182.6333,208.86766
1140.4487,944.6032,-344.58487
1466.1599,-458.43988,134.89732
1645.8317,63.230732,65.092804
1387.5472,-93.078705,454.12305
1064.0612,190.16022,177.24622
505.6952,-368.96396,216.20248
1354.126,2661.6228,-731.98114
-3620.35,8681.778,-3093.2197
-1614.3539,1899.5527,-225.87357
-244.19301,724.475,-277.59656
-1157.4236,147.10825,-374.39407
-989.8086,-792.6777,-396.36444
-1769.9379,-1646.9436,-664.8325
-1302.6676,-936.7029,-218.84702
-1753.283,-810.91925,-37.667843
-1632.8392,636.7313,-387.12308
-3737.1196,5919.853,-558.9923
-1316.7274,5325.112,130.3454
949.4055,921.303,-133.88931
1275.3938,916.03766,-268.02316
1418.3217,-272.00537,368.21005
1418.7672,112.67619,727.89044
1121.4584,-145.87177,862.20374
511.35635,259.49307,106.13998
1210.9886,-44.80062,-22.898218
-527.73773,8120.681,-2365.3147
-2659.3823,4687.945,-1210.4825
-141.08664,348.9273,-339.87134
-1357.1255,881.63904,-517.3817
-904.3934,-899.9083,-70.16877
-1467.8896,-679.4629,-424.39227
-1120.2712,-1578.3167,-238.1301
-1704.3169,-525.3983,-98.89421
-1355.2635,-659.1742,-53.269386
-2583.1328,1571.891,-646.7372
-4005.966,6817.6055,-430.1978
-960.363,4385.193,262.71698
578.2694,891.0124,-83.90953
793.9465,907.50824,-160.02141
1392.8672,-216.12088,272.56775
1216.8488,113.242485,303.2728
1360.4905,-201.79489,313.74924
721.61285,398.69266,132.23157
778.61993,-165.96954,4.6413083
401.56165,3554.9841,-556.8259
-3134.3853,7601.976,-1744.1663
-1087.4636,1758.3685,-245.87111
-705.8394,928.3661,-189.92207
-1117.3297,147.35942,41.993275
-1163.0897,-1304.7543,-459.5352
-1173.6132,-2362.036,-924.92816
-2002.9128,-1373.6837,46.231087
-2267.3076,-729.8896,-229.41022
-3336.3884,1221.7415,-1181.2238
-5605.6274,6316.5376,-178.43039
-1569.9269,4088.0486,-320.5364
700.66034,1169.4868,-417.35138
1152.9906,766.15247,-21.606392
1055.3973,492.5863,241.52286
1364.0242,554.04095,135.44614
1404.856,-265.279,102.185234
933.23895,661.57227,-1.0272961
627.4951,-478.45807,247.12682
613.6643,4881.3887,-1539.658
-3418.0713,7703.089,-2665.331
-1182.8639,936.8172,-596.71814
-1013.9277,566.46265,-626.48047
-1028.9283,-865.6169,-33.55499
-1075.8895,-987.5887,-321.13156
-1103.3832,-1332.2305,-286.73532
-1181.0529,-680.2361,-324.18033
-1710.1804,-148.55457,-245.82234
-2080.898,182.05412,-818.8736
-4414.759,5725.7456,-1489.2222
-1856.7006,5397.1035,-439.04236
-9.331072,1074.5973,24.502214
1039.3502,996.8784,-571.6151
1000.5046,-107.75906,146.71501
1204.4668,33.881554,34.411877
1176.8439,36.591568,203.8491
1538.8329,-74.517685,83.37446
584.9545,171.14665,-13.785486
1845.6953,254.81224,-694.6639
-2126.7488,8266.514,-2431.3708
-3462.1296,5158.3833,-1472.1067
-319.99573,178.74411,-282.7011
-2117.7312,593.2878,-260.3442
-795.3765,-1029.0896,229.63177
-1593.5883,-848.4241,-584.74054
-842.4677,-1755.6527,-387.42288
-2224.733,-505.7492,-473.7043
-1330.7212,-972.26385,-195.85521
-3709.1013,3947.853,-1615.5216
-2863.006,8125.7686,-1117.1373
61.153717,2142.308,332.8071
1038.4211,590.57275,-277.96912
1266.7898,128.9316,-160.27692
1655.3744,-1179.4506,395.42276
900.8713,72.09499,310.60654
1136.4595,-740.3006,566.2251
419.6245,310.05185,-118.89475
1953.7874,-534.5154,253.14261
-1620.8871,8672.218,-2333.0408
-3301.0369,6105.692,-1245.8698
177.71242,-89.39747,-66.162094
-1572.6125,644.28125,-366.97318
-829.8073,-1110.9008,-51.42835
-1544.9364,-495.60806,-655.7564
-1142.7769,-2188.4492,-457.558
-2073.0994,-443.42648,-800.8225
-2225.1448,-824.2261,-727.4708
-4823.8647,6288.6274,-1533.4656
-1943.1067,7311.849,-100.33267
145.44849,1343.0249,155.70436
1051.6595,232.99403,-247.90627
939.9765,-433.29706,153.06055
1239.3597,252.45782,117.36743
1339.76,-53.871967,362.68658
1577.0396,-178.3773,335.98978
562.45874,244.36185,104.423904
1646.7594,2.9948432,97.7159
-1406.6146,8383.658,-3051.3203
-3096.7356,5852.2773,-1824.0763
120.2554,-165.56294,-452.1229
-1918.6172,613.655,-1291.2749
-839.2001,-1789.4001,15.235823
-1481.2083,-414.3667,-648.51184
-867.7117,-1926.5085,25.453941
-2011.7599,-235.70686,-1088.4059
-2098.6582,-1114.1344,366.5986
-4720.077,4140.751,-2503.3784
-3379.9993,6790.714,-2506.986
-83.44812,2774.5288,-749.8315
1459.3704,225.60057,-724.45825
1201.828,388.58804,-4.9544544
1694.3889,-703.5987,78.11781
1273.9331,348.73547,145.80603
1189.1237,-485.54968,624.63885
382.21796,610.46533,-301.83685
1962.5187,-710.7197,563.62616
-1588.8237,7874.878,-1895.0369
-4948.842,6376.4526,-1756.9641
664.3088,344.89038,-148.71431
-2132.9927,1044.3729,-949.11127
-1336.6215,-1239.322,-282.241
-1651.6074,-1308.6892,-1131.8732
-1161.2559,-1896.9241,-258.71143
-2126.6777,-7.942336,6.188351
-1744.3093,-442.12268,-0.49512604
-4102.085,1539.4663,73.958534
-5148.536,6441.008,-1350.974
-1486.3152,3479.0898,-640.00903
1708.8247,1965.9263,-1012.8249
1209.4514,615.75507,-862.5549
1814.8446,-553.13043,-205.23561
1616.8943,464.61554,-310.9443
1805.7323,-289.21826,440.4148
329.24615,688.2162,1.0910255
1918.4236,-745.6349,196.56804
-2368.6003,8238.813,-2618.607
-5520.7485,5914.1743,-1916.6049
404.16025,-222.7156,35.90769
-1605.2115,421.88498,-315.6931
316.02054,-1450.6211,342.93002
-1132.1683,-1037.2153,-643.344
-320.80035,-2362.511,-628.2302
-2164.432,-697.16113,-820.2275
-1891.3053,-859.4216,-272.0824
-4181.2344,3368.922,-1569.108
-3776.4717,7270.604,-662.4559
-500.4658,2788.9302,225.85954
922.88495,851.5355,-315.9767
942.97705,710.4967,-96.990364
1596.29,-472.014,382.09396
1140.8438,153.74544,142.84795
1725.4573,-389.76697,458.3812
473.3188,379.48666,-180.65192
1677.5004,-531.9276,549.6387
-1151.6726,6308.7505,-2264.0168
-4192.48,7072.9507,-2599.6953
62.401413,596.65265,586.3054
-1649.2238,1194.278,-654.96826
-1384.0477,-882.89557,-272.92017
-1893.5271,-1695.4329,-1094.0305
-2007.4899,-2856.8347,124.36023
-3252.407,-450.85666,-232.11195
-3437.3506,-908.12384,-637.62854
-6120.2935,5846.387,-693.8873
-3802.6409,6893.476,138.2337
678.348,1859.6433,-768.6369
1145.1466,705.1371,-282.72208
1204.2816,-18.36558,44.597023
1258.9541,57.899826,193.68625
1440.8582,-87.548355,-77.56323
1279.1887,-215.51138,191.97112
699.1754,200.22723,100.695015
1067.1727,620.20557,533.369
-3325.614,9121.171,-1654.7534
-3033.328,4534.9204,-1113.2772
-202.06491,-46.118896,-189.99478
-1370.4525,455.8709,-94.879524
-301.42383,-872.8224,-176.95247
-1434.5999,-891.09076,-823.96344
-715.3568,-2383.3516,-823.7655
-2376.037,-652.4735,-460.8406
-1118.8722,-416.30682,-202.91068
-2906.9197,880.8463,-1051.1105
-4827.372,8957.025,-1682.321
185.40707,3689.3008,28.856548
21.845144,-248.78917,12.317671
1046.2458,576.0919,83.82883
1584.0314,-497.28445,2.1632857
1529.4127,430.09967,382.01187
1378.535,-489.98685,396.25595
243.0216,736.136,515.96564
1387.9629,-592.0946,-459.56134
-962.0938,7725.119,-3043.3325
-3587.8057,6048.664,-2693.0337
-1.0703775,-257.26065,-378.3468
-1777.8322,1044.4072,-380.19275
-1652.3792,-843.3352,-61.595383
-1775.7853,-1529.1168,-676.59686
-892.8127,-2448.681,-409.42834
-1522.2821,-478.5705,-303.67117
-619.50916,-514.79834,-90.69649
-1863.2499,2902.574,-280.19177
-4787.339,8202.667,-677.9554
-186.82191,3507.776,-381.4704
644.3445,385.2081,-422.12793
767.36505,-11.118129,-288.29562
969.8943,-384.91824,-298.32394
1002.3785,-230.44847,-363.71274
1293.2699,-594.28076,-13.242767
948.81506,-41.349277,-177.8345
1200.2368,-593.7314,210.37926
1045.1093,4179.974,-1935.701
-3281.6357,7613.9863,-3326.4805
656.1441,651.27795,-609.1335
-1148.3472,679.3965,-747.07733
-890.04895,-545.18066,243.72392
-1127.9434,-215.45485,-334.32315
-1246.2253,-1684.3917,-432.47852
-1824.5327,-723.2302,-1006.3955
-1689.805,-933.337,-525.736
-3089.4868,2245.4932,-1086.1816
-3318.5803,8192.973,-846.30817
-131.43405,3892.3389,272.70865
1258.5676,272.6191,-243.10051
1095.8119,222.79913,77.9218
1515.6348,-385.61273,233.02745
1773.4517,387.00653,387.8751
1638.2568,-503.99664,645.23486
295.1964,449.85095,155.35692
1760.8347,-293.56042,17.321466
-1818.5128,9312.102,-2412.9204
-3820.0156,5345.3486,-1880.069
-2.4324608,19.248041,-269.75824
-1655.5709,636.8461,-300.78412
-574.22076,-546.361,110.60513
-1556.2893,-551.98083,-804.94977
-1297.3508,-1567.301,-1106.3912
-1578.3251,-557.70154,-572.7534
-1313.0557,-358.29114,-108.021454
-1855.0825,553.9308,-559.63605
-3874.435,6136.6514,-638.11945
-1842.8666,5572.9053,292.86255
660.5563,930.38,75.39872
627.20776,1015.23096,-273.50037
1244.042,-337.00577,152.3607
1530.452,295.21805,128.44394
1611.8345,-308.73196,233.69176
953.44574,329.57272,48.07212
820.0511,-290.62354,9.591084
937.29877,2389.497,-213.52869
-4080.1646,8625.485,-1649.0603
-1435.7587,2091.3506,-354.80038
-152.27972,504.4039,-178.34883
-1465.3411,356.66418,-94.56871
-1130.0431,-608.373,-214.48032
-1599.9689,-1371.9846,-966.391
-983.5699,-1281.6338,-381.2112
-1596.2545,-227.66156,-26.842476
-917.3495,670.53754,-454.63297
-3000.5002,5936.393,-1338.6927
-927.4455,5255.9995,-304.32462
539.6404,937.2679,-182.19852
1049.2614,724.9143,-414.71506
1093.5638,-349.35965,-92.74403
1582.1311,-371.41055,312.7615
1144.5264,-384.34814,530.46857
1031.2301,-348.82172,158.44342
795.4528,-493.55072,-130.48738
2063.0105,2036.3717,-89.10135
-1618.3989,8914.943,-2042.9413
-976.7787,2507.2502,-370.26013
-78.30208,524.1765,-423.0237
-1480.4049,154.0307,-93.12111
-1132.4647,-799.1293,95.33714
-1594.3959,-733.2052,-208.86754
-1414.0142,-574.9349,-317.44745
-1328.7755,-444.1037,-360.36652
-1356.3447,741.33276,-568.975
-2690.4653,7086.1714,-332.01077
-495.10675,4694.466,374.49603
1085.4219,953.7423,57.50983
1097.1011,604.2439,-105.13437
1161.5588,-425.0203,177.21227
978.07544,-419.1755,297.53995
1129.0212,-360.37326,181.72937
809.9585,-72.77101,246.73615
961.3855,-282.49908,-140.18958
1676.703,1650.903,539.04065
-2094.2917,8756.395,-1697.1617
-1213.0441,3570.1055,-386.19614
161.79863,215.66704,41.25992
-1330.6753,469.0596,-553.0721
-952.6477,-1440.391,-573.76434
-1648.4664,-1044.7917,-1063.6682
-1290.0516,-1304.2416,-315.912
-1938.0687,-27.389435,-178.9427
-1770.8568,-344.8109,-344.3439
-4483.957,1851.743,-343.83942
-5483.753,6534.6016,47.836853
-297.60516,3901.2888,-76.689354
545.8771,753.9764,9.62088
1173.1825,986.9754,-298.81958
1498.2324,14.926115,134.99377
1656.915,750.23035,25.949625
1682.0818,-441.87402,294.3154
622.4949,900.1279,34.425148
774.1183,-782.12946,277.35748
-15.4537325,4713.606,-990.45483
-4011.5554,9463.613,-2195.0225
-1860.4327,1184.7985,-733.7881
-1343.1487,662.02484,-476.956
-1526.2905,-492.6253,-280.68906
-848.64343,-1006.68097,-99.51598
-1153.6143,-1384.2053,-580.63763
-1248.9563,-1328.0288,-585.4735
-1932.1017,-231.03957,-210.78091
-1590.3528,-604.724,-118.96404
-3876.4895,3242.015,-849.1938
-4046.2842,7780.135,-18.467182
16.959044,2381.9707,244.3759
948.79114,971.7566,-291.3042
1143.5089,118.196236,85.11826
1032.945,-181.56042,150.70543
1110.1952,174.27856,297.55307
927.4391,-47.643524,398.80374
769.57465,157.75372,248.24916
656.2636,-432.4193,193.23787
832.9085,3764.5166,-628.0796
-3608.2905,8804.689,-2694.2043
-1094.4246,1187.8469,-616.1801
-276.46146,819.94934,-851.16187
-1338.2,-369.0792,-364.54678
-1066.1901,-516.1068,-315.72977
-1573.3246,-1160.4569,-648.6212
-1197.5175,-690.4488,-720.442
-1446.6066,-524.02435,-45.484478
-1275.5763,477.44183,-226.71463
-2810.8936,4896.5425,-810.0772
-1528.1779,6318.333,-431.2406
632.16113,1424.67,-129.44867
1012.4518,919.1787,-411.5449
827.77136,-303.74405,-59.94813
1490.2662,-251.46753,-115.75771
1420.1123,-363.0084,158.8977
1142.8007,99.27726,338.62277
571.0107,-446.48474,35.201412
2112.809,1798.1232,-315.57092
-2225.0806,8151.728,-2597.501
-1472.4395,3264.718,-608.8153
258.58878,328.02988,-260.4373
-1557.289,587.16614,-287.627
-976.69965,-969.2479,90.154045
-1623.4176,-1040.2749,-891.5315
-1451.5784,-1234.3689,-225.55579
-1791.0033,-322.8977,-227.63322
-1601.5588,-142.83282,-241.81053
-3473.2686,5123.311,-840.0123
-2984.0347,5353.152,-297.35492
-340.3806,2902.7427,400.83078
729.0425,233.02748,-762.26556
1097.1643,600.2298,-165.72697
1395.5272,-55.42933,216.3541
1187.4211,196.2015,468.1458
1358.4395,-415.81845,523.3369
654.0547,506.38065,209.31456
986.9277,-722.28815,4.6050406
488.88626,5025.436,-1328.196
-4085.0967,8752.691,-2647.5227
-635.7698,981.8169,-356.50613
-1311.6127,987.0202,-297.86868
-1617.4171,-575.09973,167.13484
-1225.9081,-1269.0687,-435.42117
-1600.1044,-1849.2339,-915.6253
-1574.9287,-873.0959,-565.03815
-1978.8379,-501.46707,24.648445
-2130.8848,2021.6571,-1157.9061
-3722.2573,7378.059,-748.1465
-584.3069,4600.2227,-37.826527
933.4683,973.19995,-256.99838
978.6844,677.01654,-161.57141
1007.40985,-449.89975,98.82702
1094.2847,258.41592,-74.35074
1159.9406,-373.67853,292.43723
987.6924,204.7622,26.24229
950.2646,-428.09125,450.9946
795.67084,3649.5715,-970.4414
-3885.1907,8591.735,-2759.8267
-868.6472,1495.7063,-235.38599
-343.811,1106.532,-738.2927
-1423.7479,-335.691,-6.4812756
-1126.926,-530.8924,-436.5305
-1765.7272,-1659.247,-997.1484
-1458.478,-1608.103,-793.116
-1961.3585,-450.71494,-24.057611
-1674.1082,253.60936,-468.66122
-4148.5674,4136.5757,-726.47363
-2618.101,7292.5483,-845.6951
423.68985,1974.6777,43.990444
906.8256,841.77545,-411.88614
771.2861,179.77275,48.782658
1297.9353,331.05,-166.01083
1662.0195,-36.713047,227.8391
1528.3817,239.39995,-120.01323
944.977,-91.90914,-182.11833
1453.7279,1276.1233,-727.4606
-1971.3168,9495.598,-2243.1006
-2659.9072,4278.482,-1129.316
-1118.6469,626.1126,-217.11203
-1974.2452,346.31726,-182.23178
-1034.9812,-439.67532,28.62464
-1901.8535,-824.46936,-696.3514
-1572.9078,-1782.2494,-729.16345
-1678.0013,-342.92984,-583.8132
-885.0059,-205.86021,82.63845
-2044.6058,3474.8782,-1419.2104
-2045.5428,6506.888,-1576.5089
371.48947,4107.8467,-560.4466
1226.1924,561.14923,-170.2661
895.3207,727.3249,-105.082
1262.8857,-394.65085,241.21106
1057.141,608.7522,219.50838
1234.3771,-667.9491,429.30167
634.04755,441.22357,-94.39652
1245.4852,-872.3859,331.4407
244.36711,5812.98,-809.7414
-2302.2317,6808.144,-1467.463
47.324436,690.1316,-377.52844
-555.92065,846.93445,-257.15848
-845.12445,-329.7042,-254.83524
-1017.4002,-213.60025,-353.88885
-1065.7134,-931.52563,-611.4438
-1144.1205,-438.4709,-515.9966
-1304.8765,-371.38638,-188.08781
-1082.578,1206.6271,249.42711
-1884.6536,4418.35,-256.66614
-757.2303,5683.3433,21.708733
799.15515,1939.5448,57.62873
1108.6857,874.09375,-208.06398
941.3195,169.90848,-167.67082
1238.6693,-263.30365,52.616844
1135.0632,94.27413,136.71143
1063.4501,-380.40994,303.03925
478.47305,107.86791,-117.7715
1512.4076,-236.459,77.09951
62.942978,5439.257,-1512.6382
-2633.053,6812.89,-1554.292
318.75122,743.8565,-235.16995
-766.2208,877.7383,-294.17343
-1121.7648,-162.2869,183.07231
-1314.731,-377.6349,-252.24289
-1478.8853,-817.2133,-444.61246
-1130.3414,-697.9639,-243.04721
-999.149,-446.6895,-115.52525
-920.03485,586.189,-184.6128
-2489.5222,4985.947,-423.51978
-1244.7273,5317.0015,95.37455
320.81604,1596.864,222.51299
258.67773,914.27496,-79.229065
726.79834,75.11811,-95.95747
775.0881,-90.913574,60.890118
1094.2466,-60.296223,63.634842
1068.0807,-400.11032,270.71014
700.1817,65.37819,-51.174908
1338.2168,-255.81236,141.14534
962.7225,3859.573,-979.0989
-2699.6333,7157.415,-1516.9829
-610.54047,1875.6122,49.368748
-1051.8138,1255.2096,-95.06574
-1401.0876,171.38632,248.35266
-1301.4003,-637.7435,-279.9877
-1180.0588,-1473.0872,-639.2322
-989.11584,-853.1662,-454.50302
-900.3237,-566.1747,-4.2835317
-1096.2153,1133.4303,-236.18922
-2097.4136,4526.3457,-586.3008
-841.3366,5111.0786,-235.81529
702.29553,1936.9547,-116.39759
623.68964,955.7349,-121.01577
829.50916,314.0834,-31.08615
800.82117,-111.58903,121.23437
942.1653,94.542786,116.97786
1085.3164,-344.305,302.49988
959.9976,174.21672,-67.72027
1354.0065,-109.866455,478.74997
-248.49574,3675.5645,-1416.581
-4318.0254,7179.6094,-2237.5818
-617.0293,1455.4943,-395.176
-578.21655,1201.109,-608.3092
-1074.2981,211.7898,369.56238
-839.65216,348.79776,-205.67365
-1107.8121,-158.14062,-242.08566
-1240.6611,-330.40466,-479.8857
-1053.8234,-551.19336,-296.30994
-1027.0483,-293.2182,-514.3119
-1089.2787,250.13107,-212.31786
-2013.6938,1020.4923,252.15051
-3242.1804,755.32947,37.96012
-4630.0874,1026.1448,-694.3596
-4534.9116,1252.7104,-1440.3271
-2515.4211,1763.004,-638.6134
-1965.6294,754.9109,-128.04956
-1463.5474,1082.3969,-783.5666
-754.8276,1107.4353,-980.94
-378.9584,997.0942,-826.1782
-527.1018,912.01825,-430.56165
-256.36792,1133.4622,-778.1016
-626.2775,1077.6929,-746.40955
-1139.9796,1025.8905,-640.54346
-1458.1309,927.9999,-321.7483
-2257.9492,1049.2509,-512.5065
-3339.5137,1198.9408,-421.80167
-3664.4043,1006.315,-632.7231
-3806.0042,609.5719,-412.03925
-3347.1672,270.79877,-308.75876
-2579.814,159.7617,-51.631405
-1876.2828,229.84802,-126.67718
-1419.7256,307.9485,7.91139
-1200.8607,297.51053,-116.03328
-981.5328,209.24208,-17.131557
-697.8185,57.701088,-130.24243
-471.6999,63.303368,33.84862
-329.85583,-28.744875,12.676282
-236.89583,16.964317,124.403915
286.38327,53.111797,207.12595
361.60684,58.002857,367.723
134.65422,-54.56518,365.72174
