acc_x[mg],acc_y[mg],acc_z[mg]
-421.632,816.668,163.724
-441.64,810.568,183.732
-296.704,1010.892,141.032
-208.132,1112.64,107.116
-276.452,1027.728,156.16
-309.392,976.732,143.716
-368.928,916.464,145.668
-299.144,966.24,113.216
-187.148,1000.644,108.824
-197.64,1057.252,115.656
-320.372,1068.232,117.12
-281.332,1085.8,136.884
-194.956,1013.088,207.644
-120.78,941.84,168.116
-174.948,856.44,194.224
-165.92,904.996,255.468
73.2,1108.736,53.924
101.748,1137.04,-59.048
-54.656,852.78,39.772
-175.924,457.988,271.816
-150.792,402.112,395.768
140.056,590.724,206.18
589.992,820.816,-45.872
567.544,455.548,101.26
89.792,492.88,233.02
-80.52,193.004,209.108
89.304,241.804,189.344
282.308,328.18,69.296
339.404,388.448,6.588
274.744,261.324,68.564
257.42,176.656,152.256
399.916,163.236,116.876
618.296,140.056,10.98
631.472,107.36,28.792
496.784,51.484,105.652
663.68,11.468,115.412
719.068,37.576,68.076
770.308,125.416,-43.92
842.288,155.672,-186.66
859.368,65.148,-211.304
875.228,-109.312,-58.804
907.924,-96.38,5.124
1084.58,-69.54,-68.076
1245.62,-115.168,-219.112
1301.496,-254.736,-206.18
1351.028,-186.416,-53.436
1512.556,93.94,-187.636
1768.024,91.988,-355.996
2013.0,-26.596,-393.084
1849.764,-344.528,-71.736
1716.54,-394.304,236.68
1780.712,-183.732,148.84
1890.024,-58.316,30.744
1921.988,-107.848,-5.124
1957.856,-200.568,63.928
1977.62,-189.1,115.168
1926.868,-54.412,109.556
1947.608,-132.98,151.036
2057.652,-234.484,267.668
2048.868,-261.568,309.148
1920.768,-223.016,301.584
1849.032,-250.344,298.412
1786.08,-307.196,333.304
1698.484,-349.164,387.96
1512.8,-373.32,448.96
1425.204,-372.588,442.616
1365.424,-312.564,406.504
1333.704,-333.792,479.46
1316.624,-309.148,563.152
1152.656,-283.284,500.688
1095.56,-161.772,360.632
986.248,-153.232,464.332
916.952,-168.116,540.216
925.736,-131.028,514.108
845.704,-91.5,399.428
682.956,-23.18,357.948
556.076,-15.86,335.012
612.928,74.42,270.352
827.892,250.1,175.68
688.568,243.268,143.716
387.472,54.412,226.188
249.612,10.248,215.452
96.868,0.244,111.02
-42.944,50.996,51.972
-87.108,232.776,0.0
-152.012,417.484,-26.108
-156.648,554.124,-204.472
-167.14,539.24,-183.488
-139.08,493.124,-46.36
29.036,583.404,-30.5
125.904,757.132,9.028
262.544,826.672,4.148
441.396,843.02,56.608
446.764,801.784,113.216
332.084,766.648,241.804
308.904,835.944,332.572
204.716,946.964,385.032
234.972,985.272,209.596
232.532,1011.38,45.872
110.776,1004.304,7.076
-162.016,1092.388,30.988
-198.372,1017.724,-71.736
-188.124,992.348,-50.508
-117.852,1073.112,-66.612
-151.524,1021.384,9.516
-443.836,750.056,277.916
-427.0,729.804,188.612
-457.256,825.452,28.304
-519.476,761.768,38.552
-524.112,828.136,118.584
-432.124,824.72,161.04
-429.928,720.532,362.096
-434.32,767.136,312.564
-447.984,965.02,102.724
-522.648,946.232,40.26
-494.832,982.344,76.128
-302.804,1029.68,211.792
-294.264,891.82,380.64
-363.804,935.008,212.28
-352.092,1055.3,88.328
-417.728,1005.524,116.632
-438.468,953.308,163.236
-372.832,788.852,267.912
-352.336,747.372,409.676
-278.648,1019.188,238.144
-281.82,1175.592,162.016
-339.16,1048.468,187.636
-341.6,946.476,232.044
-314.272,818.376,283.772
-345.26,892.552,229.116
-338.916,1061.888,92.232
-278.892,1136.552,28.792
-277.672,1084.824,61.488
-279.38,981.124,115.168
-276.208,877.18,193.248
-193.492,940.132,218.38
-196.908,983.32,150.304
-172.02,1026.996,148.108
-208.132,1000.888,112.484
-209.108,974.048,164.7
-199.836,859.856,191.54
-282.552,832.528,255.468
-194.712,979.66,149.816
-177.632,1007.476,164.212
-195.444,991.616,156.16
-237.168,977.952,61.976
-292.8,945.988,48.8
-287.188,896.7,117.364
-209.84,976.976,129.564
-156.648,1009.184,137.372
-193.004,995.276,133.712
-239.364,913.536,116.876
-233.996,851.56,175.68
-167.872,850.34,226.92
-115.9,900.604,247.416
-90.524,925.98,256.932
-86.62,870.836,313.784
-117.12,766.16,376.248
-86.864,729.56,437.248
11.224,810.568,479.948
33.672,884.988,505.812
17.568,855.708,511.18
9.272,838.384,538.752
42.456,881.084,511.668
40.748,1021.384,422.852
-44.896,1105.808,392.108
-186.172,1260.748,259.128
-126.636,1220.976,116.632
-22.936,1038.952,210.328
-21.472,1138.504,197.152
-25.864,1406.904,-12.932
-62.952,1497.916,-150.792
-122.732,1372.256,-187.148
-178.364,1203.164,-124.196
-216.184,1126.792,-159.576
-244.0,1193.648,-267.668
-235.704,1300.276,-367.708
-243.512,1284.172,-352.336
-172.02,1088.972,-279.868
-86.376,1062.62,-192.272
12.2,1243.912,-254.98
-15.372,1203.652,-365.512
-86.376,1030.9,-369.172
-85.156,971.852,-228.628
-48.556,949.404,-151.28
-68.808,1021.384,-204.472
49.532,916.464,-273.036
88.816,902.556,-51.24
75.64,826.428,-48.556
-13.664,657.58,61.0
-37.576,767.38,75.884
133.712,911.096,-68.808
101.26,798.124,23.912
-10.736,720.776,99.308
9.76,814.96,108.092
7.076,865.712,103.944
-75.152,860.588,75.64
-117.12,902.556,61.976
-110.288,868.884,132.492
-122.976,831.552,161.04
-101.26,898.408,179.34
-96.38,932.08,174.948
-88.328,1021.872,136.884
-97.112,988.932,126.636
-121.512,971.364,176.9
-79.056,998.204,215.696
-66.124,1003.816,209.352
-107.116,1022.116,143.716
-164.944,1022.116,106.384
-188.612,1035.78,90.768
-114.436,1087.02,93.94
15.86,1098.488,66.856
148.596,1185.84,42.7
223.992,1153.144,-78.08
80.032,931.348,54.656
30.988,777.14,172.996
76.86,1013.576,174.704
317.688,926.956,242.048
563.396,710.772,233.752
746.64,757.62,116.144
661.972,776.164,-77.348
497.76,735.172,84.18
405.772,760.06,227.164
502.64,468.236,252.296
721.996,300.852,201.056
834.48,350.628,90.28
629.52,531.432,65.148
594.872,532.164,150.06
803.004,547.292,-11.956
890.356,405.04,55.388
869.616,341.112,114.924
911.584,436.028,112.484
834.236,406.748,157.38
802.028,374.052,193.98
720.776,285.968,157.624
604.632,191.54,252.052
518.744,198.372,190.076
392.596,173.972,212.036
283.772,112.972,215.208
319.152,118.584,95.648
97.356,84.912,78.324
31.72,42.456,128.588
279.136,116.632,-17.08
408.212,27.816,-10.98
414.8,-208.62,98.332
447.984,-314.516,-78.568
613.66,-142.008,-253.272
787.876,-91.256,-313.54
907.192,-89.548,-241.56
1388.116,-248.148,-307.196
1589.904,-323.056,-313.052
1541.592,-340.136,-170.068
1572.824,-164.944,-216.184
1618.94,-172.996,-186.172
1739.232,-215.452,-248.148
1924.428,-194.224,-356.972
1835.368,-88.816,-239.852
1908.324,60.024,-231.312
2115.48,78.08,-313.784
2213.812,13.42,-321.836
2193.804,-195.444,-69.052
1999.092,-147.132,85.888
1893.684,-49.776,76.616
2097.424,-35.868,1.952
2109.868,-91.744,-55.876
1949.804,-223.504,182.512
1926.624,-127.612,200.324
1893.928,33.428,60.024
1746.064,-12.932,16.592
1765.34,-182.268,163.724
1732.644,-291.58,333.792
1629.92,-267.668,285.724
1721.908,-109.068,86.376
1600.884,-202.276,102.968
1280.512,-329.156,371.856
1121.424,-343.308,520.452
1021.384,-322.324,485.072
1064.816,-99.796,307.928
1056.52,-47.824,206.424
777.872,-63.44,346.968
783.972,23.424,303.292
750.544,71.492,203.496
668.804,143.716,171.288
597.8,135.664,152.744
469.944,98.82,145.912
344.284,45.384,170.068
169.092,15.128,216.916
203.496,29.768,131.028
144.204,124.928,10.98
-48.556,260.104,-5.124
-262.544,306.708,41.48
-283.04,726.388,164.456
-39.772,575.596,-3.172
-197.396,161.284,-98.576
-78.324,254.492,-94.916
-162.992,496.296,40.016
-452.62,1028.948,-20.008
-375.028,749.812,-23.668
-150.792,774.212,115.656
26.352,928.664,126.88
-1.708,1149.24,259.128
-109.8,1220.732,151.28
-336.964,897.92,191.54
-295.728,840.336,231.312
-19.52,1109.224,282.552
-32.452,1165.832,333.548
-183.0,1152.412,163.48
-429.684,913.78,63.44
-462.868,857.172,113.948
-415.776,874.74,162.26
-362.828,988.688,114.924
-351.116,971.12,115.9
-390.156,905.24,130.052
-372.832,926.468,79.3
-389.424,833.992,160.064
-433.588,891.82,158.6
-358.68,1006.012,106.384
-375.516,1039.684,16.104
-362.828,992.348,115.9
-284.26,897.432,200.812
-393.816,752.74,275.232
-355.02,916.22,116.144
-327.692,958.676,187.636
-326.96,972.34,155.916
-334.036,992.592,120.536
-343.552,965.02,77.348
-416.02,960.872,37.088
-373.564,908.9,106.872
-363.56,887.428,167.384
-350.872,930.86,101.016
-343.308,915.0,133.468
-315.492,914.756,122.488
-319.152,889.868,126.636
-344.284,902.312,57.34
-339.892,934.276,126.392
-314.76,963.312,81.252
-364.536,879.62,69.296
-344.528,898.408,103.212
-384.788,853.756,63.44
-307.928,945.744,99.308
-265.472,967.216,126.636
-268.644,941.352,145.668
-258.152,925.004,158.112
-285.724,901.824,150.304
-312.32,870.348,147.62
-278.404,888.404,152.988
-266.204,918.416,159.82
-237.9,931.348,161.284
-236.924,898.652,190.808
-239.12,861.32,215.452
-252.052,858.88,226.432
-205.448,874.008,262.056
-146.4,850.584,320.86
-148.596,779.092,432.856
-177.632,697.84,466.04
-117.608,722.728,504.104
-108.092,707.844,559.004
-106.628,709.064,550.708
-71.98,815.692,489.464
-118.584,903.532,362.096
-172.508,929.884,305.244
-189.344,882.304,320.372
-124.44,923.296,350.872
-109.312,1058.472,256.932
-161.528,1270.264,12.444
-188.124,1280.512,-152.256
-219.844,1209.02,-110.288
-173.728,1236.836,-172.02
-169.336,1254.892,-237.168
-246.196,1232.688,-280.844
-217.648,1236.836,-338.916
-206.912,1171.2,-345.016
-206.912,1059.448,-283.04
-158.112,1086.288,-275.476
-215.208,1051.64,-298.656
-252.296,972.828,-284.26
-177.144,993.812,-266.692
-147.376,1007.964,-211.548
-61.976,978.684,-148.352
-44.164,876.204,-49.044
-130.296,817.888,-68.564
-133.468,944.036,-119.804
-165.92,928.176,-104.676
-185.44,917.44,-87.352
-106.384,986.248,-35.136
-135.176,956.236,-9.272
-144.936,972.584,-64.416
-159.82,980.88,-27.816
-125.416,1006.988,-5.856
-127.368,1037.732,15.86
-148.596,1043.1,18.788
-126.88,1109.224,-15.86
-78.812,1165.832,-38.308
0.244,1195.6,3.172
139.08,1180.716,-11.712
174.948,1096.536,-77.348
178.852,1001.62,43.676
182.512,843.264,279.624
71.736,763.72,431.636
256.932,801.784,465.552
445.544,809.836,303.536
546.804,834.968,161.04
623.664,846.436,120.536
729.072,907.68,26.84
680.272,969.9,67.588
548.024,682.956,328.912
699.792,500.688,208.62
839.848,642.94,99.552
781.044,668.804,53.192
640.744,583.892,119.804
727.364,667.584,95.892
685.64,566.324,118.584
630.74,415.044,188.612
606.34,461.16,160.308
539.484,507.52,157.136
512.888,459.94,158.112
515.816,333.304,126.392
363.804,238.388,155.672
282.064,214.72,208.376
246.196,304.024,90.28
102.236,194.468,104.188
51.484,64.416,67.588
162.26,-57.096,-6.588
316.468,-25.864,-175.436
226.92,-6.588,-118.828
193.736,45.628,-81.984
445.544,72.956,-249.612
950.624,105.896,-546.072
1066.036,-95.892,-301.096
1204.14,-188.612,-106.872
1566.968,-206.18,-83.936
1908.568,-37.576,-200.812
2020.32,85.156,-186.904
2170.868,-11.712,-83.692
2358.26,-67.1,-38.308
2609.336,137.128,15.616
2757.688,203.008,66.612
2745.732,132.492,209.352
2544.432,47.58,342.088
2248.704,-4.636,454.328
2075.952,21.228,446.032
1896.368,-3.416,454.084
1662.372,-5.368,536.312
1557.452,-83.448,491.904
1445.7,-92.476,452.132
1263.92,-83.204,501.908
1082.14,-71.248,599.02
987.712,-22.936,591.212
928.176,-4.392,532.896
925.248,18.3,453.108
802.028,29.768,457.988
656.116,99.064,467.748
652.456,131.516,325.984
599.02,122.976,220.088
357.948,48.068,235.704
321.104,80.764,219.6
261.812,53.68,194.956
222.772,39.04,177.632
184.464,165.188,117.852
69.296,216.672,80.276
-38.796,240.096,61.976
16.104,264.008,79.056
56.364,371.124,57.34
200.324,556.32,-91.5
215.452,658.8,-142.984
384.544,706.136,0.976
545.828,665.876,111.02
663.192,733.22,133.468
930.128,911.34,36.6
1207.8,1045.784,31.476
1306.376,1084.092,84.18
1307.84,782.508,341.6
974.536,708.088,322.08
584.38,701.744,304.512
94.916,742.98,202.52
81.74,758.352,253.516
-83.692,755.18,376.98
-348.432,928.42,142.008
-556.076,766.892,140.788
-782.752,437.98,113.704
-510.936,876.204,117.364
-337.696,1084.58,186.904
-490.928,904.508,203.252
-608.78,680.76,218.136
-650.26,630.252,177.144
-517.036,928.908,150.792
-393.816,1052.86,131.76
-393.328,956.724,188.612
-414.312,779.824,342.088
-428.708,772.748,256.444
-396.012,960.628,186.416
-358.436,989.908,170.068
-364.292,954.04,213.012
-351.116,927.2,208.132
-417.484,786.656,240.828
-475.068,797.392,218.868
-364.536,946.964,183.0
-328.424,990.884,155.428
-348.188,922.564,179.34
-372.344,849.852,195.444
-393.816,848.876,180.56
-378.688,903.044,176.9
-359.168,941.352,159.576
-327.692,926.224,172.02
-330.62,825.94,229.848
-289.384,858.88,222.772
-319.396,905.24,232.288
-357.46,935.252,208.376
-355.508,891.088,175.68
-342.82,833.26,209.108
-351.116,827.16,212.28
-344.528,906.216,206.912
-309.392,923.296,196.908
-327.936,918.172,174.948
-336.232,908.656,175.924
-298.9,897.92,210.572
-336.72,876.204,176.656
-312.564,870.104,218.38
-285.48,852.536,231.312
-321.104,827.648,207.888
-272.06,915.488,207.888
-261.568,894.748,240.096
-256.932,843.752,261.324
-268.156,826.428,285.724
-271.816,826.916,254.248
-269.376,833.748,277.428
-226.188,861.076,313.54
-267.668,869.86,306.464
-200.08,860.832,347.7
-207.4,839.36,344.528
-204.716,847.9,357.948
-203.008,811.056,401.624
-143.716,793.732,499.712
-133.956,761.524,530.212
-171.044,799.588,450.912
-195.2,879.62,465.796
-169.58,1004.548,435.784
-175.68,1059.936,411.384
-201.788,1108.98,346.48
-253.76,1189.744,280.844
-216.672,1283.684,261.812
-178.608,1313.696,241.316
-159.332,1230.248,315.004
-159.088,1037.244,404.552
-188.856,953.552,392.352
-181.292,998.692,270.596
-85.156,1236.348,189.588
-55.632,1242.448,108.58
-101.748,1059.936,62.464
-180.316,920.124,90.768
-133.956,985.272,69.54
-85.4,1055.3,-65.636
-12.444,1160.952,-160.064
123.952,1197.308,-179.096
54.168,961.848,-105.652
28.06,850.34,-76.616
19.764,940.864,-180.072
-89.548,964.288,-220.088
-15.128,968.68,-154.94
67.344,991.372,-59.292
53.192,925.248,-26.84
38.552,889.624,30.256
-58.316,912.56,58.316
-69.54,986.004,69.784
27.572,995.764,85.4
88.816,996.74,129.076
104.432,1016.016,164.456
5.856,948.672,149.084
-40.748,949.404,143.96
82.228,1030.9,139.08
161.04,1050.664,231.556
103.7,912.804,264.496
118.34,915.732,209.596
117.608,880.84,209.352
186.172,985.516,211.548
294.996,933.788,269.132
251.808,828.868,405.04
276.208,883.768,326.96
276.452,936.96,247.904
200.568,874.252,260.836
134.688,824.72,256.932
254.004,905.972,250.588
300.12,875.472,309.88
268.888,823.012,371.856
223.504,806.664,373.32
146.644,821.548,298.9
172.752,877.912,245.952
205.204,839.848,261.324
309.636,792.024,192.272
363.316,778.604,147.376
287.676,602.68,198.372
84.668,387.472,207.644
281.332,363.56,255.956
498.248,412.848,244.488
526.308,326.472,-93.696
252.54,562.908,-63.928
-21.716,477.752,-4.88
-65.148,367.708,175.68
269.864,309.636,227.896
252.052,95.892,111.02
233.752,2.684,132.004
425.292,60.512,-16.104
522.648,46.116,-4.392
866.688,97.356,-98.576
980.392,-144.936,7.32
1034.56,-333.792,37.088
1252.208,-393.328,-21.716
1411.784,-155.428,-122.244
1585.512,-80.764,-153.964
1668.228,-261.568,-87.596
1747.04,-339.16,-124.928
1718.248,-221.064,-150.06
1883.192,18.788,-278.16
1965.42,55.388,-332.572
1923.452,-16.348,-245.464
1812.676,-68.564,-146.4
1855.376,17.812,-112.484
2115.968,-3.172,-95.892
2220.4,-117.852,-93.452
2060.824,-116.144,19.032
2000.068,-88.084,100.284
2057.652,-80.764,222.528
2119.872,-143.96,257.908
1973.228,-184.464,274.5
1688.968,-270.352,366.488
1561.356,-210.816,354.288
1519.144,-238.144,281.088
1371.524,-277.916,290.848
1071.16,-278.404,462.136
976.244,-152.744,507.52
1045.54,46.604,418.704
1099.464,18.544,521.916
956.236,-115.9,544.608
786.168,-193.248,556.32
559.004,-201.544,651.724
453.352,-236.68,581.452
412.848,-164.456,458.964
284.26,-66.612,305.244
188.612,27.572,199.104
176.412,130.052,20.252
41.968,228.628,-25.132
-132.248,239.608,82.472
-110.532,233.752,27.572
-30.256,327.936,-6.1
46.604,482.632,-81.496
95.648,671.732,-152.5
44.896,765.672,-28.792
124.44,761.768,20.252
416.996,707.6,116.388
719.312,907.192,139.324
807.884,1185.108,245.708
491.416,1071.648,373.076
185.44,708.088,244.732
119.316,542.9,56.364
287.432,1237.08,276.696
206.424,1270.508,394.548
-52.704,1158.512,261.08
-332.572,887.672,294.752
-436.028,796.66,269.864
-499.224,607.316,248.636
-445.544,614.88,186.416
-422.852,916.952,347.456
-315.98,1071.892,315.736
-396.256,1027.728,161.284
-523.868,833.26,86.376
-578.524,690.276,139.08
-475.556,831.552,216.672
-373.076,994.788,207.156
-330.376,1040.416,197.152
-375.028,963.068,175.436
-415.776,877.668,133.956
-464.576,824.476,157.38
-371.368,987.712,139.324
-252.052,1106.54,131.516
-242.78,970.144,169.58
-305.732,778.116,277.428
-330.376,803.492,287.188
-352.824,897.676,186.416
-347.7,900.36,227.164
-259.128,937.692,255.224
-299.632,911.096,177.144
-315.736,925.004,166.652
-282.308,932.324,191.296
-299.876,901.336,221.308
-354.044,909.388,178.852
-411.628,893.772,77.592
-258.152,1000.644,162.26
-158.356,1048.956,199.592
-221.308,988.2,204.472
-250.588,971.608,200.324
-359.9,984.052,40.748
-327.204,968.68,144.692
-223.016,929.884,241.56
-225.212,861.076,314.028
-236.924,885.476,241.072
-196.908,981.856,264.496
-218.38,1013.332,158.356
-281.576,915.0,209.352
-318.176,841.068,210.816
-244.976,904.264,230.336
-228.384,943.304,190.564
-271.816,959.652,186.416
-290.848,902.312,187.392
-311.1,867.42,194.956
-233.752,905.972,221.552
-212.524,960.628,225.212
-233.996,968.924,189.1
-225.212,957.456,180.072
-269.132,911.828,185.44
-263.032,914.512,177.388
-230.58,891.576,237.168
-222.04,925.492,230.336
-187.392,998.692,194.956
-209.596,986.736,180.316
-269.62,934.52,165.188
-261.812,902.068,219.356
-240.584,901.092,234.484
-241.072,885.476,235.948
-230.824,946.964,228.628
-234.972,989.176,158.356
-213.988,935.984,239.364
-193.736,933.056,242.048
-202.764,950.868,235.46
-250.832,930.86,184.708
-200.812,911.828,266.204
-202.52,869.128,280.6
-210.084,874.74,267.424
-207.156,901.824,249.124
-212.036,907.436,240.584
-196.176,908.168,255.224
-190.32,858.392,273.036
-186.904,817.4,290.36
-156.648,817.4,323.3
-134.444,812.52,349.408
-115.412,803.248,374.54
-115.9,831.064,355.752
-107.604,882.548,309.636
-114.924,892.552,231.8
-122.244,885.232,220.82
-91.988,900.116,225.456
-64.416,909.388,219.844
-48.8,883.768,329.4
-23.424,735.416,482.632
-35.38,713.944,495.32
-85.156,856.44,412.116
-71.492,1212.68,268.644
31.964,1367.132,155.916
50.996,1297.348,242.048
10.98,1143.872,420.9
-47.58,1196.332,446.52
-17.08,1265.872,380.152
48.068,1240.74,305.0
67.1,1198.04,215.696
199.104,1269.044,153.72
156.648,1239.52,113.704
120.78,1252.94,-3.416
83.936,1214.876,-34.404
96.136,1134.112,-70.516
125.904,1109.224,-92.476
180.072,1031.876,-81.74
226.432,1006.988,-54.9
123.22,902.556,-83.204
34.404,743.712,-116.388
83.448,903.044,-75.64
203.496,954.284,-108.336
237.412,893.772,34.16
185.928,777.872,53.924
83.692,841.556,75.884
30.012,953.796,32.208
-25.864,964.288,20.496
20.252,941.84,61.488
61.0,912.316,96.38
58.072,930.372,125.416
47.58,977.464,156.648
32.94,1015.284,101.748
-71.98,945.988,27.572
-70.028,1001.376,97.844
67.344,1050.908,57.584
44.408,864.492,173.484
-102.968,772.016,258.884
-20.008,867.42,245.464
152.012,963.556,162.992
103.212,900.848,184.464
114.924,668.804,203.252
377.224,516.304,99.552
550.464,545.828,-122.732
706.38,840.824,-229.604
633.668,1347.124,-363.804
701.012,1428.376,15.86
805.444,966.972,30.988
602.924,463.356,53.192
346.968,688.324,464.088
572.668,633.912,302.316
697.84,666.852,52.46
696.132,471.896,198.616
693.204,397.476,546.316
1006.012,430.416,46.848
1026.752,320.372,36.112
911.34,344.04,289.384
939.644,210.328,291.092
1039.684,253.516,298.9
1057.496,194.712,212.036
1031.632,288.164,142.496
1008.94,359.9,58.072
1083.848,344.528,55.388
1067.5,255.224,192.76
1004.06,248.88,267.912
1001.864,304.024,211.304
999.18,258.884,216.916
972.584,217.16,272.06
1026.996,294.508,182.512
1053.348,314.76,150.548
1065.06,331.596,133.468
1062.864,285.236,175.436
1036.512,227.896,235.704
984.54,208.864,272.548
904.752,222.772,277.916
843.752,251.32,254.98
854.488,274.5,193.492
738.1,167.872,282.308
681.98,116.876,281.088
668.56,146.156,261.812
620.736,177.876,204.716
484.34,190.808,224.48
360.144,162.748,186.904
219.844,120.536,172.264
130.54,95.404,116.876
103.7,53.436,91.256
40.26,153.964,-11.468
1.464,168.116,-118.096
66.612,85.644,-184.22
249.612,-103.212,-233.752
559.736,-159.576,-373.076
517.036,87.84,-694.18
1009.916,19.764,-721.752
1108.736,-249.368,-388.204
1453.752,-360.388,-405.04
1374.94,-254.736,-694.424
1770.464,-192.76,-654.652
1798.036,-300.12,-438.956
1943.948,-434.076,-339.404
2199.904,-424.804,-502.884
2308.484,-253.272,-496.296
2407.06,-347.944,-282.796
2512.224,-550.952,-92.72
2434.144,-582.428,-12.2
2421.7,-471.652,36.844
2311.168,-418.948,164.7
2259.684,-497.76,303.048
2163.06,-538.508,343.796
2014.708,-580.476,420.412
1881.484,-561.2,408.456
1695.068,-489.464,398.696
1478.64,-439.932,422.12
1338.34,-479.46,492.636
1161.44,-451.644,490.44
1044.808,-428.708,487.756
909.144,-330.132,471.652
886.696,-231.556,372.588
707.844,-264.252,470.188
649.04,-164.944,448.716
628.788,-81.984,439.2
622.2,-33.428,354.044
578.768,81.496,245.708
411.384,71.492,309.148
451.644,74.42,295.24
235.216,91.744,158.356
167.14,260.592,8.784
202.032,366.244,-167.872
215.94,365.024,-201.544
-35.38,325.496,-136.152
-261.324,404.552,-69.784
-181.048,430.66,-15.372
69.052,491.66,-152.988
75.884,607.56,-228.14
104.432,708.82,-134.688
231.068,711.26,-32.94
414.556,740.784,-89.06
595.36,949.892,-176.656
837.408,1020.408,-250.1
963.556,968.192,-118.828
1055.788,803.004,57.584
869.128,649.284,266.448
885.232,1014.552,453.352
784.704,909.876,277.428
516.06,889.136,146.156
213.988,653.92,353.8
117.364,838.872,288.408
235.46,1054.812,123.952
202.032,900.36,247.172
-16.348,862.052,241.804
-263.032,670.512,181.536
-412.36,490.44,237.412
-264.252,789.096,304.756
-85.644,1059.692,244.732
-215.452,1124.352,205.448
-345.26,936.96,160.796
-357.46,886.452,143.472
-363.072,924.76,151.28
-293.776,947.208,129.564
-231.068,1040.416,155.916
-311.344,1072.136,161.772
-309.392,955.26,143.716
-336.476,870.592,207.888
-271.328,999.18,200.324
-188.368,1000.4,205.204
-192.76,942.572,233.508
-167.384,954.04,189.588
-311.832,942.084,113.216
-365.268,902.8,140.544
-310.856,894.504,146.644
-187.88,941.596,264.008
-80.764,1068.476,211.06
-175.68,1010.648,137.616
-333.304,885.964,110.776
-328.912,915.732,124.684
-221.064,920.856,183.0
-261.324,933.788,222.772
-220.82,975.756,166.896
-205.204,975.268,158.112
-234.728,975.024,114.192
-209.352,960.628,132.492
-248.148,929.884,187.392
-244.976,921.344,153.232
-237.168,992.348,139.08
-217.648,1005.28,147.132
-185.196,991.86,181.536
-202.52,930.128,211.548
-204.96,900.848,222.772
-248.148,874.74,187.88
-196.42,940.62,188.124
-163.48,1044.076,171.776
-131.028,1042.368,190.32
-177.144,974.78,223.504
-188.368,936.472,172.508
-224.236,909.144,258.152
-210.328,903.288,253.516
-246.196,851.56,261.812
-202.276,890.6,261.812
-203.008,886.452,240.096
-189.1,899.384,243.756
-169.336,956.48,159.088
-161.528,966.484,193.736
-161.772,918.416,217.404
-166.652,893.528,234.484
-177.876,830.576,278.404
-165.432,840.824,315.736
-99.796,895.724,330.376
-82.228,925.492,337.208
-86.62,875.96,343.064
-142.252,809.348,348.188
-150.06,786.656,306.708
-119.072,1018.212,263.276
-108.58,1141.676,182.512
-130.784,1068.232,117.852
-191.54,1031.876,149.084
-92.72,1039.684,222.528
-34.892,1065.792,258.152
32.94,1115.324,201.544
-4.148,1110.932,175.436
-52.948,1111.42,168.604
-17.812,1151.924,140.3
5.612,1132.16,137.372
15.128,1076.284,120.048
-53.924,1105.808,56.12
-88.572,1140.456,-28.06
-59.536,1212.436,-28.304
-30.988,1216.584,-19.032
-52.216,1169.98,36.6
-61.976,1096.536,83.936
-46.36,1050.176,111.996
-15.128,1068.476,65.392
6.832,1115.568,37.82
-7.564,1019.676,70.76
25.376,1036.756,110.044
82.96,1038.952,148.596
73.688,1008.208,133.468
74.664,1016.016,76.616
-6.588,966.972,102.724
-46.848,957.944,129.32
-119.56,938.668,35.868
-78.568,939.156,-13.908
3.416,969.656,6.588
28.548,959.164,26.84
32.94,960.14,87.108
6.1,955.26,7.564
-148.352,883.28,-23.424
-198.616,866.444,15.86
-125.172,891.82,78.324
-68.808,895.968,110.776
38.552,985.028,92.232
152.012,1021.628,6.344
142.008,941.108,3.172
-11.956,759.084,162.26
86.62,732.732,350.14
346.724,879.62,341.112
459.452,870.592,312.076
478.24,775.188,273.524
456.768,831.552,186.172
437.736,879.62,220.332
571.936,986.492,308.66
797.636,1077.504,15.616
717.116,816.912,2.196
638.304,664.412,292.556
600.484,593.652,366.0
573.644,570.472,184.22
688.568,637.084,108.824
772.26,842.532,5.612
599.996,943.792,13.176
652.212,474.336,66.612
842.044,482.144,-75.152
526.064,830.088,193.736
241.56,459.452,382.348
556.32,513.864,194.224
785.436,599.996,-116.632
564.128,423.828,114.68
546.316,330.62,173.24
652.212,400.404,18.3
599.508,417.484,112.484
650.26,358.436,116.876
698.816,326.716,92.476
571.936,258.396,174.46
481.9,306.464,154.94
550.464,276.94,43.676
543.632,231.556,-4.148
429.928,124.196,119.56
440.908,107.848,148.84
256.444,75.884,164.456
310.856,51.484,164.7
453.108,132.736,71.736
681.736,164.212,-144.448
904.02,166.408,-309.392
853.024,-42.212,-162.992
773.968,-211.548,93.696
1068.232,-125.172,5.612
1535.492,85.156,-315.736
1654.32,68.808,-392.596
1685.064,-227.164,-168.604
1612.84,-319.152,30.256
1741.672,-64.416,-113.704
2086.444,-7.076,-284.016
2172.332,-166.652,-132.248
2206.98,-384.056,102.968
2246.508,-435.784,269.132
2301.652,-218.624,215.452
2343.376,-134.444,133.712
2243.824,-256.444,281.576
2072.78,-350.14,432.856
1885.388,-406.016,538.264
1712.148,-395.768,574.62
1649.684,-354.776,568.52
1428.376,-267.668,658.068
1417.152,-95.16,504.104
1454.484,-215.208,528.748
1403.488,-318.176,586.332
1184.62,-247.66,650.016
1082.872,-136.884,702.476
1025.044,-138.348,575.84
956.968,-106.628,425.292
787.388,-93.696,441.152
631.716,-77.592,441.884
587.308,51.972,353.556
583.648,141.276,181.78
455.548,204.96,76.372
277.428,124.684,108.824
53.436,36.844,219.112
8.54,44.652,202.276
-42.7,158.844,53.924
-107.116,283.04,-26.108
-285.968,341.356,-7.076
-186.66,357.46,-2.44
108.58,410.896,-171.532
256.688,588.284,-304.512
40.26,677.832,-123.952
49.532,744.2,139.568
584.38,884.988,-0.488
1031.876,918.172,-282.552
862.784,771.528,-21.96
906.948,712.968,410.896
330.62,648.552,372.344
115.9,983.32,145.668
239.852,1057.008,82.472
500.444,1184.376,236.436
502.396,1067.744,207.4
507.276,951.356,145.424
392.596,1038.464,147.62
101.26,1074.576,287.188
-119.56,940.864,418.704
-308.904,705.404,380.884
-329.644,584.624,113.948
-483.364,919.636,34.892
-441.884,1002.352,52.948
-431.88,878.156,200.568
-575.596,821.304,284.992
-662.46,700.28,289.14
-690.52,724.436,164.456
-590.968,863.272,178.608
-435.54,953.064,170.8
-498.004,875.716,165.92
-608.048,808.372,117.608
-695.888,767.868,48.068
-619.76,867.42,59.048
-403.82,967.948,141.52
-422.852,784.46,318.664
-435.052,698.084,336.72
-423.096,808.372,214.232
-458.232,877.668,164.456
-430.172,911.584,188.612
-380.884,932.324,215.452
-354.044,883.28,226.188
-377.956,931.348,194.956
-413.336,934.52,108.824
-452.132,916.952,122.732
-384.056,897.432,116.876
-384.788,776.164,300.608
-303.048,929.152,238.876
-267.424,1090.436,91.5
-360.388,941.352,136.64
-398.696,788.12,194.468
-394.304,777.628,249.856
-372.1,833.992,232.532
-377.224,884.5,162.504
-332.328,954.772,180.804
-253.272,1007.72,126.88
-338.672,893.528,203.74
-439.932,770.552,262.3
-371.368,845.948,203.496
-326.96,935.984,171.288
-282.796,981.124,161.04
-314.272,962.824,195.444
-300.852,918.172,234.484
-322.812,888.892,236.192
-325.008,880.352,202.032
-274.744,950.136,217.404
-227.652,1047.248,128.1
-195.2,1007.964,239.608
-233.02,865.224,290.848
-317.444,775.432,263.032
-252.784,884.012,247.416
-134.932,983.564,254.248
-158.844,1009.428,176.412
-161.04,960.384,253.028
-222.528,858.148,244.244
-284.504,823.256,211.548
-241.56,860.1,279.624
-207.888,940.864,265.716
-229.604,973.316,282.796
-237.412,885.964,332.084
-238.632,849.608,372.832
-153.232,926.468,369.416
-45.872,1002.352,320.372
-82.228,1000.888,291.58
-155.916,925.248,246.44
-230.824,901.336,265.96
-201.3,976.732,189.344
-191.54,1108.736,110.776
-210.084,1095.56,29.28
-213.256,1028.948,84.668
-227.164,958.92,160.552
-157.624,853.756,257.176
-141.032,938.424,232.288
-149.328,1055.544,101.016
-203.74,1016.748,65.88
-226.432,1033.096,73.688
-172.752,1019.676,111.02
-161.528,954.04,214.964
-116.632,961.848,254.492
-134.444,1008.94,240.584
-159.088,1003.816,255.468
-213.256,1013.332,289.628
-183.976,980.148,339.16
-108.336,913.536,482.144
-85.4,935.496,480.924
-131.516,1021.384,387.472
-219.356,1010.404,337.452
-275.964,1017.236,303.048
-250.588,1004.548,272.792
-203.008,975.024,282.796
-144.448,1044.076,230.092
-135.664,1039.684,91.256
-110.044,1034.804,46.116
-76.372,1016.748,103.944
-52.704,947.94,137.616
65.88,885.476,165.188
139.812,983.564,165.676
3.904,1002.352,-67.1
-159.088,1026.02,-113.216
-135.176,900.848,-79.3
15.86,943.304,-63.684
149.084,978.44,-21.716
197.884,1037.976,-24.156
126.392,1047.98,-110.288
18.056,1025.044,-179.828
5.368,1036.756,-89.06
122.0,1041.636,-17.812
241.804,1013.82,3.172
274.256,1014.308,43.92
200.812,1027.972,27.816
196.42,1014.552,-34.404
402.356,920.612,-49.532
475.312,828.136,-25.864
360.632,652.944,-71.98
549.732,746.152,-124.928
953.064,1250.5,-227.896
354.776,1976.156,-16.836
31.72,825.208,331.84
1007.72,265.96,23.18
917.928,425.048,-76.86
556.564,623.42,47.58
451.4,622.932,209.352
622.444,398.94,206.912
832.772,345.26,74.664
842.288,217.648,122.244
773.968,308.416,271.816
737.856,344.772,298.412
832.04,412.36,206.424
922.076,387.472,216.916
910.608,388.936,193.004
820.084,392.352,243.756
840.092,335.988,216.916
896.7,338.184,134.2
880.352,287.188,133.956
757.864,352.336,88.084
701.012,319.152,43.92
577.548,259.616,47.336
408.7,121.512,152.256
383.08,64.172,105.164
206.668,25.376,179.34
210.328,-1.708,160.064
167.628,121.512,35.868
42.7,198.128,10.004
291.58,128.1,-108.58
465.796,17.08,-41.236
505.324,-93.208,-82.716
509.96,133.224,-352.092
971.364,40.26,-474.092
998.692,-108.824,-238.632
1056.52,-168.116,-254.98
1413.004,-319.396,-297.192
1434.476,-186.904,-448.96
1616.744,127.856,-552.172
1705.072,-54.168,-393.084
1887.584,-229.604,-391.376
1724.836,-331.84,-269.62
1709.22,-128.832,-301.096
1719.468,59.536,-398.696
1768.268,31.476,-411.628
1833.66,-92.72,-345.26
2033.74,-101.992,-320.86
2123.044,-93.208,-210.572
2244.8,-174.46,-47.824
2384.856,-240.34,11.224
2346.06,-259.128,-13.176
2184.532,-281.088,129.564
2018.124,-223.016,161.772
1941.996,-261.08,181.78
1845.86,-309.636,142.252
1634.068,-337.94,146.4
1423.984,-303.78,221.552
1359.08,-268.888,243.268
1269.532,-283.284,239.608
1315.16,-201.3,184.708
1224.148,-129.564,272.304
1122.644,-166.896,335.988
1037.976,-173.728,282.064
961.848,-98.576,276.452
884.256,-142.252,346.968
842.288,-121.512,209.108
555.344,-158.844,229.604
198.616,-83.448,229.848
89.548,-17.08,126.636
177.876,37.088,-24.644
177.876,206.912,-173.484
-68.564,276.208,-72.712
-389.18,243.756,184.22
-428.708,288.652,100.284
-52.216,422.852,-221.308
237.9,601.704,-473.604
-84.18,672.708,-131.516
-209.84,788.364,132.736
102.968,770.308,23.668
609.756,915.0,-219.356
876.448,834.724,-262.788
802.028,614.392,0.732
734.684,644.404,294.264
717.604,675.392,366.488
845.46,836.188,289.384
890.112,1005.28,144.692
1114.348,1193.892,220.088
1081.652,1016.26,91.012
746.884,710.772,60.024
424.804,600.484,112.24
47.58,638.06,313.296
-44.896,607.56,472.384
-188.124,607.804,210.572
-368.196,846.68,12.444
-346.724,965.752,162.26
-432.124,682.468,324.032
-322.08,843.264,240.34
-277.184,1025.532,135.664
-359.168,1168.76,51.972
-377.712,1105.564,58.072
-310.856,969.168,133.224
-381.86,844.972,253.028
-310.368,982.344,110.044
-299.632,1154.12,85.888
-323.544,1065.792,119.804
-336.964,876.936,173.24
-423.828,815.204,275.964
-372.1,904.264,152.256
-329.888,974.048,153.232
-283.04,985.272,186.904
-181.78,1006.012,152.012
-199.836,950.136,249.612
-223.26,946.232,182.756
-338.672,941.84,147.376
-339.404,966.972,26.84
-308.172,992.592,103.944
-251.564,948.672,90.036
-283.04,937.204,118.096
-288.652,921.1,176.168
-287.432,905.484,186.416
-327.204,930.616,102.724
-255.224,888.16,204.228
-231.068,851.316,261.324
-255.956,876.692,238.144
-193.98,979.172,197.396
-209.596,1032.608,98.82
-219.844,1002.596,157.868
-259.372,912.316,164.7
-220.332,876.448,257.42
-218.624,862.052,250.832
-252.54,938.424,194.712
-230.336,968.436,179.34
-227.652,913.292,179.584
-254.736,857.172,215.452
-256.932,845.704,230.58
-212.524,826.672,238.632
-206.668,810.568,258.396
-185.684,781.044,301.34
-136.64,745.176,327.204
-101.26,717.116,453.108
-78.324,673.44,497.516
-40.26,677.344,561.444
15.372,738.588,590.48
22.936,770.796,614.88
40.504,762.5,664.168
-14.152,740.54,637.084
-60.756,771.772,532.408
-46.116,889.38,459.94
187.392,1098.0,503.128
372.344,1233.176,472.872
375.272,1255.136,382.348
237.656,1107.272,397.72
218.38,1055.544,329.4
255.468,1177.788,245.708
384.544,1351.272,174.948
434.564,1363.96,171.532
473.604,1239.52,139.08
472.628,1199.504,91.5
442.616,1138.992,77.104
360.144,1170.468,-38.308
243.512,1202.92,-130.052
264.984,1242.692,-157.624
272.548,1113.372,-135.908
241.804,923.784,-54.168
119.072,881.084,-24.156
64.416,997.228,-134.444
60.268,991.86,-144.936
132.736,925.736,-143.228
162.016,935.74,-76.86
52.46,893.772,33.428
17.812,872.544,5.368
-57.34,891.088,-41.724
-107.36,937.692,-46.848
12.2,971.364,-26.84
24.644,946.476,28.06
-6.832,922.808,82.472
-55.876,910.12,129.564
-96.38,878.644,119.804
-126.148,886.94,120.292
-126.392,861.32,167.14
-37.82,930.86,173.484
-27.816,982.344,193.492
-29.524,917.928,194.956
-38.552,911.828,183.0
-52.704,910.364,189.588
-42.7,944.036,173.484
-73.932,941.108,147.132
-80.032,962.58,91.012
-83.936,1005.28,80.276
-76.86,1032.12,50.02
-63.44,1018.456,80.52
-48.556,976.976,133.468
-31.476,935.008,168.116
-16.104,906.46,177.388
-39.772,950.624,190.32
-120.78,939.888,106.14
-90.524,1012.844,60.268
-87.596,1018.944,42.456
-119.804,936.472,45.872
84.424,1137.772,103.7
139.08,1021.872,29.524
147.376,722.24,-26.596
607.56,758.352,61.488
1024.8,674.172,39.284
1156.804,1014.064,-53.436
760.06,1361.52,-0.244
234.484,1172.664,185.684
406.26,550.22,582.916
1092.388,694.668,427.488
997.716,125.66,-117.364
623.176,455.304,236.924
594.872,674.904,193.98
834.724,337.208,190.32
1002.596,211.792,25.376
970.388,215.208,18.056
858.88,276.696,141.764
886.208,205.204,212.768
825.452,196.908,261.08
829.6,216.428,203.496
768.356,88.328,233.02
627.324,115.9,253.028
560.712,98.332,286.212
562.664,33.672,249.368
376.736,110.532,224.724
281.088,-28.304,239.608
174.46,-34.404,203.984
99.552,77.348,92.232
42.212,67.344,125.904
176.9,25.132,46.116
414.8,-3.416,-165.676
510.448,-89.06,-242.292
329.4,-260.348,63.928
509.716,-227.652,-10.248
1057.984,-89.548,-436.028
1210.972,-196.664,-525.332
1424.472,-538.264,-336.232
1438.136,-588.284,-119.56
1503.04,-261.568,-293.044
1660.176,-187.636,-512.644
1894.416,-352.824,-456.036
1950.048,-632.448,-213.744
1999.336,-456.28,-234.484
2100.352,-205.448,-373.564
2207.712,-157.868,-521.184
2072.292,-348.188,-284.992
2035.204,-444.08,-138.592
1918.328,-405.284,-131.028
1911.74,-378.2,-94.672
1893.928,-322.08,-218.624
1836.588,-331.84,-199.348
1752.408,-338.672,-104.676
1683.844,-277.672,-134.2
1662.372,-293.288,-99.064
1736.304,-391.376,-80.764
1697.508,-413.824,-32.696
1517.68,-384.3,74.42
1555.5,-306.952,20.74
1630.896,-389.18,-7.564
1504.504,-482.632,147.864
1307.108,-462.868,321.348
1286.124,-342.576,264.74
1151.68,-368.196,294.02
1031.876,-442.86,389.424
865.712,-392.108,446.52
664.168,-326.716,446.764
544.608,-223.26,373.076
543.632,-118.34,193.004
384.3,-54.656,132.004
45.384,-34.404,258.64
-322.812,58.316,249.368
-90.768,101.504,42.944
64.904,233.996,-80.52
-52.46,448.228,-154.696
-283.284,560.712,-8.052
-251.564,536.068,-6.344
88.084,666.852,-284.016
484.096,748.592,-411.384
679.296,848.144,-282.796
440.664,740.052,115.656
404.064,571.204,284.016
774.212,799.344,110.288
932.568,785.68,-54.168
867.42,813.496,184.22
698.572,977.464,295.728
537.532,1076.284,345.26
678.32,942.572,104.676
879.62,747.372,74.176
473.848,844.484,145.912
-47.092,971.12,228.384
-225.212,1095.316,71.248
-230.58,793.244,48.8
-162.748,555.344,175.924
-74.176,827.404,285.968
-206.912,884.5,247.66
-381.86,909.144,204.472
-335.5,892.552,182.024
-321.592,830.82,200.324
-359.9,879.62,183.976
-338.184,972.584,89.548
-323.056,1064.084,99.308
-357.216,1035.292,68.808
-370.636,946.476,64.904
-313.54,952.576,168.36
-250.832,969.9,182.268
-289.872,998.204,123.22
-285.48,1016.992,81.496
-240.828,1016.748,123.708
-274.256,855.708,148.84
-314.028,703.452,291.336
-236.924,872.3,214.72
-253.028,1004.548,125.904
-274.256,950.136,101.504
-163.724,987.712,42.456
-249.124,933.056,78.812
-363.072,884.256,113.216
-305.244,978.44,26.352
-242.048,1018.456,43.92
-218.38,992.348,102.48
-215.94,940.132,165.676
-250.344,966.728,114.192
-243.512,978.684,82.472
-271.816,937.692,63.684
-228.628,1010.892,56.12
-179.34,991.616,101.504
-215.452,902.556,170.068
-254.736,966.728,83.448
-210.816,1047.004,42.456
-214.72,996.008,71.492
-208.62,963.556,85.156
-208.864,934.276,84.912
-273.28,907.192,90.036
-209.352,983.808,90.28
-164.944,990.884,53.68
-200.812,937.204,50.996
-264.74,901.824,96.868
-260.836,964.044,86.62
-237.656,1006.012,34.892
-157.624,950.624,62.464
-100.284,972.34,50.996
-245.708,936.472,99.552
-245.22,931.836,113.948
-142.252,1037.732,104.92
-160.308,1019.676,115.656
-172.264,940.62,97.112
-115.656,983.076,84.912
-127.856,1043.344,103.212
-240.584,1034.072,107.848
-225.7,962.092,48.312
-121.756,965.752,72.956
-75.64,950.624,156.16
-133.956,908.9,149.084
-245.708,1003.084,116.876
-123.708,1064.084,48.068
-44.408,1031.632,85.156
-49.044,964.044,139.568
-106.14,951.112,219.844
-102.236,953.064,192.516
-75.396,1010.648,164.944
-78.812,961.848,129.564
-42.456,943.548,159.088
-20.252,960.872,168.604
-62.464,945.5,248.392
-49.288,983.564,234.972
-30.988,1020.896,222.528
-58.56,956.724,210.816
-6.344,894.992,215.208
27.084,906.948,308.416
98.82,969.412,336.72
139.08,1007.232,425.292
107.848,949.404,472.384
20.984,757.376,578.768
45.384,704.184,660.996
128.344,798.368,688.812
227.164,970.876,660.02
201.3,1033.34,524.112
-3.66,946.232,440.908
-111.264,965.02,306.464
-53.192,1082.384,166.652
35.136,1168.76,39.772
28.548,1186.816,-42.944
50.508,1263.676,-110.776
19.764,1241.472,-73.444
-92.964,1077.016,-3.66
-13.664,1001.376,47.092
166.164,906.46,-24.644
158.844,924.272,-78.568
321.836,1054.324,-290.848
372.1,1121.912,-532.164
180.072,1001.62,-504.348
-164.944,823.256,-214.72
91.988,906.948,-282.064
357.216,1004.548,-306.464
397.964,946.72,-288.408
179.34,785.68,-82.96
10.98,814.96,-44.652
128.344,904.02,-57.584
192.028,911.096,-14.64
139.568,924.272,-13.664
239.12,1077.992,-67.588
274.012,1142.896,-99.796
235.704,1075.552,-39.772
139.812,996.496,30.256
183.732,951.844,60.756
360.144,1067.012,135.42
450.912,1169.98,108.824
400.404,973.56,179.34
328.424,955.016,222.772
437.736,962.336,223.016
506.544,1034.316,255.712
394.304,964.044,217.892
336.476,924.272,207.644
481.412,987.956,201.788
642.94,923.54,173.728
673.196,728.34,226.432
818.864,630.74,145.424
909.388,671.976,5.612
697.108,904.996,-94.672
605.364,1329.8,-64.172
661.24,767.624,95.648
721.02,488.0,210.572
419.192,450.668,222.772
337.208,463.844,199.104
497.516,551.44,155.428
547.292,427.0,184.22
458.72,349.652,173.484
281.82,191.784,325.74
385.032,207.644,242.048
421.632,253.028,93.452
278.648,152.5,236.924
361.12,47.824,247.904
550.464,71.98,101.992
572.424,99.308,56.852
588.528,130.296,-15.86
750.544,144.936,-137.372
706.136,170.8,-78.324
795.928,113.216,-80.276
893.04,84.912,-84.18
891.576,28.06,60.024
1118.496,120.536,-81.008
1188.036,15.372,-56.852
1371.768,-10.736,-164.7
1723.128,28.548,-305.488
1807.064,81.74,-263.276
1912.228,-35.136,-84.424
1978.596,-186.66,63.44
2116.212,-47.092,30.988
2282.132,82.716,-90.28
2306.044,-28.304,67.588
2145.492,-234.972,400.16
2038.376,-185.928,464.82
1965.42,-114.192,467.016
2006.412,-81.984,386.496
1823.656,-165.188,527.04
1550.62,-142.252,606.096
1362.496,-112.972,574.376
1260.504,-64.66,602.68
1317.844,42.7,522.648
1340.536,155.916,283.528
1099.708,118.828,355.508
1022.116,65.148,461.16
807.64,-4.636,533.384
761.036,-11.224,433.588
744.444,82.472,227.652
470.676,83.448,275.232
319.152,50.752,268.888
244.488,74.176,158.6
139.324,150.304,75.64
142.008,332.328,-61.732
95.892,411.14,-129.076
20.496,416.264,-147.62
-23.912,353.8,-176.9
28.548,373.808,-145.424
250.832,398.696,-161.772
524.112,665.632,-88.328
476.044,651.236,-208.62
293.044,666.12,29.768
401.38,715.896,225.212
606.34,874.252,139.568
708.82,1026.996,-62.952
606.828,922.564,-9.028
41.236,671.732,224.724
148.352,1243.424,353.556
444.812,1223.416,91.5
488.732,781.776,-153.72
285.236,611.952,81.252
-65.392,826.184,149.816
-246.684,1019.676,176.656
-100.528,987.468,266.692
-130.784,951.356,282.308
-285.48,790.072,284.016
-527.772,734.928,272.304
-497.76,953.064,152.744
-321.592,1173.396,59.78
-342.332,1130.94,165.676
-376.98,1028.948,131.028
-469.944,907.924,111.02
-485.072,959.896,81.74
-425.536,1107.516,0.488
-356.972,1120.204,44.652
-353.312,1061.156,97.356
-397.72,882.06,173.484
-438.956,744.2,191.296
-435.296,892.552,160.064
-339.404,994.788,94.916
-321.836,1009.672,109.556
-338.672,949.892,119.56
-321.592,847.9,122.0
-449.936,744.688,236.68
-503.86,795.44,90.28
-442.616,1001.62,28.548
-332.084,951.6,91.256
-303.292,932.08,31.476
-356.484,873.764,114.68
-434.808,846.436,69.54
-448.96,913.536,60.268
-378.688,902.8,98.82
-399.672,901.092,62.708
-328.18,918.416,98.82
-298.412,927.2,122.732
-302.316,903.776,117.852
-390.4,885.964,75.884
-423.096,950.136,77.348
-310.612,974.536,116.632
-315.98,931.836,140.544
-387.472,811.056,153.72
-359.168,877.424,81.984
-324.52,959.164,125.66
-372.344,904.264,122.976
-348.188,893.772,131.76
-308.66,918.172,142.74
-326.472,906.216,107.116
-349.652,866.444,124.684
-371.856,878.644,132.736
-319.396,931.348,100.528
-248.148,978.684,131.272
-309.148,948.916,140.3
-295.24,925.492,116.876
-307.44,894.992,158.356
-344.772,877.912,134.688
-345.504,932.568,78.812
-302.804,979.66,72.712
-319.396,935.252,101.016
-350.872,878.156,107.116
-323.3,874.496,135.664
-273.768,890.844,164.212
-292.068,898.896,140.544
-326.96,867.664,179.34
-319.884,825.452,207.888
-278.892,817.644,259.372
-228.14,820.572,333.304
-189.344,799.1,459.452
-179.34,766.892,580.232
-223.748,819.84,639.768
-295.972,936.472,634.888
-190.32,969.168,658.068
-89.304,833.016,824.72
-31.476,786.412,892.552
23.424,983.808,698.572
26.108,1065.792,552.66
-34.648,1053.348,484.096
-88.328,864.98,313.54
4.636,795.684,311.588
127.124,965.508,209.108
285.48,1184.132,44.164
392.352,1324.432,-182.512
346.48,1301.984,-406.504
213.256,1235.616,-376.004
316.224,1240.008,-277.916
397.476,1166.564,-52.948
383.324,1089.46,113.216
441.396,1027.484,58.316
500.2,1009.428,-373.564
509.228,1040.416,-537.776
445.788,1102.392,-367.22
615.124,1075.552,-366.488
564.372,895.48,-275.964
288.164,736.88,-163.48
245.22,760.304,18.056
286.7,868.884,96.624
342.82,877.912,42.212
369.172,834.968,89.304
322.812,810.324,96.868
178.608,823.256,38.064
303.048,1031.876,-0.244
307.684,1067.256,36.844
273.28,1029.192,76.372
299.388,975.268,52.46
292.556,983.076,-42.7
230.336,975.024,9.76
282.308,985.516,92.964
330.62,901.336,86.132
430.904,759.816,98.576
636.108,487.024,111.02
879.864,528.26,66.368
849.852,906.948,-74.908
510.692,1187.548,-246.928
108.58,1245.864,-25.864
328.912,544.852,433.832
701.012,191.052,256.688
559.004,493.856,-21.228
461.648,520.696,-28.548
473.116,416.264,64.904
461.404,236.68,223.748
378.688,117.364,324.276
315.492,128.588,240.096
305.0,152.988,128.832
325.008,130.54,54.656
326.228,93.452,81.252
507.764,102.968,15.86
404.552,122.976,-161.04
492.636,59.78,-144.936
595.116,-70.028,-143.228
496.052,34.404,-5.612
706.624,48.556,-19.52
1046.272,207.156,-382.592
1239.032,182.756,-597.8
1486.936,-64.172,-412.604
1585.756,-24.644,-219.6
1837.076,124.196,-318.42
2152.324,51.484,-376.736
2299.212,-60.512,-309.148
2440.0,-154.208,-52.948
2492.704,-214.476,208.376
2525.888,-181.048,287.676
2504.172,-95.892,262.544
2461.716,51.728,246.196
2492.216,-5.856,259.86
2426.824,-180.072,332.084
2171.844,-222.284,365.512
1911.984,-277.672,263.032
1567.7,-258.396,382.836
1448.384,-182.756,509.716
1279.536,-159.088,653.188
1078.968,-101.504,841.312
1186.572,-64.172,735.904
1322.724,-58.56,424.804
1000.644,-120.78,556.32
802.516,-163.724,643.428
658.312,-166.652,619.76
514.352,-108.336,508.252
441.64,-27.816,267.18
411.14,54.412,85.888
118.584,10.98,152.256
-67.344,81.74,106.384
-64.172,234.24,-39.528
-170.068,431.88,-124.44
-138.592,503.86,-54.9
-177.388,439.932,3.66
-170.556,465.308,13.908
16.592,624.152,-100.528
123.952,681.492,-91.988
278.404,703.208,-55.876
402.6,775.676,-64.172
499.224,861.808,-85.888
576.572,829.844,40.016
724.924,795.196,38.064
772.992,729.316,43.188
806.664,667.34,118.34
785.192,667.584,204.716
789.34,760.548,170.068
766.892,726.632,229.36
754.692,689.056,332.328
742.736,831.552,229.604
691.74,842.288,263.52
379.176,854.244,294.996
320.616,1279.048,354.288
553.636,1071.648,87.108
562.908,632.204,-48.312
42.7,716.14,272.792
-543.632,562.664,115.656
-472.872,552.66,-217.16
-456.524,647.088,25.132
-500.688,775.188,223.992
-374.052,807.64,51.972
-490.684,730.78,138.348
-594.384,722.728,166.896
-577.792,924.028,-24.4
-639.036,818.864,77.592
-599.264,830.332,188.612
-426.512,998.204,105.408
-382.104,1102.88,19.52
-488.976,939.4,83.936
-513.376,908.9,109.312
-483.608,893.284,86.864
-409.188,937.936,123.464
-322.568,969.412,128.1
-352.336,937.936,101.016
-463.6,940.864,171.776
-424.072,847.412,161.04
-427.732,823.256,127.612
-389.912,955.26,54.9
-339.892,1038.22,-60.268
-411.872,906.46,8.784
-436.272,833.26,71.248
-436.76,861.32,60.756
-314.76,921.588,95.648
-268.156,926.468,114.68
-305.488,924.028,101.748
-306.708,978.684,43.92
-471.164,916.22,-0.244
-372.832,891.82,56.12
-360.632,884.5,62.464
-404.552,851.804,19.276
-366.732,924.516,33.672
-367.464,930.372,39.528
-398.696,925.004,-25.864
-363.804,888.648,73.444
-356.728,831.796,106.384
-342.332,848.388,100.528
-372.832,850.584,84.18
-324.764,927.444,69.052
-268.888,931.348,115.656
-297.924,901.336,110.776
-237.168,902.8,114.436
-242.048,917.928,90.768
-322.568,897.676,40.992
-311.344,931.104,68.808
-379.908,842.044,62.952
-322.568,893.772,92.72
-268.644,883.768,139.324
-309.88,877.912,95.404
-276.696,947.208,84.424
-265.228,974.536,88.572
-310.612,947.94,27.328
-318.176,959.408,60.268
-310.368,955.504,89.792
-331.84,931.348,64.416
-284.016,990.152,77.592
-244.488,968.924,91.5
-242.78,979.416,28.304
-288.408,996.008,112.972
-334.036,946.72,88.572
-286.944,947.94,110.044
-245.952,939.644,107.604
-185.928,952.088,89.06
-151.28,929.396,137.616
-167.384,948.916,91.012
-168.604,938.424,156.648
-210.572,851.316,144.204
-227.652,872.056,116.876
-215.94,927.444,97.844
-224.48,950.868,77.592
-200.568,970.144,77.104
-196.908,963.068,102.968
-186.416,1012.112,117.852
-181.536,1038.22,66.612
-208.864,1043.1,57.096
-197.152,1037.488,30.5
-128.832,1035.78,66.124
-92.964,1019.432,106.628
-131.272,991.616,96.868
-97.112,1016.26,120.048
-132.248,993.812,65.148
-135.42,993.08,82.716
-157.624,966.484,81.008
-134.932,1003.084,52.948
-136.884,1003.572,103.944
-151.524,972.34,103.212
-114.192,1013.088,84.424
-123.708,1040.172,77.348
-161.772,1038.22,67.832
-157.136,1034.316,26.108
-130.784,1013.576,19.032
-73.688,1015.528,56.12
-90.768,1006.5,80.52
-125.416,1003.572,93.208
-163.968,979.904,81.984
-177.876,966.972,60.024
-150.548,960.872,44.408
-132.736,951.356,29.036
-163.48,902.8,43.676
-187.88,944.524,45.384
-132.248,943.304,24.156
-152.744,894.748,86.376
-198.616,888.404,48.556
-167.384,929.884,33.916
-164.7,924.76,52.948
-169.092,948.184,27.084
-136.884,935.496,29.28
-97.844,963.312,31.72
-91.256,990.884,31.476
-123.22,942.816,51.484
-208.376,898.652,69.296
-177.876,833.504,88.328
-144.692,847.168,86.864
-140.3,824.72,60.268
-127.856,823.256,41.968
-151.768,865.712,105.896
-175.192,841.556,117.364
-118.34,857.904,108.58
-113.46,871.812,117.364
-93.208,824.232,146.4
-43.432,752.74,246.928
59.536,814.96,190.564
20.008,989.42,129.076
-68.808,1119.228,126.148
-79.3,1017.724,180.804
-56.852,833.504,237.9
-52.46,799.588,193.492
-163.724,839.848,193.248
-150.06,1004.548,140.544
-24.644,1030.168,122.732
-74.176,929.64,185.684
-149.816,784.704,296.46
-146.156,719.312,279.136
-67.344,946.232,107.604
-87.84,1274.412,115.412
-189.832,1221.464,218.868
-225.212,871.568,207.4
-189.1,760.548,129.32
-177.388,807.884,115.168
-180.804,936.716,162.992
-92.476,1096.292,160.796
-108.824,1186.816,209.84
-139.568,1097.512,200.324
-150.792,914.512,180.072
-130.784,852.292,228.384
-112.972,1076.528,200.812
-160.796,1194.624,189.588
-283.772,1103.368,232.532
-99.796,862.052,238.876
127.856,828.624,297.436
-45.628,958.92,282.796
-306.464,1041.636,305.0
-270.596,1017.968,201.788
-96.38,963.8,262.788
-15.372,900.36,280.6
3.416,996.496,271.084
-98.576,1024.312,272.06
-167.872,947.94,195.444
-115.412,934.032,219.6
-87.352,878.156,263.032
-68.808,984.54,245.464
-127.612,1130.208,162.748
-239.852,1077.992,69.54
-145.912,835.212,25.62
-9.516,810.08,245.952
-6.1,871.812,279.868
-126.636,902.8,211.792
-73.444,947.696,183.488
-56.364,990.64,104.676
-199.836,1077.992,53.924
-279.624,1170.712,26.108
-127.124,1016.016,127.124
-39.528,1069.696,148.596
