acc_x[mg],acc_y[mg],acc_z[mg]
-89.304,998.448,-4.88
-71.004,985.028,-5.856
-79.788,976.976,0.0
-85.644,995.276,-3.904
-82.716,984.052,-1.952
-83.936,982.344,-4.88
-80.764,999.912,-12.688
-71.004,1005.28,-12.2
-55.388,991.86,-12.688
-62.22,989.42,-3.904
-74.42,974.048,-15.86
-85.888,980.392,-1.708
-78.812,1000.888,-13.42
-74.664,987.468,-18.3
-72.468,966.24,-14.396
-60.756,960.384,3.172
-60.268,971.364,3.66
-57.828,997.716,-5.368
-48.312,1005.768,-12.444
-77.592,994.544,1.952
-75.884,965.264,-20.252
-72.224,960.14,-16.348
-56.364,992.836,-23.18
-66.856,1006.5,-6.1
-55.876,996.496,-6.344
-48.8,996.008,-1.952
-65.636,983.808,8.052
-58.804,977.708,-7.808
-60.756,988.2,0.732
-54.168,998.936,2.684
-53.436,981.612,-5.368
-68.564,987.712,-8.54
-40.992,1010.648,-23.668
-38.308,988.688,0.976
-60.512,975.268,1.22
-88.084,972.096,1.952
-62.464,951.6,-16.348
-47.58,1001.864,7.564
-53.192,998.692,16.836
-38.796,1008.94,-7.564
-58.56,1000.644,-20.252
-54.412,992.104,-11.468
-52.216,984.052,-7.564
-70.272,977.464,-42.212
-61.0,1000.156,-15.86
-58.072,982.344,-12.444
-57.828,1004.06,-7.564
-54.168,992.348,-5.612
-77.836,956.968,-8.052
-61.244,958.92,-4.148
-55.632,959.408,4.636
-46.604,1018.456,0.488
-29.036,1016.26,-9.76
-43.188,1006.5,-9.028
-45.628,1001.376,-11.468
-51.728,965.508,-14.884
-62.952,987.956,-18.056
-58.316,963.8,-6.588
-57.584,991.372,0.0
-40.26,988.2,-12.688
-44.164,996.74,-10.248
-43.676,1029.68,-2.684
-40.016,1010.16,-30.256
-45.628,1002.84,-16.348
-59.292,984.296,-3.416
-59.78,959.652,-10.98
-62.22,973.072,-6.1
-56.364,988.688,-27.328
-44.896,997.228,-24.644
-47.824,1009.672,-17.812
-57.096,970.876,-18.544
-59.78,974.536,-11.224
-47.336,978.196,-9.516
-45.14,978.928,-13.176
-49.288,969.168,-3.904
-47.824,979.172,-4.88
-41.724,983.076,-7.564
-40.992,1014.308,-15.372
-43.188,1017.48,-23.912
-46.604,1008.94,-21.472
-49.532,990.396,-12.932
-50.02,979.904,-3.172
-52.704,973.072,-4.148
-60.268,962.092,-7.564
-53.192,989.176,-6.1
-44.164,1001.376,-19.032
-47.336,992.348,-13.908
-49.776,999.912,-9.272
-43.676,1008.696,-13.664
-39.528,1015.04,-12.444
-41.968,1010.404,-1.464
-50.264,984.296,-2.684
-57.096,985.028,7.564
-61.976,995.52,-4.148
-60.268,999.424,-12.932
-56.608,1025.288,-19.52
-63.196,1046.76,-16.592
-78.08,1040.416,1.952
-94.184,1048.712,28.792
-101.016,1055.544,17.812
-113.948,1084.824,5.368
-110.532,1112.396,9.272
-157.38,1152.656,50.02
-185.684,1138.992,62.22
-168.848,1129.964,42.212
-171.288,1149.972,60.512
-162.26,1159.488,84.424
-183.488,1185.352,101.016
-241.072,1206.092,81.252
-210.816,1127.036,20.008
-212.036,1073.356,20.008
-174.46,1108.248,44.408
-131.028,1197.064,68.076
-54.9,1415.2,6.832
-42.7,1491.572,-71.248
-5.856,1272.704,-114.192
-36.112,1056.52,-84.18
-28.792,915.244,-69.052
62.952,967.46,-19.032
139.08,1273.192,-11.712
143.96,1372.988,-78.568
181.536,1122.888,-221.552
-6.344,785.436,-215.696
-16.592,762.012,-165.188
117.364,823.012,-111.508
192.272,802.76,-71.492
249.368,750.056,-69.296
134.688,727.608,-138.104
127.856,801.54,-285.48
81.252,923.296,-176.412
191.784,895.236,-114.436
333.548,764.452,-94.428
459.696,613.904,-146.888
215.696,684.176,-118.096
136.152,966.484,66.856
434.808,1078.724,-81.984
473.604,904.02,-123.464
477.02,894.016,-39.284
538.02,863.272,18.544
476.532,790.56,76.128
445.3,618.052,205.204
501.42,569.008,234.24
446.032,532.652,48.8
320.616,470.188,215.452
820.816,472.14,296.46
1090.924,469.456,-28.548
637.816,420.168,145.912
695.888,407.48,203.252
1064.572,426.756,72.712
793.488,306.952,176.168
789.828,252.54,159.332
954.04,198.128,213.744
1005.768,107.36,229.604
960.628,42.7,256.444
1007.964,43.188,246.928
1022.604,31.72,283.04
1031.144,86.132,268.888
1002.84,103.7,205.448
1012.844,75.396,173.24
997.472,4.88,189.344
987.956,-56.12,262.788
1128.256,-14.152,223.748
1068.964,47.824,212.524
998.692,62.22,225.944
921.832,56.852,240.828
907.436,72.224,248.392
971.12,107.36,214.232
938.668,162.992,177.876
967.216,153.72,138.348
857.904,95.16,165.188
790.804,46.848,186.66
755.18,43.432,168.604
722.728,77.836,126.392
748.104,51.972,161.284
696.62,27.572,183.488
650.748,-0.732,165.432
756.4,27.816,71.98
730.048,33.672,14.396
664.9,14.64,109.068
760.548,-53.924,123.22
894.992,-93.208,30.012
848.876,-92.232,28.792
807.884,-112.972,106.628
926.956,-120.78,66.856
1029.68,-117.12,-17.324
914.512,-120.048,40.016
885.476,-128.832,51.24
1008.208,-106.14,29.036
1003.328,-242.048,43.432
963.8,-360.388,94.428
953.796,-294.02,105.164
1158.756,-116.876,-31.476
1317.844,-86.376,-113.216
1261.48,-252.296,-34.892
1138.992,-444.08,67.1
1139.48,-409.432,73.932
1375.184,-296.948,-146.4
1510.848,-288.164,-125.904
1453.02,-334.28,-50.996
1345.416,-335.012,-36.112
1322.968,-285.236,-67.832
1300.764,-315.248,-16.592
1315.892,-365.268,33.672
1370.548,-387.472,44.896
1346.392,-365.512,22.692
1277.34,-355.02,3.172
1221.464,-329.888,52.46
1307.596,-298.656,91.012
1337.852,-313.052,120.536
1315.404,-338.672,159.332
1376.892,-358.68,152.256
1404.952,-419.924,219.844
1430.328,-461.16,306.22
1365.18,-471.164,317.2
1308.572,-479.948,352.58
1292.956,-477.02,387.472
1276.364,-458.964,395.524
1282.952,-410.408,367.708
1283.928,-364.78,309.392
1251.72,-297.192,309.148
1211.216,-265.228,334.524
1178.032,-235.948,290.116
1156.072,-208.62,213.5
1130.94,-153.476,157.868
1051.152,-146.156,152.744
1030.656,-102.236,96.868
953.796,-84.18,55.388
930.86,11.224,-31.72
892.552,56.12,-64.416
798.856,68.076,-35.868
752.984,79.056,-53.68
719.312,74.908,-61.0
639.768,81.496,-43.188
635.376,155.916,-72.468
578.768,203.008,-89.548
555.1,262.056,-72.224
616.588,319.152,-117.364
556.564,334.036,-99.552
509.716,345.992,-62.464
487.756,332.084,-60.756
508.008,351.604,-40.504
558.028,391.376,-62.952
572.912,396.256,-46.604
644.16,401.136,-42.212
716.872,389.18,-42.456
774.212,406.748,-49.532
740.296,404.796,-2.44
781.532,401.38,16.592
898.652,394.792,-2.684
964.044,373.32,13.908
947.696,363.316,24.888
924.028,363.072,23.668
1027.484,381.372,-20.984
974.292,317.2,37.82
794.952,260.836,123.22
709.064,289.872,181.78
823.988,306.464,104.92
877.912,376.98,-54.656
736.88,266.936,70.76
551.928,237.168,124.928
667.096,416.996,4.88
794.708,611.952,24.156
734.928,450.18,114.68
715.408,325.74,53.68
775.188,328.668,71.004
616.832,229.116,-9.028
708.088,457.988,21.228
769.332,617.808,-10.004
711.748,668.316,54.168
809.592,669.048,23.18
779.092,645.868,95.404
547.78,556.076,10.004
491.172,428.952,-71.736
615.856,497.516,-69.296
741.76,699.06,-92.476
589.26,783.728,-119.072
375.272,805.688,-64.904
46.848,1037.244,69.784
127.856,1324.432,-235.704
416.508,1417.396,-466.04
222.528,1460.34,-150.06
434.564,1605.764,-163.236
398.94,1471.32,-200.324
164.212,1196.576,-216.428
-70.028,993.08,-272.06
-248.148,903.532,-227.652
-59.536,1222.196,-18.3
118.096,1610.4,-123.22
38.308,1613.328,-198.616
-168.36,1424.716,-242.048
-304.512,994.788,-261.812
-260.592,895.968,-118.584
-66.612,1081.164,83.448
-61.732,1289.052,89.792
-68.564,1375.428,25.62
-89.06,1175.104,-83.448
-88.084,1033.34,-42.7
-39.284,894.016,-18.3
-90.524,838.14,-77.104
-172.508,947.696,-102.724
-233.02,933.544,-160.064
-205.692,910.852,-169.336
-174.948,937.692,-133.468
-145.912,1003.328,-156.404
-149.084,1019.432,-205.448
-149.084,942.328,-140.544
-103.212,904.02,-74.908
-81.496,953.064,-89.548
-73.932,1006.988,-90.28
-84.668,985.272,-76.86
-120.536,966.728,-37.088
-102.724,950.136,-23.18
-84.912,995.032,-31.72
-79.3,1032.12,-45.628
-100.772,1037.488,-52.948
-106.628,976.0,-32.452
-85.888,1004.304,-11.224
-84.18,986.492,-8.54
-75.884,999.668,-3.904
-99.796,977.952,-7.808
-115.656,1009.184,-44.896
-126.88,965.02,-61.976
-82.472,1001.62,11.712
-68.076,963.312,-16.104
-110.288,1004.792,-30.012
-153.232,1015.04,-51.972
-123.708,951.356,-24.888
-99.552,945.5,-6.588
-95.648,933.544,-4.148
-102.236,990.64,-34.404
-118.584,968.68,-52.216
-112.728,982.1,-49.288
-82.716,986.736,-36.844
-85.644,1020.652,-50.02
-80.52,1019.92,-60.024
-104.92,1019.432,-50.508
-94.916,977.952,-34.404
-109.556,934.276,-7.076
-98.332,925.492,-9.028
-104.432,937.448,-20.252
-118.34,962.336,-35.624
-93.208,986.492,-23.912
-75.396,1001.62,-23.668
-94.672,1029.924,-70.028
-101.748,1043.588,-38.552
-101.26,1021.628,-29.28
-97.112,965.996,-36.6
-101.992,969.656,-10.98
-106.384,973.804,-21.472
-94.672,961.116,-17.568
-95.648,1006.012,-27.328
-98.576,955.26,-34.404
-97.844,980.148,-22.692
-75.152,963.8,-29.768
-67.832,984.296,-21.228
-78.812,992.104,-19.52
-94.428,992.836,-30.744
-87.108,1009.916,-21.716
-87.108,1012.844,-32.696
-98.088,994.056,-40.992
-104.676,985.516,-44.408
-95.404,991.372,-40.016
-101.504,963.8,-30.988
-85.888,978.928,-54.168
-86.62,1006.744,-40.504
-108.824,974.292,-21.96
-114.68,974.048,-37.332
-104.188,988.932,-62.952
-86.132,996.252,-32.94
-92.72,991.128,-27.084
-94.916,970.632,-33.184
-94.916,993.324,-26.352
-85.4,992.836,-41.236
-99.308,987.956,-42.7
-95.16,953.796,-41.724
-103.456,949.648,-36.356
-98.82,959.408,-30.012
-93.94,971.364,-24.644
-63.684,996.496,-36.6
-71.248,974.78,-27.816
-89.06,976.732,-32.208
-82.228,992.592,-39.284
-83.448,1028.704,-45.14
-84.668,996.496,-51.24
-97.6,994.788,-27.816
-104.188,975.024,-28.304
-87.596,979.172,-21.228
-100.528,993.568,-39.284
-97.112,978.928,-24.4
-101.016,981.124,-11.468
-105.408,965.752,-19.52
-98.82,991.86,-40.504
-88.328,999.18,-34.404
-87.596,1005.28,-39.772
-86.132,996.984,-52.216
-93.208,987.468,-38.796
-80.276,986.98,-29.768
-78.324,990.396,-23.912
-71.004,1004.304,-16.104
-47.58,1023.824,0.732
-5.612,1016.992,16.836
-7.076,1031.144,33.672
8.052,1067.5,11.712
13.42,1089.948,47.824
-79.788,1034.804,-3.904
-171.532,1019.188,-38.064
-162.016,843.996,-14.64
-10.492,993.568,45.14
129.076,1154.364,57.828
194.956,1305.644,95.404
145.18,1303.448,14.64
91.012,1272.216,-22.936
20.74,1234.396,15.86
146.4,1269.044,57.096
188.612,1203.896,154.94
180.56,1265.872,58.316
222.04,1319.796,-50.264
292.556,1291.004,-24.156
340.136,1237.812,46.848
303.292,1104.588,131.272
390.644,1072.38,232.288
455.548,1054.812,203.984
561.688,1135.82,62.22
866.932,1249.28,-70.516
696.132,1109.224,-136.152
486.048,1018.456,-105.652
750.3,960.384,52.948
804.956,844.484,136.884
658.312,735.172,165.432
807.884,790.072,-20.252
797.88,686.128,103.212
471.408,547.78,188.856
322.08,314.272,239.852
595.848,248.148,308.904
687.592,242.536,281.332
619.516,279.624,123.464
556.32,262.788,-9.272
417.24,237.168,65.148
429.684,162.504,257.42
804.468,196.42,228.14
978.196,178.364,130.052
855.22,89.06,212.768
948.916,156.892,234.484
978.196,148.596,262.544
966.484,162.26,250.588
1006.988,162.992,298.9
992.348,216.428,222.04
975.512,228.872,249.612
968.68,202.032,303.78
926.956,199.592,271.328
979.172,193.248,234.972
935.496,186.172,251.564
904.996,177.388,277.428
834.48,181.048,244.488
746.64,150.304,301.096
745.42,170.068,279.136
755.424,204.228,259.372
797.636,254.736,233.752
767.624,254.492,218.624
719.312,209.84,228.628
720.532,185.44,225.944
737.124,211.304,201.056
659.532,199.836,218.624
642.696,185.684,228.14
574.132,149.572,231.556
544.364,153.72,194.712
473.36,135.42,183.0
410.408,106.14,214.476
477.264,110.776,178.852
593.408,166.164,110.288
688.08,131.028,54.168
539.972,-29.036,98.82
671.488,-71.492,148.596
768.6,-33.428,79.3
826.184,-43.432,83.448
793.976,-206.912,149.328
672.22,-352.824,235.46
871.08,-201.3,213.988
1061.156,-60.024,117.12
1167.784,-66.856,61.244
1170.468,-238.632,88.816
1031.876,-356.728,296.948
1358.104,-201.788,111.996
1494.012,-126.392,-23.668
1529.88,-195.932,67.832
1481.08,-366.0,148.596
1285.88,-469.212,288.408
1374.94,-374.052,223.504
1486.692,-277.672,77.348
1561.356,-204.228,35.868
1451.556,-310.856,163.724
1360.3,-399.184,324.764
1459.364,-311.832,215.208
1524.512,-295.24,168.116
1551.108,-308.66,247.66
1499.624,-382.348,333.792
1444.968,-449.448,394.06
1489.376,-423.096,335.5
1446.92,-415.288,376.736
1481.08,-411.384,460.672
1454.728,-420.168,484.096
1331.996,-412.604,413.336
1344.928,-366.244,335.988
1380.064,-326.472,347.944
1315.648,-321.104,396.012
1138.504,-315.248,429.196
1113.86,-319.152,446.276
1165.832,-313.784,415.288
1257.088,-286.212,335.256
1189.012,-259.128,288.652
1020.652,-250.832,362.34
984.052,-221.796,360.876
1076.772,-197.152,310.124
1140.7,-127.856,241.56
1030.656,-125.172,252.296
968.68,-117.852,304.512
927.444,-124.196,288.896
879.864,-134.688,217.16
824.72,-113.704,180.316
752.252,-95.404,210.816
662.46,-56.608,196.176
608.536,-5.612,165.676
510.936,59.78,109.068
441.884,125.416,56.852
410.896,197.64,20.252
439.444,291.092,3.66
446.52,325.008,-5.612
425.048,311.588,-1.22
405.04,300.608,-11.468
466.284,306.708,20.984
537.044,316.712,26.596
637.084,354.532,-6.1
739.076,379.176,-27.328
713.944,337.696,45.628
792.756,308.904,104.92
886.208,283.772,77.592
924.028,277.672,58.56
984.784,273.036,101.992
1038.464,264.984,173.972
1045.296,234.484,209.596
1026.264,163.724,289.14
793.976,81.74,409.432
655.384,189.588,259.616
767.868,292.312,193.492
616.588,285.968,180.072
617.564,337.208,224.968
642.696,272.548,291.58
638.304,251.076,386.008
672.464,323.3,304.024
753.472,486.536,224.968
786.9,515.328,175.68
557.296,421.632,216.428
439.2,440.42,287.432
498.492,611.708,311.1
518.744,796.66,180.316
475.8,790.316,78.568
357.46,700.28,5.124
377.956,904.508,89.304
530.212,1200.236,127.368
385.032,1255.136,116.632
236.924,1247.572,18.544
145.668,1398.364,-146.4
72.712,1507.188,-168.116
-11.468,1574.776,-242.536
-172.264,1386.408,-286.7
-40.748,1369.328,-273.28
45.628,1298.324,-20.252
111.508,1353.468,66.856
12.688,1416.664,-79.056
-136.64,1183.644,-160.308
-356.24,888.892,-246.928
-417.728,789.584,-221.064
-181.78,971.364,-156.404
-58.072,1189.012,-22.692
84.668,1324.92,-91.744
87.596,1280.512,-118.34
47.58,1085.8,-49.288
54.168,988.2,12.2
30.744,1013.332,-9.272
21.472,1022.116,-86.62
25.864,916.464,-146.156
56.608,885.232,-57.584
10.492,996.252,-4.148
-3.416,986.98,3.66
51.484,949.16,-28.792
-7.076,976.0,-49.288
-32.696,983.32,-55.144
-49.044,996.252,-52.704
3.66,1050.42,2.44
9.028,1050.908,22.448
-5.612,1078.236,7.076
-46.36,1002.352,8.784
-54.9,954.528,-29.768
-57.096,976.488,11.224
-4.636,1040.66,22.936
-4.88,1014.796,-19.032
-40.504,1054.324,-54.412
-69.784,1084.58,-60.756
-40.992,1103.856,-102.968
-42.212,1082.14,-94.184
8.54,1047.004,-41.968
-12.688,962.58,-43.92
-70.028,977.464,-65.88
-73.688,918.172,-63.196
-25.132,982.832,-44.896
-29.768,1018.7,-55.876
-40.748,975.268,-41.48
-15.128,1076.528,-56.852
-10.004,1012.356,-77.104
-30.256,961.848,-16.836
-27.572,937.204,23.18
3.66,911.34,24.644
13.176,932.08,9.028
-0.488,982.588,-24.4
-17.568,949.892,-2.196
-15.372,1012.6,-19.032
-14.152,998.692,2.684
6.1,992.104,-24.156
-20.008,974.048,-60.268
-33.672,1023.824,-78.324
-37.82,993.568,-61.976
-73.444,958.676,-29.768
-59.536,933.3,-7.076
-53.436,933.056,-30.012
-48.556,954.528,-37.088
-30.5,987.224,-42.944
-21.96,1023.336,-30.012
-15.86,1062.376,-40.748
-25.376,1098.976,-47.092
-44.408,1062.376,-40.992
-48.068,1006.988,-39.772
-61.488,977.708,-35.136
-62.22,955.26,-26.108
-28.548,972.828,-36.356
-43.676,960.14,-36.356
-54.656,944.524,-41.48
-57.096,949.404,-35.868
-38.308,969.656,-40.504
-15.616,1002.84,-35.624
-12.688,1017.968,-25.864
-41.724,1018.7,-36.6
-17.812,993.08,-14.64
-19.52,999.912,-11.712
-51.728,968.192,-11.956
-70.516,979.66,-44.408
-73.2,989.664,-50.752
-30.744,1009.916,-43.188
-33.428,991.128,-41.236
-53.924,977.952,-38.552
-63.196,980.148,-54.168
-63.684,984.54,-50.508
-65.148,999.668,-60.512
-46.116,996.252,-39.284
-34.648,995.52,-36.112
-40.504,977.952,-38.552
-41.236,1006.256,-42.456
-33.916,1012.6,-40.992
-26.84,1011.136,-29.524
-18.544,1003.328,-25.132
-23.18,1066.768,-52.46
-37.82,1137.04,-87.352
-9.028,1073.844,-61.0
-42.456,1058.472,-13.42
-58.072,1033.096,-18.3
-38.064,1004.792,-32.208
14.152,1027.972,3.172
57.584,972.584,23.18
65.636,1078.724,69.296
65.88,1184.376,86.376
163.968,1261.236,22.448
328.912,1253.672,-1.464
195.444,1101.416,90.036
118.096,992.104,125.416
151.28,978.928,200.812
277.184,1048.468,179.34
316.712,1177.788,175.192
365.512,1157.292,201.3
294.752,1058.228,268.4
371.612,1039.928,206.668
433.832,1066.524,188.368
469.7,1094.584,92.232
491.66,1074.332,144.448
556.808,1135.088,206.912
594.628,1260.748,44.408
476.532,1239.52,-132.248
376.004,1047.98,-49.288
359.9,908.656,-34.16
544.608,967.46,72.468
785.192,1031.388,17.812
681.248,909.876,29.28
573.888,795.44,116.144
345.26,661.484,194.468
434.076,609.512,188.368
500.688,555.344,160.308
464.82,574.132,-26.108
457.012,670.024,-85.644
260.592,617.076,37.332
369.416,669.536,102.724
570.96,685.64,175.436
666.852,772.26,103.944
485.072,721.996,25.864
403.088,733.952,63.44
341.356,683.444,145.18
341.6,655.384,158.844
588.772,770.552,117.852
693.448,803.98,64.172
504.104,700.524,79.788
482.876,654.652,39.04
576.084,608.292,123.464
620.248,545.584,232.044
729.072,507.276,233.508
813.252,537.288,203.252
807.64,623.664,132.492
699.06,628.3,137.616
670.024,603.656,237.9
729.072,590.724,274.5
711.016,564.128,261.324
845.704,633.912,157.868
840.092,663.192,144.936
748.348,645.136,217.16
662.46,622.932,226.432
664.656,529.724,225.944
420.9,243.024,372.344
578.036,186.416,466.04
723.948,268.4,226.188
873.52,263.276,262.788
933.056,233.508,304.512
919.636,194.224,281.576
976.976,65.636,332.084
925.248,-41.48,401.624
972.584,-30.012,403.088
1037.0,59.536,367.22
943.06,52.704,393.084
915.976,84.668,400.404
911.34,67.588,410.652
944.036,76.616,366.244
950.38,70.516,275.72
953.064,64.904,297.192
868.152,102.724,261.568
803.98,113.46,295.728
752.008,59.536,325.74
691.496,21.472,294.996
688.324,28.792,234.24
790.316,80.276,170.8
769.332,66.368,180.804
710.284,-14.64,288.652
895.48,-40.748,175.68
829.844,-63.44,171.776
762.744,-38.308,182.024
780.068,23.912,130.784
831.308,23.424,128.1
824.72,-33.184,132.98
777.628,-132.248,225.212
842.776,-110.776,193.98
837.896,-92.72,162.992
975.512,-92.476,134.932
1027.972,-171.288,125.66
989.42,-210.816,202.764
1137.04,-91.5,133.712
1297.348,-60.756,-1.22
1421.056,-100.284,-40.504
1376.892,-230.092,34.404
1219.268,-309.148,69.54
1192.672,-257.176,103.7
1147.288,-228.872,58.56
1206.336,-211.792,-21.96
1303.204,-282.308,-29.524
1230.248,-378.932,-24.888
1227.808,-353.312,-26.108
1322.724,-259.372,-20.74
1316.868,-272.792,15.86
1496.208,-284.992,10.004
1428.132,-384.788,63.928
1404.464,-418.216,74.664
1418.86,-466.772,112.972
1460.828,-449.692,43.432
1405.928,-452.132,101.748
1264.652,-467.26,173.484
1202.432,-462.868,201.056
1195.112,-430.66,209.108
1263.432,-403.576,175.436
1241.228,-392.108,183.732
1211.46,-404.552,221.796
1141.92,-458.476,325.984
1196.82,-431.392,308.66
1173.884,-403.576,286.7
1115.568,-372.832,274.744
1134.112,-332.816,253.76
1193.892,-324.764,276.452
1144.604,-373.808,337.94
1084.336,-376.736,312.564
1103.856,-298.168,291.336
1126.304,-199.348,240.34
1054.324,-181.048,284.992
1028.948,-184.708,290.604
1002.352,-173.484,313.784
993.812,-151.768,275.964
965.752,-88.816,200.568
913.048,-35.38,173.24
782.264,-16.592,211.06
766.892,31.476,164.212
787.876,70.028,127.856
732.244,92.964,104.676
741.028,160.552,35.624
661.24,206.18,28.304
555.588,216.428,50.752
551.928,253.76,31.476
622.688,254.492,14.152
605.12,260.348,-20.008
564.616,307.928,-16.836
599.752,333.06,17.812
650.016,331.352,51.972
633.424,306.952,48.556
677.344,318.42,-6.832
788.12,376.492,-58.56
843.264,371.612,11.956
844.972,355.508,52.948
853.268,301.34,66.856
932.324,276.452,40.992
1060.18,283.04,8.052
1065.304,262.788,69.54
1033.096,229.604,105.408
1028.46,237.9,103.456
960.628,210.328,137.86
884.5,198.372,237.656
936.228,223.016,228.384
1070.672,280.112,186.172
943.548,330.376,178.852
605.12,324.032,224.236
494.588,411.628,202.764
541.924,496.54,209.108
600.24,558.028,173.484
742.248,642.696,96.624
697.108,692.228,169.824
631.96,715.896,179.096
380.152,618.296,116.876
346.236,677.1,97.112
351.848,773.48,134.932
340.868,916.952,94.672
270.596,933.544,74.176
272.06,861.564,72.224
378.444,1057.252,147.132
395.768,1194.624,74.42
383.812,1118.008,46.604
431.392,1119.96,144.448
241.56,1039.196,223.26
90.036,1059.936,143.472
-82.716,1064.084,33.916
-142.984,966.728,50.752
-4.392,946.964,179.828
-77.592,1053.104,163.724
-170.068,1167.052,19.764
-233.264,1189.5,1.952
-247.66,1143.384,24.156
-199.836,1040.66,30.5
-248.392,1025.532,16.348
-325.252,1079.944,-61.0
-348.676,1119.716,-59.048
-281.576,1078.236,45.14
-109.8,1064.084,94.184
-140.056,1033.096,82.96
-198.128,1065.548,24.156
-240.34,1045.052,-3.416
-265.228,1036.024,-55.876
-287.188,1023.824,-114.68
-220.088,1026.02,-68.076
-155.916,1104.344,-24.4
-162.992,1125.328,-32.208
-179.34,1114.348,-62.952
-186.904,1072.868,-66.368
-140.788,1013.82,-46.848
-93.208,923.54,-0.488
-59.048,942.572,30.012
-76.372,986.736,1.464
-104.92,1034.316,-30.5
-113.704,1003.084,-37.332
-86.132,971.364,4.148
-53.436,943.792,24.156
-38.064,968.68,39.528
-39.284,992.592,34.16
-40.992,1004.06,15.128
-35.38,1070.184,-10.736
-51.728,974.292,17.568
-60.756,916.708,25.864
-56.364,938.424,0.976
-59.048,940.376,26.352
-56.852,943.792,12.2
-50.264,1022.604,-10.736
-47.092,985.76,21.716
-18.544,1026.02,22.204
-1.464,1046.028,48.312
-30.5,1006.744,42.944
-52.948,993.812,37.576
-63.928,950.624,24.888
-62.708,934.032,29.28
-63.684,1015.04,7.808
-63.928,1022.116,2.928
-62.952,975.512,-11.468
-53.924,969.656,-3.66
-82.228,962.58,-13.176
-78.08,1023.58,-1.708
-58.316,1017.236,0.732
-57.828,1006.256,-8.296
-70.76,993.568,0.488
-64.904,980.148,3.416
-34.404,1002.108,18.788
-45.384,980.148,5.612
-68.076,973.56,-1.464
-45.628,985.76,18.788
-28.06,995.276,37.088
-33.184,972.096,31.964
-60.756,949.892,5.612
-84.424,935.008,1.708
-85.644,977.22,-11.712
-59.536,992.104,-13.908
-26.108,1029.192,10.248
-16.104,1057.496,7.076
-43.676,1026.508,-13.664
-66.856,1006.5,-10.98
-71.736,992.348,-0.488
-66.856,975.512,9.028
-58.56,965.508,1.952
-50.508,976.244,-1.464
-41.236,1004.548,-22.204
-51.484,1036.512,-11.956
-45.384,1077.016,9.028
-23.424,1083.36,1.708
-43.188,1059.204,12.932
-58.56,1025.776,31.476
-54.168,1020.164,26.108
-59.048,991.372,39.284
-84.668,953.552,37.088
-79.056,1001.376,48.068
-42.944,1057.74,42.456
-24.4,1126.06,51.484
-9.76,1185.352,20.252
-40.748,1166.076,20.008
-61.976,1087.508,-2.44
-92.232,1055.788,31.964
-96.624,1012.6,44.652
-111.752,1026.02,49.532
-64.416,1109.468,61.0
-46.116,1179.252,62.464
-44.164,1151.924,27.572
-105.652,1064.084,31.476
-149.084,1033.34,23.912
-117.12,1058.96,39.284
-45.628,1101.66,74.664
-17.08,1148.264,68.076
-16.104,1083.36,39.528
-54.656,1057.496,-9.516
-53.924,1027.972,-0.244
65.636,1007.232,3.904
178.364,1009.184,45.384
213.988,951.112,83.936
169.824,1075.308,59.048
186.172,1081.408,11.224
93.94,903.532,-5.612
48.8,787.144,-19.52
52.948,735.416,-19.032
86.62,759.816,18.056
75.396,866.932,4.88
75.884,959.408,-47.824
102.724,973.072,-41.968
111.508,951.112,-70.272
72.956,941.108,-64.66
43.676,897.92,-52.46
47.092,902.556,-42.212
63.44,970.144,-59.048
65.392,958.92,-74.664
70.028,894.992,-77.104
55.876,800.564,-93.208
48.556,782.752,-66.856
116.144,856.684,-33.184
180.56,909.876,-26.84
193.248,920.124,-2.44
189.344,907.924,-6.344
141.52,857.66,-27.816
99.796,857.904,-30.5
119.072,918.66,-40.016
158.112,935.984,-2.44
193.736,937.936,20.008
180.804,925.492,28.304
140.3,950.868,19.764
90.036,944.524,19.032
95.16,947.208,-5.124
160.064,959.896,-1.708
272.304,1099.708,24.888
321.104,1119.228,16.104
388.204,1119.716,-63.684
465.308,1239.52,-115.168
619.028,1244.888,-99.308
384.3,1132.648,13.42
388.448,974.78,115.9
562.664,873.52,131.76
659.044,757.132,162.016
698.084,733.708,158.356
735.416,695.4,174.704
863.76,698.572,141.032
1016.26,719.8,0.732
835.456,656.116,16.104
599.02,463.844,237.656
573.4,283.772,355.264
596.824,182.512,286.7
1025.776,374.296,290.604
1013.088,288.652,275.476
729.804,250.344,376.98
886.94,198.372,370.88
890.356,150.548,365.512
887.428,92.476,421.632
1029.436,108.336,390.644
933.788,108.092,382.836
848.632,98.088,413.58
851.316,120.536,389.912
860.588,137.372,358.924
909.632,167.384,311.832
870.592,195.688,257.664
888.16,209.596,247.66
839.116,234.728,257.664
764.452,244.732,219.112
716.384,215.208,220.088
706.868,212.036,220.332
710.284,213.256,219.112
708.576,207.4,192.028
707.356,186.172,157.136
679.784,180.316,118.584
624.884,119.804,121.756
543.144,37.576,144.936
609.512,-27.084,115.168
617.076,-72.956,80.276
583.892,-74.176,20.252
522.648,-41.724,97.844
612.44,-35.136,116.876
828.624,69.54,65.636
798.612,-22.448,89.548
777.14,-164.7,173.972
925.736,-181.292,109.8
952.332,-81.984,119.072
1057.74,-47.092,172.508
1099.708,-69.784,152.744
1248.792,-73.2,46.36
1302.96,-220.82,99.552
1270.264,-290.604,138.836
1233.664,-207.888,84.912
1250.744,-169.824,22.936
1270.02,-48.068,-115.168
1364.204,-165.432,-83.204
1296.616,-368.196,134.2
1340.536,-353.312,48.556
1447.652,-275.964,-47.58
1533.54,-221.064,-97.844
1470.832,-208.132,-78.568
1630.896,-281.576,-18.788
1547.936,-293.776,-11.712
1513.288,-338.672,-13.42
1514.752,-351.36,19.032
1625.284,-302.56,19.764
1634.556,-302.56,-3.66
1546.96,-311.832,2.928
1448.384,-376.492,67.832
1409.588,-396.988,105.896
1422.032,-371.612,109.556
1365.18,-383.324,125.416
1354.932,-374.54,111.264
1288.076,-390.4,103.212
1226.1,-371.612,135.908
1305.888,-327.692,146.644
1282.952,-326.228,170.312
1235.616,-317.688,191.54
1275.144,-304.024,185.44
1233.908,-330.376,248.636
1135.088,-308.172,230.336
1060.912,-282.552,218.136
1130.94,-207.888,151.036
1125.572,-128.588,72.956
1047.736,-102.236,87.352
887.672,-141.276,188.124
794.22,-130.54,228.628
793.0,-57.34,176.656
804.224,41.724,132.248
725.656,111.264,84.912
591.944,146.4,105.896
573.644,211.304,65.88
485.804,207.4,72.224
424.072,203.496,88.328
443.104,232.288,20.008
507.032,296.216,-40.26
510.936,331.596,-78.08
421.876,368.928,-56.12
349.896,358.436,5.612
358.68,359.168,29.28
521.184,416.752,-18.544
604.876,450.912,-71.98
596.336,477.02,-47.092
626.836,471.408,-26.108
689.3,462.38,-43.432
776.408,462.136,-34.16
875.96,485.804,-13.42
911.34,487.024,16.836
845.216,434.808,11.712
826.428,433.344,-46.848
789.096,447.984,-8.54
754.204,474.336,29.036
846.192,564.128,81.008
1000.888,586.82,233.752
843.264,559.98,302.072
536.8,551.44,126.88
536.312,498.248,-72.956
708.576,531.188,-79.788
674.172,779.092,1.22
602.436,784.948,106.384
551.196,590.724,206.668
617.808,707.356,182.268
586.576,848.876,120.78
416.996,845.704,53.436
351.116,955.504,46.116
286.456,1006.5,181.048
384.056,1020.896,187.88
377.712,1012.112,294.752
416.264,1028.704,244.0
307.684,1250.256,83.692
178.12,1161.196,84.912
213.988,1017.48,148.84
307.928,1072.38,227.896
420.168,1161.928,236.436
333.792,1156.56,191.784
146.888,1162.66,122.0
55.632,1031.144,63.196
64.172,1080.188,107.848
125.416,1140.212,121.024
176.412,1189.744,142.496
215.696,1224.88,160.796
194.224,1183.644,116.632
188.856,1054.324,138.104
231.8,1003.572,171.288
35.136,969.656,52.46
-23.18,965.508,11.468
16.836,1077.748,-70.028
54.412,1101.66,-76.372
110.776,1081.896,66.124
106.384,1130.452,53.924
10.98,1177.788,-20.74
-15.372,1094.828,-92.476
-44.652,1010.404,-117.364
-4.88,930.372,-26.84
20.008,946.476,-9.272
45.872,1011.38,38.064
55.632,1043.344,51.972
52.216,969.9,54.656
63.196,916.464,48.068
49.532,887.672,57.34
42.944,934.764,47.336
32.208,1045.052,5.856
98.576,1075.796,32.94
124.684,1091.656,10.492
98.332,1054.812,41.968
113.46,1039.196,66.856
137.616,988.688,64.904
103.212,981.368,58.804
110.288,1002.596,71.736
111.752,1006.744,44.896
123.708,960.14,73.2
143.228,943.06,89.548
130.54,952.82,93.94
118.34,1026.02,42.7
119.804,990.152,76.372
128.1,944.036,91.988
127.856,896.944,101.504
89.792,860.832,95.404
77.836,879.376,75.152
70.272,918.904,65.88
107.116,1000.888,61.976
159.576,1117.52,69.296
188.856,1062.864,23.912
125.66,1044.076,113.948
96.38,1015.284,81.008
79.056,970.876,74.908
75.152,967.46,61.732
63.196,982.1,13.176
69.052,943.304,57.34
106.628,1008.208,64.416
129.32,1006.5,66.612
127.612,962.336,52.46
115.656,956.48,75.152
115.656,961.848,44.408
113.704,956.968,59.78
120.048,1013.576,56.852
134.932,1027.24,63.196
138.592,1024.068,37.088
104.676,1032.12,32.452
94.428,980.636,30.988
86.376,970.388,31.232
81.252,953.064,37.82
100.772,972.34,-10.492
108.336,1007.72,35.624
117.608,1067.988,17.568
125.172,1062.62,19.032
129.808,1055.788,31.964
121.268,1015.04,42.944
111.996,968.436,25.864
92.964,939.644,33.672
83.204,950.868,27.816
79.544,970.632,41.968
101.748,988.932,40.992
111.264,1017.968,46.604
127.856,1022.604,50.264
106.384,1028.216,53.924
98.332,1010.892,45.384
92.72,1026.508,45.872
86.864,1031.388,31.72
95.892,1007.476,50.752
100.04,993.324,69.296
85.156,983.32,74.42
57.096,1029.68,34.892
23.668,1075.552,5.124
31.476,1065.06,34.16
92.964,1084.824,99.064
102.968,1060.18,107.36
48.068,1036.024,110.044
-6.344,1056.276,76.616
-33.428,1000.644,38.308
-71.004,958.188,25.132
-36.6,987.468,52.46
19.032,1032.608,85.156
36.112,1181.448,50.508
27.572,1189.5,-0.976
-0.732,1083.36,11.712
20.496,966.728,68.32
0.0,929.64,68.076
-34.16,1057.252,61.732
-76.616,1145.092,33.916
-45.384,1116.788,51.728
58.072,1116.544,99.308
136.884,1054.568,113.704
64.416,1070.916,126.148
8.784,1176.568,45.872
-10.248,1154.608,7.32
55.144,1166.808,-5.612
131.028,1120.204,20.252
264.74,1119.96,38.552
273.036,1130.452,53.68
227.652,1109.224,60.268
164.212,994.544,27.328
119.56,895.968,-3.66
136.152,894.748,-51.728
192.76,867.664,-78.568
256.932,900.36,-39.284
272.06,889.136,-11.712
227.652,801.54,-50.508
103.456,779.58,-124.44
20.496,750.544,-179.096
71.248,704.916,-133.956
127.124,780.8,-90.524
204.228,830.332,-52.948
224.724,788.12,-11.468
109.068,798.368,-31.72
58.804,903.044,-68.076
83.936,922.808,-40.748
126.88,947.208,-6.344
182.268,950.868,43.432
149.572,894.504,71.736
99.796,938.424,16.104
191.296,1145.824,-19.276
179.34,1150.704,-22.204
247.904,1131.184,29.524
476.044,1163.636,110.532
541.192,1148.752,112.24
689.788,1285.392,-85.4
599.02,1273.68,-87.108
405.772,977.464,81.74
610.244,828.624,206.912
639.524,673.928,366.0
505.08,493.612,423.096
617.32,466.284,383.08
792.268,607.804,165.432
737.612,642.94,-37.576
749.324,572.424,54.412
682.468,432.856,119.072
693.448,215.696,247.172
833.26,157.624,285.968
894.504,72.712,336.232
999.912,54.9,357.948
1035.048,85.4,287.676
1049.932,99.796,276.452
997.716,136.884,254.736
905.484,163.48,253.272
773.968,131.028,312.564
722.728,139.568,301.34
839.848,193.492,253.516
923.296,166.164,223.992
926.468,105.896,286.944
816.668,97.6,249.856
790.316,170.312,131.028
792.756,197.64,123.952
795.684,194.712,173.728
793.488,184.464,161.04
664.9,149.572,123.708
636.108,125.416,113.46
635.376,113.216,109.8
587.552,123.464,91.256
560.224,90.524,125.904
497.272,37.576,150.792
578.768,67.588,117.608
717.604,60.756,103.7
677.588,-3.66,92.72
783.484,-10.004,47.824
787.632,-18.3,52.46
833.26,39.772,14.396
892.308,87.596,-34.404
1013.576,3.904,-72.468
1002.596,-189.588,79.056
1067.988,-88.572,33.916
1165.832,86.132,-184.952
1138.992,9.516,-125.904
1147.044,-64.416,-72.468
1162.172,-116.632,-50.996
1163.636,-118.34,-81.008
1246.108,-93.94,-229.116
1389.824,-35.136,-262.3
1464.488,-51.484,-294.508
1415.444,-122.244,-221.308
1359.812,-61.244,-242.292
1327.116,-11.956,-281.088
1374.208,-12.2,-328.912
1408.368,-108.58,-294.264
1530.124,-170.068,-238.876
1531.344,-147.376,-264.74
1564.04,-77.348,-257.176
1618.696,-97.6,-194.712
1672.864,-191.784,-144.936
1686.528,-242.292,-112.484
1618.452,-190.564,-118.828
1659.2,-119.072,-150.304
1650.416,-132.248,-101.992
1520.12,-209.352,-67.588
1435.452,-260.592,-41.48
1425.692,-260.104,10.98
1413.736,-228.14,-7.076
1465.22,-182.756,-47.824
1434.964,-199.592,-8.296
1362.984,-225.7,75.152
1304.424,-239.852,131.028
1189.5,-213.988,164.456
1149.484,-131.76,148.596
1049.932,-158.356,193.736
1015.284,-159.576,222.772
1065.792,-99.552,174.216
979.172,-61.488,141.032
914.024,-27.084,148.596
852.292,40.992,135.908
729.072,40.748,139.568
668.56,15.372,161.528
620.492,13.908,131.028
556.32,53.924,82.716
567.3,126.392,62.952
458.72,162.016,60.512
373.808,189.588,73.444
437.736,263.764,-10.004
455.548,295.484,-73.688
447.74,341.112,-70.516
450.668,335.256,-42.456
449.936,304.268,-0.732
579.5,330.132,-42.7
622.444,343.064,-59.78
688.568,363.316,-64.66
740.784,387.472,-32.208
728.34,414.8,-47.092
721.02,431.88,-52.704
859.612,431.88,-55.876
915.0,364.536,-23.424
898.896,291.58,33.672
911.096,328.668,57.34
906.46,370.88,64.172
839.116,361.12,66.856
895.968,359.168,51.972
993.812,401.136,44.896
943.792,419.436,13.908
870.836,418.948,55.876
847.412,402.356,44.896
821.304,403.576,51.972
793.0,436.516,81.74
919.392,546.804,-31.72
908.9,554.124,-41.968
944.28,596.58,37.82
975.024,589.016,86.62
824.72,512.888,156.892
772.016,585.844,187.88
788.852,623.908,58.804
920.124,674.904,114.436
1041.88,754.936,276.452
854.0,808.128,366.732
769.088,972.584,63.196
346.724,797.88,-51.728
61.488,677.1,103.456
106.872,642.452,236.192
287.92,775.188,158.844
200.324,883.036,122.732
215.696,1007.476,69.784
234.484,1088.972,217.404
38.308,1052.86,103.456
-202.276,1037.976,4.88
-194.956,1086.776,44.896
-51.484,1218.536,140.056
-43.432,1223.172,89.548
-161.04,1106.296,39.284
-216.184,1074.088,47.824
-230.58,1010.404,57.34
-247.416,932.568,27.572
-311.588,1007.72,14.396
-301.34,1159.244,-67.588
-228.628,1232.444,-87.84
-187.148,1187.304,-22.204
-223.504,1079.212,0.732
-244.976,1040.172,-63.196
-292.556,991.128,-74.908
-309.636,963.068,-79.056
-268.644,987.956,-129.564
-221.308,1037.488,-99.796
-190.32,991.128,-40.016
-105.164,1072.38,-37.576
-69.052,1131.428,-23.668
-61.732,1086.288,-8.052
-49.288,1091.168,-20.252
-38.552,1056.032,0.244
-1.952,969.656,58.804
63.684,1038.708,40.26
-23.424,913.78,37.576
-63.44,911.096,40.748
-64.66,932.568,52.704
-33.916,911.34,54.9
-26.596,969.656,61.976
-22.204,971.608,31.72
-32.94,973.072,0.488
-32.94,991.616,-10.736
-37.088,976.488,-5.856
-67.1,942.328,-19.764
-85.644,931.104,-20.496
-90.768,938.18,-35.136
-58.316,1009.184,-67.344
-51.24,1076.04,-117.364
-45.14,1047.98,-95.16
-40.016,1047.736,-98.088
-61.732,998.936,-56.608
-59.536,992.592,-50.264
-67.832,948.672,-48.8
-69.784,959.164,-33.428
-66.612,991.616,-44.408
-44.896,1000.888,-40.748
-31.964,1022.116,-52.216
-61.0,977.952,-42.7
-54.412,978.928,-10.004
-50.996,978.928,19.764
-18.056,1002.352,-12.444
-22.448,1044.076,-13.176
-56.608,1041.88,-10.004
-42.944,1056.764,-0.488
-42.456,1033.096,35.868
-29.768,1021.384,53.924
-22.692,1026.996,69.784
-6.588,1095.56,99.552
-55.876,1123.62,71.248
-125.66,1055.788,12.444
-213.5,979.172,45.872
-56.12,1120.448,135.42
79.3,1173.152,181.78
29.28,1141.92,142.252
-77.348,1040.416,114.436
-152.988,965.752,73.2
-184.464,921.344,76.616
3.904,974.292,61.244
45.384,1052.86,46.604
-25.132,1080.92,0.244
-72.712,1056.52,-29.28
-62.952,1037.244,-73.2
-10.248,1010.892,-71.248
-4.88,1041.392,-75.884
-31.964,1041.392,-79.056
-36.112,1108.736,-124.44
-89.304,1039.928,-150.548
51.24,1016.992,-101.016
172.264,942.328,-97.844
67.1,846.924,-131.028
-53.192,883.036,-162.992
-35.38,920.368,-200.324
19.032,912.804,-218.868
79.056,911.096,-167.14
90.036,890.356,-189.588
-28.304,858.148,-198.86
-37.088,881.328,-160.796
30.744,912.804,-148.84
16.104,983.808,-145.424
42.7,978.928,-113.216
65.88,951.112,-68.076
30.988,923.296,-60.512
-13.664,900.36,-63.928
-51.24,907.924,-57.34
-56.12,930.128,-46.36
-10.736,970.876,-34.404
19.032,1030.168,-20.74
34.648,1075.796,-6.1
-7.808,1063.108,-41.724
-94.916,975.268,-80.764
-59.78,975.512,-42.7
-11.712,962.092,5.612
-6.832,969.412,2.928
-19.764,995.032,-15.616
-7.32,999.18,-53.436
-35.38,985.272,-41.968
-17.08,969.9,-40.26
-0.244,949.16,-15.372
-12.932,959.408,-13.42
-23.668,958.676,-6.588
-37.82,961.116,-6.344
-73.932,973.316,6.588
-79.788,973.56,2.928
-42.212,1002.84,-10.004
-20.984,1039.928,-30.012
-13.42,1031.876,-15.128
-27.328,1048.468,-6.344
-9.516,1075.552,-21.96
-5.856,1025.776,-63.928
-32.208,985.76,-99.796
-63.196,1003.572,-69.784
-48.556,953.552,-110.044
54.412,1152.412,50.996
178.364,1323.456,49.532
266.692,1107.272,-166.408
257.176,1107.76,-166.896
163.968,1139.724,-49.044
141.52,1118.008,114.68
153.72,938.18,304.268
303.78,888.648,243.512
712.968,1041.636,264.984
769.332,995.276,132.004
583.404,999.18,193.492
459.208,868.396,264.252
529.968,744.444,207.644
509.472,611.708,240.828
559.492,603.656,325.252
808.616,591.944,142.74
861.32,539.972,91.5
748.836,460.672,237.168
721.508,388.204,264.252
793.976,338.428,232.288
725.656,216.916,233.752
716.384,90.28,284.016
903.044,104.188,317.688
913.78,59.536,205.936
921.344,196.42,233.508
858.392,136.152,331.84
838.14,125.66,413.092
810.324,154.452,402.356
870.104,119.56,392.596
826.672,117.608,347.7
837.408,112.728,206.424
910.852,110.776,196.664
880.108,126.148,256.444
775.432,103.7,306.708
768.844,152.744,233.02
793.732,189.832,111.264
687.592,154.208,142.252
578.28,124.44,211.792
642.696,109.312,143.96
690.276,74.176,54.656
694.18,21.96,60.024
704.184,-4.636,101.748
726.388,-12.688,136.152
706.38,8.784,109.8
759.328,-10.736,28.792
724.924,-27.572,66.368
752.984,-13.908,79.3
872.3,-32.452,24.888
1034.804,-80.52,-10.248
1039.196,-63.928,0.976
1041.148,-96.868,-55.876
997.96,-176.9,-76.372
1085.312,-245.22,-107.36
1023.336,-228.384,-63.684
1028.948,-102.236,-159.576
1174.128,17.08,-245.952
1315.404,-20.496,-320.616
1175.592,-168.116,-273.28
1101.904,-304.512,-147.132
1188.768,-286.944,-165.188
1439.844,-111.508,-335.256
1562.088,-30.256,-405.284
1556.476,-149.084,-310.368
1405.44,-283.284,-203.74
1405.196,-287.92,-202.52
1449.604,-279.624,-196.908
1404.952,-269.376,-152.744
1450.824,-291.824,-128.1
1395.68,-379.908,-66.612
1229.272,-479.704,25.864
1193.892,-432.368,27.572
1234.64,-399.916,-11.712
1191.452,-384.788,19.764
1302.228,-307.684,-54.9
1351.516,-239.364,-101.26
1357.86,-182.024,-132.248
1408.612,-154.452,-124.44
1422.52,-229.848,-121.268
1441.552,-293.532,-88.816
1467.66,-276.208,-25.132
1371.28,-316.224,1.464
1342.488,-304.756,16.592
1311.5,-326.228,61.976
1233.42,-350.872,107.116
1131.184,-337.696,105.652
1104.832,-229.604,47.092
1106.784,-172.02,89.792
1116.056,-230.824,104.432
1069.94,-203.252,106.628
1003.084,-171.776,75.64
935.252,-123.22,82.472
993.324,-73.2,77.836
1059.936,-53.436,59.292
985.76,-35.868,-18.056
865.224,-24.644,-11.956
808.128,-12.688,-51.728
770.064,29.524,11.468
698.328,64.172,31.476
587.552,91.5,-64.172
544.608,173.484,-86.132
528.26,178.12,-46.116
445.544,115.9,-17.324
489.464,148.596,-90.768
542.656,319.64,-69.296
504.348,260.348,13.42
475.8,243.268,77.592
490.196,317.688,2.684
516.548,405.772,-20.252
569.008,466.772,-3.172
716.628,543.144,1.464
723.948,467.748,55.144
458.964,433.344,-19.52
631.228,688.324,-94.184
755.424,775.188,-74.176
782.264,704.916,-35.624
828.38,691.496,41.236
836.92,594.628,44.408
707.356,563.152,9.272
617.32,751.032,-17.324
598.288,846.68,-30.744
638.06,827.404,35.38
726.144,849.608,79.3
716.628,895.968,124.928
601.704,928.908,117.608
534.848,850.34,56.364
540.46,892.308,49.044
503.372,893.284,57.34
454.084,810.08,67.1
395.28,801.784,110.288
393.328,864.248,122.488
385.52,986.492,99.064
346.236,1081.896,91.744
314.028,1089.948,31.232
279.868,1062.376,-21.472
284.504,1012.6,3.172
286.7,1009.184,47.58
219.112,1033.584,3.904
59.78,1037.244,-31.72
-16.592,995.276,-45.628
-86.376,974.78,-31.476
-100.04,963.556,-34.648
-117.608,858.88,67.1
-38.064,884.256,56.364
6.588,1082.872,-0.732
-57.34,1270.02,-41.48
-101.504,1276.852,-88.328
-117.12,1101.904,-121.512
-171.776,1003.816,-110.288
-211.792,970.632,-96.136
-247.172,911.828,-30.012
-212.768,996.74,-33.184
-168.848,1078.724,-41.724
-80.52,1084.092,-24.156
11.956,1141.676,7.076
1.464,1133.136,43.92
-30.744,1067.5,15.616
-78.568,1007.964,-4.392
-108.336,995.032,-42.7
-107.604,972.584,-20.008
-20.984,960.872,12.444
1.464,987.712,67.588
-21.96,984.784,48.068
-52.704,990.396,22.692
-107.604,1043.344,-42.944
-58.072,982.588,-19.764
-8.296,1040.416,2.44
24.156,1009.428,51.484
51.728,982.588,41.48
16.592,1002.108,56.608
-25.132,947.94,34.648
-39.772,972.34,4.392
-37.088,933.056,20.74
-28.548,931.592,7.808
-31.964,990.64,11.468
-16.348,994.056,0.0
-23.18,1098.488,-43.432
-11.224,1094.34,-21.716
-4.148,1021.628,12.688
-19.52,986.736,37.332
-38.552,948.184,38.064
-64.66,932.324,22.204
-76.128,1042.856,-35.136
-23.668,999.668,20.252
2.928,983.32,36.112
6.588,991.372,60.512
8.052,982.344,36.112
3.172,987.224,19.764
7.32,1068.476,13.908
25.376,1007.476,40.016
24.888,1013.088,49.532
6.344,1004.548,42.212
14.884,992.836,30.5
-5.856,995.276,27.084
2.44,954.772,33.428
4.392,964.776,42.7
10.492,974.292,34.404
15.86,984.54,15.372
-2.928,982.832,18.788
10.736,962.336,30.988
18.544,981.124,31.476
11.224,965.02,13.664
14.152,979.66,-14.396
21.228,1001.864,-7.808
12.932,1034.804,0.0
7.564,1036.512,5.612
15.128,1038.464,-2.684
8.54,1016.504,17.324
4.148,992.104,12.688
-8.296,973.56,16.104
-14.64,982.1,1.952
-23.18,976.488,-9.516
-8.54,961.36,-6.588
12.444,960.384,14.152
13.176,973.316,22.936
8.54,992.348,10.492
6.832,1010.404,-5.124
9.272,1012.6,-12.444
24.888,1011.136,4.392
36.844,998.204,20.008
26.108,984.296,24.888
19.764,986.98,4.392
0.488,985.516,-0.732
0.976,986.248,-2.196
-2.196,970.144,5.124
8.784,984.052,10.98
10.004,996.74,6.1
-0.732,991.372,3.172
-24.644,983.076,-14.884
-10.98,973.56,-14.64
7.32,980.636,7.564
25.376,1001.62,9.516
26.352,990.396,2.196
16.348,997.96,5.124
25.132,994.544,2.684
32.208,1030.412,-4.392
25.132,1039.928,-11.468
13.176,1033.828,-13.42
10.492,994.3,0.732
-2.196,974.292,5.856
-7.32,962.336,-17.08
4.148,1002.108,-24.644
21.716,1021.14,-43.188
33.916,981.612,-10.492
13.908,965.02,28.06
13.908,988.932,26.352
1.952,1042.612,6.588
17.812,1090.192,-2.928
79.056,1086.288,-1.464
44.652,1057.74,44.652
2.684,1031.144,69.54
-21.472,1071.892,60.024
-3.66,1110.688,39.772
-78.324,1132.16,14.396
-139.324,1221.22,37.332
-53.192,1225.124,27.816
14.64,1220.0,40.016
19.764,1255.624,70.272
57.096,1271.728,35.868
-40.992,1225.612,-28.304
-79.788,1137.04,-78.568
0.488,1139.968,-70.028
102.724,1165.344,-28.548
112.728,1208.532,-7.076
114.924,1165.1,-61.244
64.904,1037.488,-152.5
11.956,910.364,-178.608
-53.192,783.972,-121.756
26.84,777.872,-56.852
155.184,865.468,-44.408
143.472,908.412,-142.008
75.152,827.648,-301.584
28.548,725.9,-247.904
128.832,664.168,-145.424
236.192,681.736,-68.564
250.832,835.944,-109.068
142.008,881.572,-164.944
99.064,878.644,-169.58
203.496,888.16,-164.944
294.752,843.996,-149.084
254.736,868.396,-70.028
99.552,935.008,47.092
67.344,977.952,-66.124
270.108,934.52,-126.636
322.08,966.484,44.652
681.98,1003.084,73.2
417.972,957.944,130.052
218.136,1024.556,172.264
508.008,1021.872,127.124
481.9,998.692,8.052
256.688,805.444,155.916
650.748,702.232,111.02
1072.624,786.168,17.08
676.612,602.192,94.916
593.652,495.32,191.54
846.192,656.36,48.312
870.104,516.06,216.184
810.08,365.024,206.18
833.748,397.476,164.456
634.644,276.94,206.912
653.188,282.552,292.556
834.968,256.2,271.084
935.252,249.856,226.676
979.416,196.176,172.752
1104.344,162.26,184.22
1090.192,216.916,176.412
1002.596,263.764,165.188
921.1,286.7,190.076
907.192,208.62,221.308
933.544,180.56,190.564
976.488,166.408,146.644
993.812,180.316,180.316
1039.684,196.908,132.492
989.42,178.12,114.68
914.268,140.788,125.416
889.624,108.58,172.264
862.784,107.116,168.116
850.828,173.484,158.6
840.58,188.856,106.14
817.156,136.396,88.084
773.968,71.98,71.492
647.576,74.42,88.084
670.756,117.12,67.588
653.188,96.624,34.404
712.968,112.972,-25.132
686.128,42.212,-27.084
671.488,9.272,11.468
709.308,18.056,-10.98
658.8,-33.184,20.252
686.372,-168.36,22.204
841.312,-302.56,20.74
862.296,-258.64,-59.048
935.74,-46.116,-90.036
965.752,-17.812,-60.268
947.94,-47.092,-65.636
1013.82,-84.912,-120.78
1111.908,-171.776,-146.644
1128.256,-207.644,-142.252
1174.128,-203.008,-215.94
1124.108,-246.44,-221.552
1213.9,-350.628,-191.54
1234.396,-301.828,-211.304
1198.284,-151.036,-279.38
1295.152,-90.768,-334.28
1438.624,-181.292,-279.38
1544.276,-354.288,-319.152
1531.1,-320.128,-367.22
1519.388,-278.16,-420.168
1453.02,-182.756,-416.02
1377.136,-148.84,-395.28
1353.956,-217.648,-345.016
1304.424,-310.124,-339.892
1290.272,-262.3,-366.0
1315.648,-242.536,-384.056
1339.072,-255.224,-316.468
1366.4,-351.604,-253.76
1360.056,-431.148,-189.1
1317.356,-391.864,-165.676
1370.792,-245.952,-181.048
1429.108,-166.652,-183.488
1463.268,-192.516,-130.784
1433.256,-313.296,-66.124
1396.9,-321.592,6.832
1384.7,-257.176,8.052
1397.144,-219.6,8.784
1420.08,-185.44,-41.48
1279.78,-258.64,23.668
1205.848,-284.992,53.68
1194.868,-244.732,53.436
1179.496,-203.984,92.72
1125.328,-160.308,71.248
1124.84,-108.824,35.38
1163.88,-63.928,-21.96
1039.196,-44.408,1.952
893.772,-17.812,14.64
856.44,-20.496,13.908
831.796,2.44,2.684
849.12,45.14,-45.628
813.74,33.184,-62.22
673.196,31.72,-103.7
572.424,61.488,-142.496
439.444,103.944,-98.088
334.768,159.576,-41.724
413.336,263.276,-87.108
509.228,285.48,-148.108
391.864,277.428,-104.188
399.428,276.452,-94.428
458.232,272.548,-85.156
503.128,332.084,-100.284
598.776,355.508,-103.456
619.76,349.896,-76.616
627.08,366.976,-73.932
663.68,410.896,-56.852
695.888,410.408,-23.668
811.3,428.708,-54.412
875.228,483.852,-118.34
837.408,483.364,-40.748
900.604,513.132,-12.2
857.172,523.868,-61.488
664.656,473.116,-134.932
597.8,600.484,-135.42
496.54,672.952,-67.588
525.82,796.66,-16.592
727.608,905.728,-24.888
911.584,934.764,-37.576
916.22,871.812,-26.596
663.924,843.996,-58.072
434.32,843.508,-87.108
364.292,921.832,-61.0
365.024,909.388,0.976
428.22,869.616,50.02
477.264,884.744,53.68
442.86,939.4,-16.104
323.3,944.036,-58.804
189.832,1063.84,-60.024
101.748,1163.148,-49.532
152.012,1068.232,12.688
197.396,919.392,-3.172
118.34,911.096,1.464
58.316,969.9,18.3
9.272,1079.212,24.644
-72.224,1093.852,31.476
-108.824,1051.152,-15.616
-5.368,1030.656,46.604
121.756,1114.592,96.136
193.736,1260.992,88.328
114.436,1273.436,54.168
0.488,1200.236,-4.148
-51.728,1104.1,-18.544
-49.776,1076.528,-30.256
-39.772,1044.32,-33.672
-66.124,1067.988,-40.748
-82.228,1114.836,-58.804
-67.1,1097.268,-30.5
16.104,1057.984,6.832
45.872,1000.4,18.056
24.644,910.852,7.076
-29.036,1005.768,-38.308
-61.488,1063.108,-67.588
-55.144,985.028,-80.276
-20.496,1037.732,-75.884
19.764,1052.616,-28.304
62.22,1008.94,-16.836
65.88,1031.876,-14.64
29.28,991.616,-13.908
1.952,978.684,-26.352
-14.152,981.856,-8.296
1.708,977.952,-2.44
20.008,986.736,17.568
77.348,1014.308,25.864
141.032,1023.58,27.084
114.192,995.52,-25.132
39.528,951.844,-6.832
15.86,952.576,-10.98
15.86,913.048,21.472
36.112,915.488,45.14
73.932,945.5,51.24
121.512,995.276,55.632
128.588,1064.816,86.864
92.72,1072.38,44.652
37.088,1052.616,20.252
-2.196,1059.448,6.588
-18.3,1025.288,-11.468
3.66,1001.62,-14.64
51.484,971.12,10.248
93.208,965.508,11.956
90.524,976.244,5.368
48.312,1034.072,3.904
23.424,1027.484,0.488
34.892,965.996,-30.744
33.672,942.572,-29.524
38.064,926.712,20.74
41.724,942.084,24.4
28.304,941.84,15.616
28.792,963.8,-4.88
36.6,982.588,-1.708
48.556,969.412,-18.544
60.512,978.928,9.028
71.248,993.568,12.444
56.364,1006.256,28.304
42.7,1020.164,15.128
29.524,1016.016,9.76
46.36,1007.232,38.064
66.124,1035.292,46.116
80.276,1013.82,72.956
62.708,1004.792,67.588
31.232,982.588,85.888
-14.64,1024.068,123.708
-15.128,1085.312,105.652
4.148,1101.416,92.232
38.308,1112.152,90.768
71.98,1049.2,85.4
45.628,982.588,53.436
-16.592,954.04,46.116
-87.108,1014.796,31.232
-117.364,1110.444,-48.8
-143.472,1194.868,-94.184
-185.928,1215.12,-53.192
-167.14,1211.216,-5.612
-61.0,1209.996,-49.532
9.272,1243.668,-57.096
0.0,1142.164,-35.38
-74.908,1050.176,-25.132
-108.092,1143.872,-66.856
-84.18,1164.856,-129.076
14.64,1012.844,-108.336
83.692,892.552,-46.604
99.064,843.752,-27.328
43.188,855.708,-40.992
-3.416,903.776,-134.932
-1.952,940.62,-167.14
125.66,846.924,-120.048
273.28,779.824,-93.696
292.068,735.66,-84.424
188.612,772.016,-146.156
80.032,876.448,-216.916
57.828,879.132,-217.16
123.464,900.604,-163.724
187.392,913.536,-122.244
185.196,913.536,-138.836
126.392,954.04,-147.864
71.492,970.876,-154.94
29.28,879.864,-153.964
33.916,898.652,-134.444
40.748,902.556,-77.836
25.132,985.028,-52.948
25.132,1019.188,-65.88
0.976,997.228,-90.768
-35.868,941.108,-103.7
20.74,988.444,-112.484
163.48,1127.524,-67.1
267.912,1265.384,-73.444
342.332,1285.636,-75.396
534.116,1239.764,-105.408
592.676,1171.932,-202.764
500.2,1119.228,-18.3
616.588,980.636,3.904
689.544,1020.652,-33.672
635.864,809.592,58.072
743.468,737.612,114.436
815.204,634.156,170.312
852.048,545.584,-7.076
652.944,482.632,7.564
624.64,349.896,58.56
808.128,364.78,110.532
894.26,349.164,132.004
894.016,362.828,110.532
793.976,303.048,137.86
759.084,225.7,178.608
759.328,212.036,188.124
869.616,229.604,131.028
943.304,189.344,155.916
856.44,114.68,208.376
865.468,122.488,231.556
917.44,196.176,159.82
920.124,239.364,129.808
922.564,205.692,156.16
940.62,221.308,148.352
886.208,209.84,169.58
846.192,242.292,157.868
838.384,259.616,127.124
811.056,220.576,87.108
716.628,173.24,139.568
738.832,215.94,128.1
763.232,169.824,120.292
738.588,153.72,71.004
660.752,102.968,99.064
551.196,55.144,96.38
501.42,39.284,78.812
502.396,20.008,89.548
556.564,40.26,83.448
567.788,18.056,61.976
597.068,-43.188,-1.22
690.032,-61.488,-29.036
804.956,-57.828,-73.932
774.944,-48.312,-113.216
878.888,-21.472,-151.768
970.632,-115.656,-123.708
929.884,-202.032,-112.972
1003.328,-167.384,-196.176
1171.688,-86.864,-303.536
1317.356,-100.284,-316.224
1376.404,-219.112,-250.344
1223.66,-275.476,-268.888
1241.96,-220.82,-329.156
1359.08,-174.948,-381.128
1486.204,-111.996,-417.728
1476.2,-261.812,-357.46
1491.572,-315.004,-317.2
1552.572,-291.58,-355.264
1520.608,-274.5,-385.276
1473.516,-260.348,-383.568
1474.004,-271.328,-332.816
1387.14,-278.16,-282.064
1329.556,-242.048,-291.58
1334.192,-239.608,-294.996
1393.972,-209.596,-313.296
1380.796,-216.184,-285.724
1362.008,-201.3,-249.124
1379.332,-206.424,-219.6
1405.196,-237.412,-169.092
1390.312,-289.384,-98.332
1358.104,-313.052,-14.396
1347.124,-322.324,-10.492
1390.312,-278.16,-30.5
1358.348,-218.38,-47.092
1398.12,-174.46,-16.104
1360.544,-233.02,27.084
1247.572,-296.216,44.652
1234.64,-287.676,56.12
1271.728,-254.736,91.5
1260.26,-252.052,124.928
1135.088,-187.636,122.244
1028.948,-160.552,114.436
980.392,-113.704,88.816
945.5,-83.936,53.436
933.544,-50.508,17.812
891.576,-30.744,0.976
866.932,45.628,-35.624
832.528,73.932,-48.8
742.248,58.316,-27.816
741.028,81.74,-50.752
708.088,49.288,-39.284
718.336,77.348,-67.1
708.088,138.104,-98.332
629.276,195.932,-125.904
488.488,244.244,-116.632
462.624,287.92,-121.268
510.692,276.208,-85.4
583.16,246.44,-85.888
591.944,243.756,-76.128
574.864,280.6,-101.016
548.024,304.268,-56.608
620.248,325.252,-27.328
680.76,332.572,-37.332
747.128,350.14,-64.66
819.84,352.336,-52.216
861.564,330.376,-30.744
889.868,315.98,4.88
936.716,303.048,-15.128
902.312,263.764,6.344
914.756,273.524,32.94
946.964,326.472,63.196
842.288,321.836,67.344
849.364,424.804,38.308
847.9,469.7,80.276
807.396,439.444,181.048
787.144,466.772,152.744
683.688,463.112,114.68
612.928,552.172,68.076
583.648,640.012,-3.904
688.812,760.304,26.596
857.416,811.788,102.724
983.32,744.932,189.588
799.1,798.856,106.872
402.112,822.036,35.624
271.572,894.26,33.672
480.68,893.528,70.76
555.344,882.304,119.316
561.932,1014.064,65.88
435.296,1108.736,1.952
331.108,1135.088,-1.464
545.828,1059.936,136.152
712.724,982.1,170.556
636.596,1013.576,49.776
243.756,1023.092,-146.644
60.756,1034.316,-250.588
107.848,1014.796,-167.628
279.624,1065.304,-86.376
344.284,1110.932,-94.672
254.98,1061.888,-66.612
85.644,915.0,-74.42
183.244,1060.912,-161.528
301.584,1257.332,-136.152
221.064,1165.832,-24.4
148.352,1066.28,-63.44
85.888,958.676,-116.632
102.48,889.624,-121.024
155.916,972.34,-126.148
162.992,1128.256,-114.436
80.276,1165.832,-99.796
4.392,1076.528,-117.12
-107.116,972.584,-211.792
-127.124,925.004,-230.58
-43.92,939.156,-168.848
20.984,978.928,-92.72
44.652,1049.932,-44.164
16.836,1110.688,-44.652
6.832,1049.688,-65.148
-8.052,1039.684,-97.112
15.86,990.884,-76.128
51.24,966.972,-24.888
57.828,1039.928,-23.668
50.508,1031.876,-45.872
39.772,1016.504,-98.576
33.672,962.092,-73.932
49.532,933.788,-13.664
50.996,943.304,21.228
68.32,1028.216,-3.66
8.784,1106.052,-38.552
-50.996,1009.916,-70.76
-31.964,936.228,-66.856
52.704,932.812,-48.068
67.344,960.384,-51.24
28.548,980.148,-60.024
-5.856,1027.24,-92.476
-15.86,1014.308,-85.156
1.708,975.756,-66.856
10.004,1019.676,-117.12
0.732,1046.272,-74.664
13.176,1015.284,-64.66
9.272,962.336,-60.024
7.32,970.632,-67.832
-49.776,957.7,-85.4
-19.764,930.372,-66.368
-2.684,1069.94,-57.828
3.66,1076.772,-56.364
16.348,1026.752,-73.932
11.468,999.18,-59.292
21.96,940.864,-58.316
-1.708,891.576,-56.852
-68.808,908.412,-72.956
-53.68,941.596,-74.664
-8.784,961.604,-67.832
-15.128,1034.804,-100.04
4.88,980.88,-91.5
40.992,1015.284,-68.076
46.604,1031.876,-52.948
23.668,992.836,-74.176
-10.492,994.788,-73.2
-19.032,964.044,-83.204
-7.808,938.424,-64.172
4.392,946.476,-57.584
9.76,982.1,-65.636
21.228,997.716,-57.584
8.784,1004.792,-58.316
-22.936,979.66,-51.484
-17.324,974.536,-31.964
-2.44,1022.116,-16.592
3.904,1083.36,-23.668
-34.892,1067.256,-14.396
-38.064,1096.048,28.548
-31.476,1115.08,25.132
-63.684,1093.608,16.836
-119.56,1089.948,29.036
-123.952,1149.24,49.288
-101.26,1172.664,20.74
-56.608,1193.404,-11.956
-55.388,1123.132,-1.22
-65.636,1021.628,9.76
-87.108,945.988,-0.976
-107.116,983.076,-22.936
-63.928,1028.216,-68.32
-23.18,1023.336,-72.712
1.708,1022.604,-54.168
15.128,988.2,-80.52
24.156,985.516,-115.9
35.624,1053.836,-113.216
17.568,1011.38,-130.052
53.68,986.004,-132.736
107.604,942.816,-165.188
101.748,890.6,-194.224
88.572,922.564,-140.056
121.268,915.732,-138.836
144.936,949.404,-166.408
102.968,941.108,-177.388
79.3,888.648,-177.632
71.98,885.476,-126.148
106.872,913.536,-93.452
142.008,959.652,-82.716
95.648,962.092,-111.996
21.472,915.0,-141.276
-26.596,867.42,-104.676
-9.028,894.748,-68.564
12.444,931.836,-71.492
10.98,978.44,-60.756
3.904,981.612,-79.788
-12.444,961.36,-75.152
-22.204,939.644,-74.176
-2.684,993.568,-58.56
-0.244,1034.804,-43.432
-5.856,1053.592,-46.116
-15.372,1021.384,-49.044
-13.42,949.648,-55.876
-23.912,946.232,-47.092
-37.576,949.648,-51.972
-44.408,984.54,-49.288
-24.644,1018.7,-32.696
-10.492,1007.232,-17.812
7.808,1002.84,1.708
28.792,1046.76,-4.88
26.352,1069.208,-30.5
67.588,1117.276,-45.384
194.468,1169.98,-18.788
322.08,1191.208,15.86
539.484,1227.564,-61.732
327.692,1040.416,141.52
469.7,1247.572,51.972
319.396,1039.928,33.184
371.124,1050.908,-64.416
471.652,1014.064,-74.42
511.668,845.948,5.124
460.672,672.952,87.596
425.292,603.9,129.808
404.064,518.988,116.632
663.924,561.688,89.792
854.488,554.612,97.844
952.82,564.128,82.716
1062.132,659.532,9.272
835.7,569.496,-47.092
835.456,534.848,-3.66
940.132,400.892,63.684
927.932,297.192,126.392
887.916,233.752,107.36
874.496,236.192,47.092
795.684,200.08,11.956
962.092,260.836,-19.764
1002.108,334.036,-3.172
907.436,277.184,21.716
966.728,317.688,-51.484
934.764,274.012,-20.984
905.728,241.804,-21.228
924.272,226.92,-29.036
835.944,195.444,-13.908
797.88,220.576,-16.104
771.528,211.792,-22.692
723.216,198.372,11.712
697.352,158.6,28.792
703.208,135.664,44.164
689.544,93.94,-1.22
755.18,77.348,-28.06
729.56,86.864,-57.096
577.792,102.724,-77.592
603.656,128.832,-75.884
565.836,-14.396,-24.644
668.072,-131.272,24.4
710.04,-170.556,47.824
638.792,-184.708,-91.5
659.776,-170.8,-135.908
737.612,-141.764,-140.788
992.104,-19.764,-221.064
1052.372,23.18,-279.38
1033.828,-6.588,-338.672
973.56,-171.776,-281.088
1101.172,-274.988,-142.984
1299.056,-248.392,-267.18
1434.72,-159.82,-331.596
1289.54,-168.848,-342.088
1164.368,-252.784,-325.252
1362.496,-254.492,-258.64
1461.804,-281.576,-229.36
1500.356,-214.72,-269.864
1430.328,-184.952,-379.42
1357.616,-180.072,-405.528
1365.668,-289.628,-339.16
1518.168,-302.072,-273.524
1536.956,-271.572,-290.848
1516.948,-256.2,-316.468
1504.26,-273.768,-309.148
1468.392,-312.32,-251.076
1471.808,-323.3,-195.932
1520.608,-303.292,-215.94
1465.952,-292.556,-200.812
1344.684,-303.536,-150.548
1327.116,-307.196,-70.516
1362.496,-328.912,-35.38
1382.26,-332.816,-46.604
1325.164,-358.192,-51.484
1294.176,-344.528,-61.0
1311.744,-310.124,-30.988
1284.172,-322.812,52.46
1185.84,-346.236,96.38
1066.524,-306.952,91.744
1063.352,-219.6,73.688
1059.936,-154.696,76.616
1056.52,-141.764,77.348
1060.912,-140.544,100.284
1061.156,-136.884,56.364
960.872,-121.512,33.184
780.556,-115.168,32.452
664.168,-76.616,10.492
621.956,13.908,9.516
579.988,107.36,-21.96
447.252,187.88,-19.52
355.02,197.64,31.964
357.216,196.664,-34.648
381.128,360.632,-137.616
410.408,355.752,-122.488
519.232,463.844,-143.228
674.904,441.152,-49.288
563.884,298.412,95.648
314.76,203.008,25.376
443.836,374.052,6.832
658.8,565.836,-25.62
674.66,614.88,-8.052
631.472,624.64,-30.012
704.184,705.648,-77.836
692.472,695.4,-13.42
594.628,610.0,16.348
617.32,731.756,64.416
668.072,788.12,104.432
625.372,734.44,111.508
614.148,670.756,43.188
683.444,723.948,80.032
533.872,795.928,107.604
382.592,821.06,104.432
439.688,845.948,166.164
491.172,910.364,229.848
597.556,966.24,154.696
656.848,872.544,66.368
442.86,848.632,-14.396
132.98,962.092,-64.416
18.544,1180.228,-49.044
43.188,1136.064,153.72
329.888,1078.724,301.584
374.296,1245.132,296.704
252.296,1117.032,97.356
-84.18,1053.348,-143.716
-287.92,975.512,-272.06
-164.944,1027.728,-151.524
110.532,1043.1,-1.464
163.48,1061.4,15.616
107.848,1071.892,-71.248
-21.228,1150.704,-158.356
-64.904,1073.844,-194.712
-72.468,1029.924,-150.548
24.888,1018.212,-39.284
131.272,958.432,6.344
193.736,994.544,-24.888
98.82,1062.62,-93.452
25.62,999.912,-126.88
-49.532,986.98,-139.08
-64.904,1008.94,-144.448
-28.792,1061.156,-120.292
17.812,1065.06,-74.176
86.864,1066.28,-18.3
103.7,1065.792,33.672
84.18,1099.708,39.04
97.112,1110.688,23.18
109.312,1086.288,65.148
88.816,1078.968,105.408
72.468,1090.924,100.04
38.308,1067.012,126.148
-18.788,1140.944,70.76
-57.584,1111.42,3.904
-31.964,1044.808,-18.544
82.96,1024.312,41.968
138.836,1009.916,96.38
196.42,936.716,51.484
193.98,976.732,-32.208
97.356,978.928,-133.956
13.664,965.508,-193.98
11.224,940.62,-208.132
68.32,931.348,-216.184
130.296,964.776,-200.08
172.02,952.82,-184.952
186.416,894.26,-158.844
145.424,871.08,-138.348
139.568,859.124,-132.98
136.396,903.044,-136.64
130.296,927.2,-128.588
97.6,913.292,-110.776
76.86,908.656,-83.204
88.084,965.996,-71.736
102.48,992.836,-65.636
99.064,1024.068,-49.044
112.484,1030.9,-25.864
136.152,1061.156,-16.836
152.5,1080.432,-26.108
136.152,1094.34,-26.352
115.9,1058.472,-27.572
123.708,1002.352,-14.884
140.3,965.02,-3.66
210.572,964.776,25.62
138.348,949.404,72.224
148.84,970.144,1.952
137.128,957.944,-13.664
161.528,965.752,-1.22
182.512,956.724,21.472
194.224,958.92,23.424
195.2,958.92,20.008
188.612,978.684,5.124
173.24,996.74,-20.496
136.884,986.004,-16.104
155.428,968.192,-7.076
181.048,1005.768,10.004
186.416,1030.656,3.416
155.916,990.152,-6.588
120.048,986.98,-21.716
123.464,991.372,-24.156
151.768,1016.504,-7.564
150.304,1041.148,0.732
123.22,1047.492,4.148
124.196,1073.6,-9.272
154.94,1121.18,-9.516
176.9,1133.868,-19.52
181.78,1117.764,-2.928
178.12,1120.936,-24.644
166.164,1138.26,-22.936
179.584,1128.256,-51.728
200.812,1118.008,-43.432
260.592,1068.476,-18.056
282.308,1010.16,12.2
293.776,991.616,42.456
293.288,937.692,53.436
292.312,941.84,44.896
272.548,912.56,16.592
248.88,869.128,11.224
256.2,869.616,52.948
322.812,850.096,53.68
330.132,862.296,64.416
303.292,849.12,28.792
278.16,861.32,20.008
262.788,875.228,13.664
269.376,878.644,17.568
299.876,889.136,32.208
321.592,921.588,42.7
252.296,874.252,17.812
234.972,858.636,22.936
229.604,865.956,37.332
240.34,903.044,50.508
312.32,1020.164,53.924
341.844,1050.42,2.196
273.524,990.64,-20.74
312.808,1009.428,18.788
464.088,1098.244,24.888
541.924,1187.304,8.296
603.656,1192.916,-27.816
495.32,1055.056,23.424
387.716,844.24,186.416
574.864,763.232,180.804
779.092,822.524,-74.908
750.056,775.432,-45.872
665.388,689.056,-30.012
698.572,637.572,-24.156
760.792,535.092,72.468
852.048,419.68,114.924
840.58,253.516,121.512
931.592,99.064,96.38
1013.82,-24.156,99.308
1006.988,-6.588,81.984
1061.644,42.944,78.08
1029.192,-30.5,79.788
915.488,-91.988,154.696
882.304,-81.496,225.456
933.056,19.032,139.568
918.66,93.94,66.856
959.896,101.992,55.876
997.472,61.488,66.612
897.92,41.724,76.372
872.544,42.456,76.128
932.08,43.432,40.504
905.484,62.708,53.68
889.136,70.516,73.2
895.48,77.592,79.056
845.704,81.252,66.368
815.692,75.64,71.248
815.448,101.504,5.368
728.828,66.856,69.296
710.772,8.296,109.068
672.952,-30.744,98.088
623.664,-42.944,57.584
653.92,11.956,20.74
657.58,43.676,1.22
650.504,31.476,8.54
640.744,-70.76,-28.792
649.284,-202.032,99.308
597.312,-233.508,135.664
749.812,-139.812,57.828
911.828,-70.028,-80.764
961.604,-51.728,-195.932
749.08,-272.548,-33.184
958.92,-194.468,14.64
1106.296,-139.324,-120.048
1142.408,-178.852,-228.872
1221.22,-248.148,-254.98
1254.404,-248.636,-193.492
1262.456,-81.74,-217.648
1382.016,13.42,-292.068
1575.752,-36.112,-335.012
1612.596,-202.032,-263.764
1534.76,-327.692,-215.94
1436.672,-338.672,-196.176
1390.312,-281.088,-242.536
1572.824,-210.572,-243.024
1551.596,-259.372,-220.576
1412.76,-368.928,-226.92
1398.852,-430.66,-225.456
1431.792,-411.872,-194.468
1495.476,-258.64,-183.0
1486.936,-149.816,-198.616
1388.36,-82.96,-211.792
1379.332,-143.472,-174.948
1492.792,-233.264,-121.268
1514.996,-285.968,-72.712
1497.916,-217.892,-87.352
1420.324,-206.912,-58.072
1389.58,-255.712,12.688
1420.568,-278.16,93.94
1339.072,-227.652,84.668
1253.672,-189.588,63.684
1214.876,-158.844,70.76
1191.452,-153.476,92.72
1211.948,-123.22,91.5
1112.396,-112.972,56.364
1062.864,-83.204,21.228
1032.364,-72.712,24.4
1005.768,-41.236,63.928
972.34,-69.052,81.496
910.364,-73.444,64.172
788.12,-67.344,39.772
776.164,-33.428,17.568
664.168,-39.284,44.408
555.588,17.568,20.984
547.536,120.78,-44.164
534.116,187.636,-53.192
467.992,250.832,-90.524
398.94,289.628,-88.572
368.44,333.304,-52.216
306.464,348.92,-59.78
296.216,336.232,-40.992
410.652,361.12,-46.116
519.476,369.416,-62.464
545.34,356.24,-62.708
622.688,399.184,-85.156
748.592,450.18,-117.608
834.968,504.348,-117.608
897.432,532.164,-101.016
926.956,467.26,-42.212
1006.744,467.016,15.128
992.836,414.8,32.208
660.264,290.848,41.968
634.156,365.024,61.732
713.944,432.368,41.236
881.084,537.044,59.292
993.324,630.252,81.496
675.392,682.712,70.272
564.86,806.908,-52.948
367.708,786.168,-93.696
459.208,815.936,-19.764
830.576,925.248,-20.496
831.552,901.336,15.128
578.524,893.772,-26.352
325.74,999.912,-85.4
374.784,1102.88,34.404
453.84,1263.188,91.5
478.972,1229.516,248.636
313.784,1189.256,93.452
-40.504,1074.332,-191.052
-9.516,965.02,-153.232
58.072,950.624,-55.632
91.5,1014.796,-28.792
152.256,1120.448,-11.224
196.176,1157.536,-59.78
249.124,1187.06,-79.544
177.388,1148.02,-27.328
146.888,1086.532,-13.42
99.552,1036.268,-19.276
82.96,1025.288,-33.672
134.2,950.38,-10.98
188.124,930.128,9.028
164.7,968.924,18.544
104.188,946.72,-1.708
77.348,981.124,-52.216
21.472,1026.996,-77.104
-29.768,1050.176,-125.66
-19.276,1013.088,-104.432
13.664,1014.796,-104.92
42.456,1067.5,-80.52
84.668,1107.028,-50.508
111.508,1144.604,-38.796
117.364,1047.98,12.2
108.58,1037.976,20.984
122.976,975.268,39.04
131.76,970.144,58.56
132.98,1001.62,73.2
116.876,1026.996,81.984
102.968,1043.1,85.644
89.548,1028.216,108.336
61.244,1119.472,92.964
18.788,1167.296,57.584
47.092,1180.96,31.72
91.744,1142.896,20.008
70.028,1031.876,30.5
109.068,960.872,-21.472
110.532,951.6,-63.684
102.236,976.976,-121.024
87.596,979.172,-144.448
90.768,894.748,-188.612
122.0,874.252,-194.224
157.38,879.62,-193.98
158.844,853.268,-195.932
167.628,870.348,-182.756
218.136,968.192,-180.804
228.384,976.0,-195.688
189.588,952.576,-186.172
145.668,922.564,-176.9
135.664,893.772,-145.18
144.204,1003.328,-165.92
154.208,1059.936,-155.428
176.656,992.348,-112.972
193.492,967.46,-85.644
159.088,951.844,-79.3
87.108,937.936,-96.624
65.636,962.336,-83.448
84.18,953.796,-66.368
107.36,953.552,-62.22
117.852,995.032,-61.244
109.312,987.224,-69.296
70.272,994.788,-85.4
80.764,1004.06,-85.156
88.572,1014.796,-83.936
105.652,1033.584,-86.132
102.48,1012.6,-91.256
77.836,990.884,-83.204
87.84,994.544,-82.716
105.652,1043.344,-75.396
87.84,1037.488,-81.984
72.712,1016.992,-69.052
90.768,1025.532,-58.072
131.516,1041.88,-47.092
158.844,1062.62,-33.184
142.984,1023.336,-30.744
118.096,984.296,-42.944
106.628,986.248,-42.212
112.484,1003.328,-37.332
130.052,1040.66,-32.208
137.372,1026.996,-26.596
155.428,1016.748,-27.328
154.696,1003.328,-29.036
130.296,978.196,-41.724
103.456,974.292,-48.068
116.144,975.756,-35.38
121.756,1004.304,-43.92
129.32,1004.792,-34.404
146.644,987.224,-27.816
142.008,969.412,-23.668
121.512,954.528,-27.572
118.34,975.756,-28.06
98.332,958.676,-41.48
69.784,938.18,-50.996
70.76,928.664,-34.16
98.088,941.352,-26.596
97.6,989.176,-26.352
61.0,979.172,-32.208
67.588,952.088,-46.848
91.5,918.416,-40.504
117.608,901.092,-39.284
93.696,929.396,-38.308
53.436,943.304,-61.244
66.124,953.552,-71.492
97.112,957.456,-47.824
105.652,957.944,-42.7
74.42,962.092,-47.336
50.508,994.056,-76.372
36.6,992.348,-78.568
50.02,975.268,-72.224
84.424,963.556,-56.852
98.576,998.692,-42.944
89.304,1040.172,-55.632
99.308,1073.112,-68.808
128.344,1080.92,-67.588
146.888,1036.268,-9.76
211.792,1046.516,23.424
282.796,1125.084,-34.648
336.72,1162.904,-62.22
426.756,1159.488,-76.372
411.628,1124.84,-86.132
395.036,1033.828,-72.712
411.628,991.128,0.0
448.96,937.204,-8.052
646.844,983.808,-35.38
767.624,928.908,-4.392
730.536,838.14,1.708
683.932,808.616,-100.772
718.58,783.972,-96.868
857.172,696.864,-81.984
915.732,585.6,25.132
877.912,494.832,32.94
797.88,437.736,4.148
848.876,347.944,43.92
904.508,297.436,1.708
769.576,223.504,64.66
793.244,151.524,112.728
848.388,140.056,147.62
859.612,142.252,143.472
915.0,147.62,117.852
818.376,88.816,166.652
781.044,53.924,208.864
854.0,96.624,192.272
847.9,101.748,144.448
923.052,119.316,86.376
926.956,128.344,63.928
872.544,94.428,59.048
860.344,88.816,78.324
804.224,71.248,90.524
772.016,95.892,88.816
797.636,135.176,68.32
749.08,136.64,91.256
695.644,100.04,109.8
628.788,17.812,111.752
537.776,-46.116,101.504
576.816,-14.396,56.12
619.516,76.372,25.864
583.16,8.296,85.888
652.456,-50.508,85.4
743.224,-114.68,27.816
740.784,-127.612,101.26
830.82,20.74,40.504
991.372,60.268,-66.612
1039.928,-16.592,-108.092
1107.272,-144.936,-132.004
1130.452,-248.392,-7.076
1110.688,-60.024,-75.884
1085.8,51.728,-156.648
1226.588,26.84,-192.272
1472.54,-99.552,-171.776
1489.62,-271.572,-170.556
1408.368,-293.776,-108.824
1458.388,-132.248,-201.056
1488.644,-66.856,-219.356
1531.344,-50.02,-205.204
1563.796,-111.02,-204.96
1496.94,-185.196,-213.988
1363.716,-264.984,-185.44
1336.632,-252.052,-144.936
1309.06,-226.92,-119.804
1211.948,-263.764,-82.96
1215.608,-295.972,-71.248
1208.288,-283.04,-95.892
1247.328,-273.28,-84.424
1250.012,-206.912,-66.124
1282.708,-164.944,-83.692
1335.9,-178.852,-92.72
1422.032,-161.04,-111.508
1410.808,-178.364,-80.764
1347.368,-220.088,-5.856
1328.336,-264.008,44.164
1413.004,-280.356,41.236
1394.948,-298.168,103.944
1291.492,-313.052,128.344
1205.848,-253.272,106.384
1157.536,-209.352,111.02
1226.832,-179.34,123.22
1261.236,-181.78,134.444
1186.816,-173.728,149.084
1103.856,-137.616,150.548
1033.096,-114.436,175.924
1001.132,-103.944,190.808
1025.044,-119.316,233.264
986.248,-111.996,191.784
949.16,-56.608,139.08
862.296,-50.02,132.736
705.648,-40.016,179.34
684.42,12.932,145.424
629.52,100.04,76.616
576.084,154.696,77.592
567.3,179.34,54.9
516.792,208.864,15.372
416.264,212.524,25.62
430.172,268.4,4.392
438.956,311.344,0.976
449.448,330.132,25.376
486.536,356.972,17.812
532.652,358.192,31.72
671.488,391.376,-5.856
743.224,427.0,-38.308
749.812,440.176,-32.696
748.104,427.732,-2.928
794.952,415.044,34.404
862.296,335.012,94.184
950.136,308.172,70.028
1004.304,309.636,94.184
933.056,349.408,63.44
813.252,304.024,154.94
803.004,292.8,219.844
802.028,377.712,173.484
765.672,430.172,132.492
784.46,471.652,126.88
695.644,424.804,191.296
618.54,443.836,131.516
528.26,585.844,15.86
462.624,685.396,67.1
698.816,777.872,103.456
880.84,847.412,109.068
814.472,767.624,71.004
628.3,681.736,20.008
451.644,667.584,-11.712
480.924,861.32,-56.852
568.276,1009.916,-20.74
607.072,1140.7,10.248
562.42,1249.768,0.488
439.444,1232.444,-85.888
324.032,1179.008,-196.908
194.224,978.684,-119.804
185.928,1031.876,-82.472
268.4,1121.912,50.996
402.6,1243.424,-13.42
286.212,1385.676,-54.412
134.2,1398.364,-143.228
15.86,1252.94,-172.02
-15.86,1107.516,-142.252
-10.98,941.596,-101.992
46.848,864.248,-53.436
33.428,947.452,-81.984
-7.564,984.296,-77.348
-19.276,988.444,-83.936
-12.444,1014.552,-97.112
18.056,1029.436,-45.384
75.884,1008.696,-17.08
116.388,958.432,-8.296
80.52,1042.124,-20.252
27.328,1077.992,-29.28
59.536,1035.048,-37.088
81.984,1006.012,-6.832
101.016,978.684,-2.196
73.688,1010.404,-6.1
74.664,1080.432,-23.668
120.536,1081.408,-27.816
121.268,1104.344,-9.516
124.44,1100.196,-16.592
88.816,1053.104,-48.068
61.244,973.072,-45.384
37.088,965.996,-51.972
47.824,1051.884,-78.812
77.348,1107.272,-68.564
140.056,1126.548,-50.264
180.804,1057.008,-16.104
180.804,1038.708,-24.4
138.348,1015.284,-21.96
90.524,996.496,-42.7
68.076,1016.748,-66.368
96.868,1016.504,-57.34
164.456,986.98,-10.248
180.56,980.392,44.408
201.788,1001.62,61.0
202.764,982.1,20.984
147.864,944.524,-18.788
101.992,953.552,-26.108
115.412,1010.404,-35.624
171.776,1037.976,-29.036
217.404,1077.26,-52.46
221.796,976.976,-81.008
170.312,854.244,-75.152
126.88,860.832,-61.488
149.084,975.512,-95.648
180.072,1012.844,-146.888
186.416,982.344,-157.38
189.1,931.836,-117.364
240.828,900.36,-125.904
241.316,936.228,-169.824
215.208,954.284,-179.828
194.224,904.508,-154.696
190.808,893.772,-171.776
160.064,890.6,-166.164
145.912,942.328,-167.628
176.168,935.008,-160.796
196.908,936.228,-133.468
186.66,929.396,-107.116
155.428,934.52,-100.528
122.0,931.836,-108.092
112.972,940.864,-101.992
127.124,943.304,-95.16
130.784,978.928,-74.664
92.964,988.444,-65.148
62.22,985.76,-76.616
57.34,979.904,-84.912
59.292,1004.304,-95.16
118.584,1037.976,-86.62
141.52,1062.132,-71.98
155.916,1031.632,-61.732
144.936,1010.404,-42.944
145.912,983.32,-49.776
158.6,969.168,-41.724
151.036,979.416,-49.288
134.444,977.708,-54.9
143.472,938.912,-47.092
133.712,933.788,-34.404
142.74,972.34,-42.944
141.764,1005.524,-44.408
149.084,989.664,-56.12
133.712,973.56,-63.684
122.732,936.472,-72.468
127.612,925.248,-69.296
145.668,958.432,-61.0
150.304,980.88,-52.948
163.48,1011.624,-68.32
150.792,1006.256,-84.912
134.444,1020.896,-88.572
161.284,1021.628,-91.012
165.676,1016.504,-86.864
188.612,1053.348,-80.52
202.52,1102.88,-89.304
225.7,1097.512,-88.816
198.128,1043.588,-66.124
200.812,992.104,-56.12
233.996,1000.156,-40.504
252.052,1003.816,-26.596
251.076,986.98,-15.372
235.216,972.34,-23.912
258.152,957.212,-22.936
265.228,951.112,1.708
266.936,946.964,26.84
294.508,938.424,34.404
284.748,933.056,27.816
267.424,966.484,30.256
273.524,998.692,25.132
280.6,996.008,29.28
290.604,986.248,28.792
263.276,959.164,40.504
244.244,952.82,28.304
242.78,972.096,30.744
247.66,994.056,37.332
247.416,994.544,41.968
253.516,1010.16,38.064
244.0,990.64,28.548
248.88,996.74,21.472
269.376,1042.856,28.06
312.564,1076.528,21.472
371.124,1099.952,-12.444
434.076,1068.232,-26.84
536.068,1014.552,-26.108
620.248,1033.584,70.516
582.916,993.08,66.612
489.464,1007.476,106.872
408.7,900.604,164.7
553.392,846.436,72.224
659.776,750.788,69.54
641.964,657.58,46.604
691.252,659.776,-0.976
740.052,631.96,98.82
728.34,420.656,160.552
942.816,428.22,97.356
772.992,363.804,78.568
642.696,254.248,129.32
806.908,216.916,156.404
858.148,200.324,171.776
816.912,159.82,169.092
969.412,183.488,105.408
994.3,177.876,81.984
973.56,149.572,120.292
946.964,101.992,142.74
906.216,80.032,183.976
982.832,127.612,169.58
996.252,149.816,160.796
925.492,122.976,162.748
899.14,140.3,162.26
912.072,142.008,166.652
930.372,125.904,208.62
983.076,166.164,177.632
1019.92,230.824,138.104
1016.26,253.516,117.852
976.732,206.424,149.084
966.24,165.188,159.576
986.004,176.412,140.788
987.468,221.308,113.948
980.636,247.904,97.356
985.76,227.896,95.892
958.92,175.192,112.972
942.084,174.948,86.62
859.856,161.284,86.62
824.72,160.308,109.312
812.276,135.664,129.076
788.608,120.048,127.124
788.364,99.064,90.768
804.224,102.48,68.32
800.076,103.456,50.02
760.06,75.396,41.968
700.28,16.348,58.316
712.968,-36.112,52.948
716.872,-57.34,73.688
769.088,1.464,54.9
840.336,56.364,-40.748
802.516,13.176,-131.028
760.792,-122.0,-66.612
761.036,-181.048,41.724
796.66,-89.548,-33.672
930.86,52.948,-161.528
918.66,147.62,-257.908
836.188,37.088,-289.872
1011.136,-109.8,-126.636
1162.66,-179.584,-24.644
1129.72,-104.188,-194.956
1230.248,40.26,-382.836
1269.288,12.444,-332.084
1340.048,-113.704,-206.912
1518.168,-102.724,-167.384
1424.228,-132.004,-196.664
1335.168,-182.756,-239.852
1420.568,-125.904,-282.064
1410.32,-142.008,-233.508
1431.548,-189.588,-181.292
1459.364,-154.94,-218.624
1456.436,-110.532,-305.488
1405.684,-85.644,-293.044
1356.64,-42.944,-253.516
1345.66,-69.296,-209.84
1328.824,-121.512,-192.516
1356.152,-160.064,-183.0
1521.584,-131.028,-169.58
1587.708,-116.144,-129.564
1429.84,-146.888,-111.264
1284.904,-169.336,-87.352
1322.968,-170.8,-77.836
1387.384,-149.084,-64.66
1406.66,-146.156,-51.484
1384.456,-149.084,-56.12
1272.704,-185.196,-55.388
1139.968,-209.84,-19.52
1249.28,-180.56,0.488
1299.788,-191.296,23.912
1185.84,-214.232,62.952
1125.816,-243.512,110.776
1081.408,-203.252,121.512
1084.092,-85.4,107.116
1128.256,44.652,81.496
1053.836,37.088,90.524
917.684,-2.684,129.564
887.916,6.344,96.38
923.052,33.916,65.392
893.284,69.54,4.148
712.48,97.844,-12.2
596.58,140.3,-0.976
553.392,156.16,16.592
580.964,229.116,-47.092
530.456,277.184,-66.124
357.216,219.112,1.464
373.076,233.264,-5.368
560.224,333.792,-49.776
661.728,335.5,7.808
618.784,342.088,0.0
536.556,396.5,-34.648
430.416,319.64,-17.568
407.48,353.068,3.416
640.012,524.356,0.732
733.464,578.036,4.88
651.48,553.148,-13.176
617.808,642.696,-37.088
558.516,686.86,-56.364
556.564,678.564,-20.008
640.012,689.544,-18.056
713.944,749.812,1.708
659.044,553.148,-58.072
553.392,505.08,-103.7
685.884,774.456,-77.348
760.06,961.116,-12.2
743.712,998.204,103.7
805.2,1161.196,112.484
732.488,1184.62,122.976
571.204,936.716,36.6
419.924,716.872,-73.932
298.9,630.008,-12.2
336.476,701.988,65.148
349.652,692.716,132.004
298.412,832.528,174.704
242.536,982.832,162.992
172.02,1231.468,129.076
160.796,1355.908,69.784
203.984,1267.824,76.616
247.66,1129.964,103.944
101.992,1032.608,41.48
-25.376,1063.84,0.0
-35.136,1129.964,20.74
23.912,1128.744,40.504
102.48,1064.816,0.0
35.624,1012.356,-4.148
-94.428,987.712,-52.948
-148.596,954.528,-56.364
-74.42,951.6,-14.884
54.412,960.628,59.536
152.744,1004.548,86.132
143.716,1091.412,67.588
110.776,1128.988,35.136
92.964,1134.112,47.092
123.952,1143.384,53.436
163.968,1138.26,67.588
207.156,1080.432,75.396
181.048,1036.268,72.468
130.54,1009.916,72.224
55.388,1019.92,44.408
7.32,1036.756,18.056
89.548,981.368,27.328
116.632,979.172,53.924
126.148,965.752,67.588
122.244,956.968,60.268
92.964,1005.28,40.26
50.508,1038.464,20.496
65.392,1016.504,36.356
111.508,986.492,88.084
169.58,962.092,102.236
142.984,971.608,85.156
95.16,982.1,85.888
74.664,976.976,109.312
49.044,1015.772,127.124
74.176,1086.044,108.336
138.104,1096.78,104.432
141.032,987.224,92.476
72.956,886.696,67.832
-11.224,914.268,10.492
-54.412,1028.46,-27.084
28.792,1047.98,-30.256
154.696,1088.24,-15.372
191.296,1039.44,-10.004
156.892,950.38,-39.04
96.624,935.74,-82.228
69.052,1015.284,-132.248
106.384,1029.924,-143.228
168.604,1007.964,-121.756
192.272,973.56,-113.704
198.86,961.116,-150.792
164.212,1000.156,-190.32
133.956,1044.808,-189.588
136.152,1068.476,-160.552
183.244,1031.632,-149.572
216.184,994.788,-125.904
214.72,986.004,-116.876
210.328,954.528,-90.524
213.744,945.256,-85.888
179.34,978.44,-117.12
180.56,1028.704,-94.672
192.76,956.968,-73.688
187.148,907.436,-52.948
186.904,892.308,-33.428
117.364,893.284,-78.568
103.7,917.44,-82.96
117.12,948.672,-74.42
151.28,937.692,-45.384
156.404,945.012,-40.016
137.616,993.568,-39.284
124.196,1007.964,-55.876
111.996,976.244,-54.656
109.068,963.8,-56.364
147.376,956.48,-21.228
148.352,976.244,-17.324
149.816,978.684,-10.98
152.012,968.924,-3.904
103.7,974.536,-27.816
111.752,957.944,-17.08
135.664,1008.452,-9.516
149.328,1038.464,-11.956
159.332,1004.06,1.708
153.476,959.408,-3.416
142.008,937.936,5.856
135.42,983.076,-0.976
136.152,992.348,-5.856
156.404,982.1,-3.416
157.624,972.096,1.22
131.516,976.488,-5.124
117.608,988.2,-4.636
120.292,1000.156,-19.276
136.396,993.812,-21.96
135.664,982.588,-16.592
155.916,985.76,-7.808
155.184,978.44,-0.244
153.72,990.64,-5.856
153.232,1011.624,-19.764
143.716,1013.82,-18.788
135.664,995.764,-21.716
138.592,975.512,-16.104
143.472,975.024,-13.42
133.224,970.632,-22.692
129.808,979.66,-22.204
134.932,994.544,-23.424
131.516,1000.888,-28.304
125.66,1019.676,-30.744
126.148,1037.732,-34.648
139.324,1051.396,-30.256
155.428,1025.532,-25.62
143.96,1008.208,-19.52
124.928,1020.164,-26.352
103.7,1053.592,-40.26
86.376,1071.892,-48.312
73.444,1061.4,-55.144
80.52,1038.952,-58.072
91.256,1031.144,-45.384
102.968,1046.028,-40.748
98.088,1074.332,-53.68
115.412,1059.936,-52.216
116.388,979.904,-86.376
165.188,1080.92,-88.572
273.28,1193.16,-63.928
377.712,1169.736,-58.072
406.992,1151.192,-83.692
461.404,1116.056,-145.912
482.632,1045.296,-122.244
511.18,932.324,32.208
535.092,862.54,122.488
763.964,903.776,103.456
899.872,968.68,18.544
678.32,785.436,-43.188
573.888,612.44,-40.26
631.96,468.968,55.388
666.852,396.012,161.284
727.608,427.0,96.868
862.54,341.6,80.276
1014.308,403.576,6.588
935.74,418.948,17.08
731.756,254.004,108.336
658.556,202.764,179.828
812.764,181.292,170.556
998.204,217.648,106.628
949.648,207.888,115.9
865.224,184.464,144.692
890.112,216.428,128.588
920.124,257.908,72.956
933.3,238.144,69.54
914.268,204.228,119.56
879.864,209.108,145.18
814.472,180.316,165.432
830.088,164.944,180.072
898.164,229.36,128.832
899.384,263.764,125.904
865.956,232.044,158.356
852.536,215.208,132.98
808.86,193.736,136.396
760.06,205.936,121.756
772.992,263.52,107.848
691.008,281.82,117.608
624.64,277.184,118.096
619.028,207.644,133.224
612.684,110.776,111.02
680.272,71.248,65.392
756.156,79.544,51.972
709.552,87.596,70.028
619.76,18.056,77.348
670.512,-72.468,97.6
862.296,-76.616,-7.564
904.02,-2.684,-37.576
861.808,-10.004,15.86
821.548,-28.06,6.588
910.608,-76.86,-65.148
1152.168,-84.912,-139.568
1140.7,-183.732,-103.7
1100.684,-177.876,-93.208
1046.028,-49.044,-107.116
984.784,-3.416,-184.952
1274.168,49.288,-249.124
1401.78,-65.636,-203.252
1315.404,-224.236,-200.812
1320.772,-239.364,-212.768
1417.884,-86.62,-300.364
1337.12,1.22,-304.512
1126.792,45.628,-286.456
1193.404,47.336,-244.732
1332.484,-61.976,-241.804
1355.908,-174.948,-273.28
1387.384,-268.156,-254.492
1372.5,-245.22,-231.068
1292.224,-170.312,-251.808
1301.496,-104.676,-244.488
1276.852,-127.856,-246.684
1261.48,-155.428,-245.708
1277.096,-188.612,-216.916
1311.5,-215.94,-208.376
1377.868,-212.28,-222.528
1407.636,-188.856,-207.156
1392.508,-176.412,-168.116
1350.052,-190.808,-95.404
1296.616,-233.508,-42.7
1277.584,-236.68,-9.272
1319.308,-226.676,-25.62
1406.904,-205.204,-34.648
1418.128,-227.408,3.904
1318.088,-295.972,52.216
1224.88,-327.936,72.956
1271.728,-332.328,111.02
1270.02,-295.972,106.628
1188.768,-261.568,116.632
1141.432,-238.144,139.812
1075.064,-256.2,184.708
1057.496,-185.684,202.52
1086.288,-110.776,146.888
1107.028,-77.348,90.524
1130.94,23.668,52.216
1063.108,56.364,51.972
1029.68,49.776,102.724
944.768,81.496,192.76
800.564,55.144,208.62
672.952,12.444,206.18
681.736,56.608,110.288
680.272,128.588,36.356
582.428,153.476,16.348
537.776,271.084,-38.308
447.74,392.596,-72.468
505.812,420.412,-92.232
718.092,406.504,14.152
715.652,364.536,50.02
588.528,386.008,-56.12
448.228,427.244,-102.236
318.42,325.252,-22.204
524.356,499.224,-44.896
724.68,549.976,-8.784
622.688,508.496,-22.204
618.54,530.212,-64.172
792.512,532.408,-107.848
890.6,535.824,-119.56
861.564,541.68,-81.496
905.972,574.132,-55.144
978.928,554.124,-26.352
1018.212,541.192,-25.864
1000.644,493.368,-40.016
824.232,381.86,1.708
833.504,362.584,23.18
881.572,387.472,58.804
890.844,305.244,121.024
1003.328,358.924,125.904
887.184,404.064,52.704
752.74,432.124,39.528
732.488,409.92,-3.172
785.924,368.684,42.456
869.128,361.12,61.732
746.396,261.568,84.668
730.292,324.032,24.4
741.76,450.668,-13.908
633.424,416.264,41.48
539.728,270.84,141.276
821.304,376.98,60.512
1068.72,506.544,53.68
1024.8,523.38,76.616
952.332,660.264,71.98
787.632,748.836,39.284
806.176,852.048,24.4
826.672,948.428,157.868
600.24,731.756,161.772
430.416,625.86,-11.224
415.776,870.836,-228.628
448.228,1163.636,-290.116
644.648,1416.908,-297.924
634.888,1559.892,44.164
161.284,1136.308,151.28
77.592,1042.124,28.548
387.228,759.328,-29.524
378.444,800.076,-107.604
456.036,1071.16,-162.26
351.604,1343.708,-193.492
165.92,1416.908,-178.12
149.084,1228.052,-141.52
105.896,867.176,-133.224
150.304,665.876,-96.624
265.96,910.608,-75.152
174.704,1179.74,-83.204
125.904,1224.636,-146.888
179.34,1143.14,-120.292
88.328,1052.86,-83.936
29.768,938.912,-87.108
-107.604,965.264,-128.344
-146.888,967.46,-171.288
-136.64,1006.256,-177.388
-139.08,922.808,-120.292
-67.588,825.452,-66.856
-31.476,1001.864,-112.484
-201.056,1021.14,-138.836
-344.528,1024.068,-263.276
-296.948,968.436,-225.212
-124.928,974.048,-127.612
-45.872,972.828,-60.268
-132.98,890.6,-139.324
-229.848,989.908,-186.172
-221.552,952.332,-192.272
-174.948,951.356,-149.084
-87.84,968.436,-96.868
-53.192,977.464,-74.908
-109.068,998.448,-121.756
-125.904,941.596,-105.652
-91.012,1006.744,-63.44
-37.576,1024.312,-53.436
-57.828,960.628,-47.336
-83.936,936.472,-62.952
-131.272,955.992,-94.916
-97.6,957.456,-52.46
-56.364,982.832,-15.616
-30.256,1040.66,-1.708
-44.652,1051.64,-38.308
-75.152,990.64,-71.492
-71.736,961.116,-43.92
-49.044,956.48,-37.332
-61.244,985.028,-45.628
-58.072,1004.548,-35.38
-47.336,971.364,-30.744
-41.968,945.744,-18.788
-63.928,982.344,-46.848
-59.536,1031.632,-53.924
-38.308,1052.128,-39.772
-51.484,998.692,-53.192
-66.856,1005.28,-45.14
-74.42,991.128,-58.56
-56.608,982.588,-52.46
-59.78,969.656,-49.776
-60.756,973.56,-39.528
-67.588,972.096,-31.476
-77.104,994.788,-40.504
-71.492,1028.948,-48.068
-43.676,1005.28,-46.116
-34.16,969.168,-35.624
-46.848,965.752,-25.132
-82.716,991.128,-42.456
-101.016,1000.4,-70.516
-79.056,994.3,-47.824
-43.432,996.74,-22.448
-62.708,964.776,-26.84
-75.64,969.9,-10.004
-69.784,979.416,-2.44
-70.516,1010.404,-0.244
-69.784,1008.94,-8.784
-89.06,1052.86,17.812
-140.544,1107.76,10.98
-100.772,1060.424,18.3
-89.06,1031.876,111.996
-183.244,984.052,61.244
-182.756,1046.76,59.292
-161.284,1044.32,40.748
-180.316,1126.792,28.304
-166.652,1043.588,8.784
-113.704,1001.864,43.92
-40.26,1003.572,47.824
-107.848,1049.688,-4.392
-140.788,1069.696,-60.512
-123.708,1045.296,-89.06
-61.732,969.9,-61.976
-8.052,916.708,-43.92
-30.988,991.616,-108.824
-80.276,1116.544,-192.272
-74.176,1082.14,-238.876
4.88,994.788,-142.74
113.704,917.44,-54.9
85.644,959.652,-76.128
-23.424,1037.976,-167.628
-74.664,1048.712,-207.4
17.08,979.66,-108.336
73.688,903.532,-54.9
58.56,891.332,-76.372
-23.424,991.86,-120.292
-70.272,1037.732,-139.08
-39.528,1001.62,-117.608
-12.688,952.088,-82.228
-11.468,916.22,-71.492
-55.144,925.248,-75.64
-77.836,901.336,-94.428
-82.228,885.476,-88.816
-54.656,893.284,-66.612
-64.904,865.956,-60.268
-69.54,904.996,-40.26
-69.54,951.356,-45.872
-66.856,967.46,-51.972
-83.448,946.72,-45.14
-95.404,899.872,-30.012
-155.916,853.756,-49.532
-158.844,906.948,-37.332
-122.732,939.156,-24.888
-112.24,969.9,-10.98
-106.14,993.812,-11.712
-115.412,1034.072,-17.08
-119.56,1026.264,-40.992
-116.144,1004.06,-34.892
-106.872,983.564,-25.376
-121.024,970.144,-28.304
-143.716,1007.476,-37.576
-134.932,1031.876,-36.356
-100.528,1023.092,-41.48
-105.164,974.536,-22.204
-111.02,983.564,-15.128
-137.372,1030.412,-28.06
-124.684,1048.468,-44.408
-99.308,991.86,-32.208
-74.176,948.428,0.244
-66.856,951.6,9.516
-111.02,992.104,-26.352
-106.14,993.568,-34.648
-88.328,987.712,-20.496
-79.056,984.052,0.732
-84.424,979.66,-3.416
-82.228,970.388,-13.42
-92.232,961.848,-22.204
-91.744,961.116,-9.272
-87.352,942.084,-13.42
-82.716,951.6,0.732
-66.124,987.468,2.44
-72.224,979.904,-3.904
-104.432,982.588,-26.84
-109.068,976.0,-20.252
-92.964,991.128,-23.912
-92.232,986.248,-30.256
-85.4,996.252,-22.204
-81.496,1006.012,-22.936
-77.348,1000.888,-9.516
-79.3,1012.844,-15.128
-95.648,991.616,-20.252
-95.892,972.096,-20.008
-94.428,971.364,-7.808
-73.444,986.736,-3.172
-79.788,982.344,-14.396
-100.04,985.76,-16.348
-87.352,1006.012,-12.444
-73.444,1041.392,-8.052
-62.708,1109.712,-5.856
-26.596,1170.224,-9.516
62.22,1120.448,32.208
146.888,1124.352,16.348
258.884,1192.916,42.456
307.196,1214.388,-7.076
353.556,1220.976,-44.164
406.26,1238.788,-31.232
412.116,1178.764,-61.244
397.476,1071.648,26.84
379.664,859.368,155.428
491.172,704.428,241.316
478.484,571.936,267.18
721.508,630.74,277.184
843.264,698.084,139.324
937.692,708.088,54.9
1009.428,654.896,5.612
930.372,586.82,-52.948
649.772,470.432,-14.152
765.672,414.068,15.86
896.944,409.432,128.344
834.48,322.08,159.82
727.364,334.28,124.684
657.092,296.948,132.98
750.544,300.608,102.724
843.264,362.096,74.42
752.496,290.116,91.012
689.544,258.396,96.38
707.112,223.016,94.916
728.584,221.308,83.692
764.696,193.004,103.212
770.552,199.104,96.868
721.264,211.304,56.12
690.52,210.328,48.556
682.224,189.344,81.74
676.612,159.332,102.968
791.78,140.788,80.032
762.256,92.72,52.216
711.748,65.636,31.964
665.144,41.968,51.728
750.056,59.292,97.844
868.396,6.1,35.38
884.988,-41.968,-47.092
834.236,-119.072,-103.7
831.064,-51.484,-80.764
975.268,36.844,-91.012
1062.376,45.14,-41.968
1006.012,5.612,-126.148
933.3,-89.548,-221.064
1053.592,-210.572,-232.044
1082.14,-243.512,-223.016
1023.58,-218.38,-312.32
1079.7,-153.232,-379.176
1237.324,-102.48,-338.428
1198.04,-115.9,-248.88
1168.76,-133.712,-248.636
1212.436,-104.188,-281.088
1219.268,-65.392,-343.552
1148.752,-51.728,-296.704
1234.152,13.176,-256.932
1325.164,78.812,-317.2
1369.572,81.984,-325.008
1424.472,34.648,-284.016
1420.324,-19.764,-241.804
1419.836,-26.352,-209.84
1447.896,-28.792,-198.372
1474.004,-68.076,-197.396
1480.592,-125.172,-165.432
1416.42,-194.224,-120.536
1390.8,-212.768,-89.06
1417.396,-212.768,-45.384
1380.308,-220.088,-13.42
1371.036,-237.656,-46.604
1267.58,-264.984,-70.028
1260.016,-241.56,-75.152
1295.396,-231.8,-34.16
1332.24,-222.772,0.488
1331.508,-222.284,-5.856
1207.556,-248.392,-35.624
1136.552,-227.408,-32.94
1230.004,-167.384,-17.812
1227.808,-138.592,6.344
1126.548,-149.572,7.808
1091.168,-140.544,-11.224
1087.752,-121.756,-48.556
1157.048,-94.672,-51.728
1160.22,-78.812,-87.84
1089.948,-48.312,-100.284
946.964,-41.968,-64.172
861.808,15.86,-58.072
815.448,3.904,-2.684
967.216,60.024,-30.744
1024.8,94.916,-67.344
843.752,55.876,-0.244
738.588,60.512,29.036
748.348,139.812,-29.036
742.004,178.608,-19.276
708.088,206.424,-9.76
586.332,205.448,-29.28
485.804,208.62,-48.312
466.04,219.844,-49.044
608.048,288.408,-103.7
720.776,333.304,-119.804
672.464,326.472,-83.448
568.276,310.124,-45.14
524.356,328.424,-39.284
605.364,352.58,-58.316
695.156,372.588,-79.056
703.208,385.032,-83.936
814.472,420.412,-131.028
920.856,450.912,-173.728
898.164,427.488,-144.692
880.596,410.164,-103.212
846.436,393.572,-60.512
869.128,425.048,-50.752
832.528,353.556,-10.248
849.608,230.824,-32.696
893.284,198.616,-73.688
964.532,468.48,-115.168
865.224,520.452,-118.096
767.38,559.736,-8.784
796.416,715.652,10.98
685.884,802.028,58.072
579.012,595.848,41.236
528.504,448.96,-13.42
571.692,569.252,-13.664
637.572,706.38,-42.456
579.988,911.584,-34.892
507.764,974.78,43.432
492.148,985.272,98.576
505.812,1121.18,-76.128
437.736,1240.496,-147.864
392.352,1234.396,-91.744
256.932,1216.828,-102.968
148.352,1197.552,-71.248
193.248,1053.836,35.38
379.664,902.8,27.572
390.156,1029.436,-45.14
224.968,1123.62,-106.628
29.036,1147.776,-156.404
-42.456,1231.956,-211.548
41.48,1132.648,-162.26
197.64,1075.308,-41.724
283.04,1031.632,30.988
308.66,1006.012,70.272
205.936,1101.904,2.684
136.64,1104.832,-33.916
178.608,1035.78,-52.46
265.96,1016.016,-34.404
306.952,961.116,40.992
280.6,905.484,53.68
220.82,912.804,12.444
131.028,1010.16,-38.796
106.384,1128.5,-39.772
191.052,1118.252,-19.276
286.456,1053.836,-11.956
261.08,1051.884,2.684
179.34,1010.16,-15.616
138.836,1002.352,-5.612
121.268,982.1,-44.164
148.352,898.896,-38.552
186.416,852.536,-1.464
210.328,820.572,1.22
229.116,961.116,-1.952
220.088,1094.828,0.976
239.852,1111.908,-12.2
267.912,1053.104,-32.452
256.932,1006.988,-55.388
210.572,971.12,-58.316
185.684,959.164,-63.44
129.076,961.848,-57.828
120.048,933.544,-58.56
172.752,1003.328,-46.36
243.268,973.072,-47.824
255.224,947.452,-30.012
224.236,932.568,-31.964
210.328,961.604,-17.324
149.572,1015.04,-57.34
161.528,972.096,-71.004
189.344,942.328,-42.944
209.596,945.5,-30.012
194.956,946.72,-31.476
169.824,1015.04,-61.976
202.764,1020.164,-83.692
230.336,1025.532,-85.156
196.176,1020.408,-111.752
182.756,1001.62,-95.404
174.46,1012.112,-97.356
187.148,960.872,-111.264
192.272,925.004,-83.204
186.416,906.948,-48.312
158.844,906.46,-61.732
146.644,912.316,-64.904
146.888,959.164,-58.56
153.476,1006.256,-75.152
174.46,1006.012,-44.896
151.28,996.496,-49.288
127.856,957.7,-45.872
128.344,955.992,-35.624
126.88,954.772,-35.38
130.784,971.852,-17.08
152.5,981.124,3.66
147.864,981.368,1.22
159.82,975.268,0.488
133.224,1035.78,-15.616
166.408,1020.652,-18.056
201.788,999.668,-13.176
203.984,1000.156,-20.008
199.104,962.824,-8.052
198.86,969.168,-10.736
223.26,947.696,-17.812
207.644,949.892,-15.128
193.492,963.312,-13.42
195.2,991.128,-28.06
184.464,1041.148,-25.376
176.412,1026.996,-39.772
173.24,1004.06,-24.4
178.12,966.972,-5.124
183.488,966.728,17.324
178.12,971.608,29.28
169.092,1000.4,3.66
143.716,1002.596,-36.6
127.612,993.08,-41.236
144.936,979.66,-32.94
179.34,967.704,-15.372
203.74,952.576,-8.54
202.52,970.388,-15.616
189.832,1018.7,-22.448
200.324,1013.088,-17.568
218.136,1004.792,-6.832
197.884,979.416,-8.052
165.188,958.432,-18.056
136.884,970.144,5.124
135.42,999.18,-1.952
133.224,1005.768,5.124
108.092,1029.68,26.84
104.676,1064.816,19.032
131.516,1057.008,15.86
140.544,1057.008,27.816
122.0,1058.472,33.916
106.384,1047.492,2.684
83.936,1061.888,-28.792
100.528,1093.364,-46.848
139.568,1103.612,-47.092
176.9,1094.34,-40.992
208.132,1067.012,-32.208
205.448,1036.512,-45.384
160.064,979.416,-62.464
152.5,941.352,-60.512
158.844,960.628,-55.388
158.6,960.14,-45.14
201.788,912.316,-41.48
215.452,955.26,-30.988
207.888,1009.184,-11.712
191.54,982.832,2.684
157.136,971.852,6.344
154.452,950.136,-12.2
189.588,949.648,3.66
234.972,941.84,39.772
259.616,931.348,62.708
257.176,914.756,46.36
216.916,890.356,25.132
163.48,870.348,10.004
156.404,896.456,9.76
161.528,905.484,11.468
190.808,922.808,26.596
204.716,943.304,36.844
179.096,964.532,27.572
141.764,943.304,0.244
108.58,906.704,-19.032
105.164,931.104,-6.344
115.9,968.436,11.956
140.3,962.092,29.524
156.404,964.044,29.524
115.656,959.896,24.156
89.06,960.14,32.696
85.888,998.448,47.336
113.704,987.468,40.992
127.368,971.852,36.6
129.32,955.992,45.628
112.484,948.184,23.912
93.452,984.54,18.3
84.424,1021.384,15.616
100.772,1009.184,4.88
100.04,990.884,23.912
100.772,990.64,20.008
110.288,992.592,25.132
119.56,977.952,33.672
108.824,977.464,44.408
102.48,994.056,35.624
86.62,1023.824,18.3
78.812,1052.372,10.736
95.404,1081.408,29.036
131.272,1140.7,31.72
166.164,1168.272,45.628
249.368,1111.664,-9.516
220.088,1161.684,4.148
208.132,1256.6,-100.528
538.508,1403.732,168.604
668.072,1234.152,223.26
663.68,1150.46,91.012
418.46,944.036,-9.272
70.028,690.032,70.76
530.7,673.684,216.916
782.508,626.348,345.26
813.008,572.424,373.32
775.432,586.088,208.864
806.908,688.08,50.264
779.824,621.224,111.996
863.028,587.308,92.232
801.54,587.552,64.904
793.244,610.976,-140.3
651.236,383.568,34.892
585.6,103.456,125.172
709.552,76.616,87.84
839.36,124.196,23.424
828.38,158.112,-13.664
903.776,168.604,-12.2
905.972,154.452,62.22
902.556,49.288,71.492
865.712,30.012,77.348
891.332,40.748,37.576
904.02,50.508,31.232
906.216,21.96,52.46
824.476,-44.408,117.608
694.912,-20.252,105.896
741.76,60.756,36.356
787.388,73.932,26.108
724.192,65.636,41.968
772.748,36.844,-17.08
787.876,24.888,8.54
805.2,40.016,9.028
880.84,55.632,-59.048
865.468,6.1,-109.312
857.66,-76.86,-136.152
828.624,-121.756,-80.276
790.316,-24.888,-74.664
843.996,55.632,-124.684
827.16,-3.904,-82.96
932.568,-147.132,-105.652
1019.676,-244.976,-131.76
930.86,-211.792,-50.02
937.936,-88.084,-107.116
863.028,-103.944,-176.412
1026.508,-148.596,-185.196
1085.312,-246.684,-119.804
1068.476,-305.0,-127.124
1018.212,-305.976,-275.964
1144.604,-204.228,-244.976
1149.728,-254.736,-203.008
1107.272,-332.084,-110.044
1207.8,-363.804,-136.884
1191.696,-309.392,-196.176
1176.08,-264.252,-266.936
1289.296,-211.06,-246.44
1376.892,-187.88,-209.596
1376.648,-186.172,-249.612
1396.412,-239.12,-190.32
1479.372,-353.312,-120.048
1525.732,-351.116,-183.732
1486.692,-278.16,-185.928
1458.144,-294.02,-138.592
1383.48,-260.592,-109.556
1439.844,-210.572,-101.016
1444.48,-228.384,-38.308
1400.56,-233.996,-69.296
1373.964,-209.352,-117.12
1282.464,-181.048,-61.976
1267.824,-145.424,-69.54
1254.16,-135.664,-84.912
1238.056,-101.504,-98.332
1216.34,-111.996,-61.976
1234.64,-127.856,-22.204
1225.856,-99.308,-48.312
1204.14,-35.38,-73.932
1159.0,7.076,-42.456
1231.468,49.532,-44.652
1255.136,86.864,-62.22
1190.232,123.464,-22.936
1015.528,120.292,-37.576
943.304,158.356,3.172
882.548,152.5,0.0
901.092,139.08,-1.464
940.132,165.676,-47.092
935.252,221.796,-96.868
871.568,288.164,-118.096
772.26,263.52,-43.676
801.296,222.04,2.928
878.4,281.82,-49.288
782.02,318.176,-98.576
671.488,327.204,-107.36
613.66,338.916,-78.08
587.796,313.296,-65.88
505.324,249.856,-15.616
533.384,280.844,-33.428
578.524,335.256,-54.168
718.336,456.28,-105.652
734.684,435.784,-78.324
655.628,339.404,-1.464
655.14,304.512,2.196
748.592,320.86,-33.428
827.648,417.972,-54.656
840.58,465.552,-28.548
877.18,480.924,18.788
973.072,525.82,26.84
953.796,515.816,52.948
739.32,476.044,163.236
687.836,447.984,171.776
866.688,535.58,81.008
830.088,592.432,103.212
655.384,637.572,112.484
551.684,751.52,115.168
606.096,880.596,86.132
628.056,1007.72,98.088
521.184,864.248,107.848
483.608,816.424,108.58
389.424,737.612,91.256
318.42,803.248,-4.636
265.716,894.504,41.968
265.472,1036.024,114.436
262.3,1130.94,95.16
107.604,1127.28,-15.128
-65.88,1024.556,9.028
-21.228,954.04,27.084
53.924,966.972,-14.884
83.448,1021.628,-25.864
-50.996,983.564,-8.54
-104.188,947.696,14.152
-55.876,903.532,34.648
-18.3,889.624,34.404
19.764,960.628,43.432
21.96,1043.588,54.656
-40.26,1055.3,-7.32
-135.176,1052.86,-61.488
-160.796,993.324,-84.912
-51.728,943.304,-31.232
32.696,964.288,22.936
24.4,1083.604,-3.66
-30.5,1095.316,-25.62
-68.32,1075.308,-26.108
-77.348,1074.088,-55.876
-41.968,1023.824,-45.384
-9.028,1030.168,-34.404
42.944,1046.028,-40.748
28.304,1079.456,-17.324
-34.892,1122.644,-68.32
-58.316,1094.828,-88.572
-32.94,1075.308,-99.064
14.152,1023.824,-61.488
26.84,1003.816,-59.536
16.348,1008.696,-40.992
19.276,1041.88,-34.648
22.692,1074.088,-36.112
50.264,1009.672,1.708
54.412,960.384,40.016
44.652,942.084,55.388
12.444,943.548,59.292
10.248,939.644,69.54
-11.712,978.684,104.432
18.056,997.228,107.848
87.352,1027.484,133.712
109.8,1040.904,137.372
58.804,1054.812,102.724
-36.6,993.812,60.024
-100.284,939.644,16.592
-98.332,934.52,-13.908
-35.868,945.744,-22.448
43.432,1002.352,-39.528
50.508,1035.78,-71.98
21.228,1018.7,-104.188
-15.372,982.588,-149.572
27.328,955.992,-175.436
90.28,960.628,-128.344
99.064,1023.336,-112.728
47.336,1035.78,-141.032
-4.88,997.472,-167.14
-2.196,941.84,-166.408
49.044,907.436,-123.708
88.816,924.272,-79.3
59.536,989.664,-67.1
26.596,1028.948,-110.776
7.076,1038.22,-128.832
-1.22,1013.332,-112.972
34.892,980.392,-86.62
90.524,991.86,-67.344
102.236,1055.544,-6.1
18.544,979.416,-54.9
-29.768,1016.26,-74.664
13.908,1028.46,-36.356
56.364,1016.504,-7.564
88.572,980.392,4.392
87.84,974.78,6.1
74.42,988.2,-4.148
50.752,1001.132,-34.892
54.9,994.788,-31.476
91.256,997.96,-21.228
109.556,988.444,3.66
113.704,998.936,-8.784
91.256,971.852,0.976
33.428,963.068,-25.376
53.436,982.1,-39.772
119.072,960.628,19.52
148.108,947.452,58.804
137.128,944.28,47.58
79.3,980.88,17.08
42.212,992.348,-3.172
39.04,982.588,-8.54
86.132,969.9,16.592
115.412,961.116,18.3
118.584,990.884,17.568
85.888,1044.32,-10.736
46.116,1031.876,-44.408
51.972,995.764,-45.872
48.556,1017.48,-29.768
45.872,1037.0,-68.076
61.976,1028.704,-59.78
74.176,1013.088,-35.136
87.352,997.716,-32.452
85.156,1002.84,-30.988
66.612,1009.916,-40.016
42.944,1017.968,-58.316
32.452,1014.796,-62.464
66.612,1017.724,-39.528
108.336,1023.824,-32.696
103.7,1033.584,-45.384
35.624,1046.028,-41.968
31.232,1009.672,-55.388
109.312,951.844,-36.6
211.792,931.104,1.952
285.968,1003.816,44.652
282.796,1063.596,41.724
193.248,1091.9,45.628
144.204,1014.308,19.764
127.124,906.216,7.076
156.404,847.656,28.792
194.712,856.928,63.928
246.196,885.72,55.632
238.144,930.86,54.168
190.808,964.288,66.856
202.032,994.788,63.928
259.372,1016.016,58.316
270.108,1017.968,90.768
250.832,1041.148,100.772
242.292,1129.72,68.808
268.4,1198.772,23.424
338.672,1171.2,26.352
405.528,1188.036,76.616
488.976,1182.912,65.88
476.044,1082.628,37.332
531.676,1068.476,49.044
618.052,1055.056,65.148
579.988,953.552,41.236
545.096,917.928,-22.936
642.696,889.624,9.516
807.64,824.964,78.08
796.66,667.096,189.344
791.292,560.956,192.028
768.6,548.512,93.94
708.82,442.128,93.452
737.368,371.612,82.96
1011.624,420.9,19.032
994.544,400.404,8.296
777.628,342.576,52.948
677.1,268.644,124.928
697.352,236.68,125.66
812.764,209.352,149.572
892.796,209.84,137.372
857.904,243.756,93.452
775.676,259.128,89.304
823.744,225.456,117.852
868.64,176.656,145.18
898.896,131.516,139.08
828.38,97.356,138.592
785.192,140.544,143.716
770.796,210.816,111.752
757.132,205.936,150.304
759.084,185.196,178.608
789.34,220.088,143.716
731.512,214.476,120.048
683.688,202.764,96.624
598.044,152.012,115.9
515.084,129.564,110.776
532.652,204.716,91.988
631.228,210.328,89.548
677.832,56.364,138.592
639.28,-76.128,107.116
646.356,-96.624,30.012
669.292,-46.604,1.708
800.076,90.768,14.64
917.928,147.376,52.46
915.976,125.416,49.288
929.884,74.176,-66.856
1031.388,-39.04,-128.1
1096.536,-67.832,-87.596
1122.156,-85.888,-70.272
1118.496,-79.544,-78.324
1118.74,-65.148,-153.476
1182.18,-119.316,-195.688
1427.888,-147.376,-197.64
1502.308,-152.256,-140.056
1434.476,-57.096,-174.46
1324.188,-54.656,-184.952
1272.216,-61.0,-158.6
1285.392,-61.488,-208.132
1335.9,-63.928,-264.496
1364.936,-130.784,-263.764
1356.884,-129.808,-261.324
1289.54,-113.948,-245.464
1224.636,-77.592,-208.132
1220.244,-23.668,-168.604
1223.904,-33.916,-188.368
1255.624,-10.98,-199.348
1262.212,-61.976,-160.308
1272.216,-101.016,-142.496
1295.64,-98.088,-119.072
1308.084,-75.152,-99.796
1272.704,-72.468,-64.904
1253.672,-103.7,-47.824
1298.568,-128.1,-12.2
1361.032,-95.404,-39.528
1325.896,-108.824,-63.44
1237.08,-187.148,-42.944
1209.02,-222.284,-33.428
1209.996,-245.22,-37.576
1197.796,-284.016,7.32
1230.004,-265.96,1.952
1248.792,-271.084,2.684
1169.98,-287.92,17.08
1185.352,-257.908,22.692
1277.34,-215.696,20.984
1313.94,-256.444,41.968
1301.496,-279.38,50.752
1212.192,-267.912,31.232
1175.104,-251.564,63.928
1186.084,-180.316,69.784
1185.352,-123.464,84.18
1193.404,-103.456,77.592
1179.008,-74.176,47.58
1085.8,-80.764,49.532
1025.288,-82.228,75.152
1065.06,-14.152,72.224
1069.94,58.316,41.724
978.684,74.176,55.144
871.812,75.884,66.612
861.808,109.068,52.948
885.72,125.172,68.32
853.756,147.376,56.12
710.284,150.304,48.312
597.8,193.004,64.416
612.928,264.496,18.056
639.524,310.124,-49.532
608.048,335.988,-48.556
539.728,355.752,-23.912
462.136,387.228,-29.036
425.048,400.16,8.296
481.168,428.708,7.076
517.524,451.888,2.928
551.684,451.644,-23.912
535.58,427.0,-21.96
576.084,445.056,-6.1
658.068,488.488,-34.892
723.704,472.384,21.228
782.264,430.66,28.304
803.004,415.288,-1.952
822.036,431.148,-3.172
844.972,465.552,12.444
822.28,445.056,71.004
830.088,360.388,122.732
898.652,355.996,165.432
899.628,333.792,216.428
913.78,317.688,195.932
1006.012,526.308,97.356
857.172,599.508,175.924
696.62,575.84,160.064
559.004,512.4,224.236
503.86,460.184,169.092
505.08,695.4,58.804
430.66,929.152,34.648
390.888,904.996,69.784
415.288,863.272,42.944
454.816,862.54,104.432
550.952,1085.312,42.456
477.996,1154.852,142.74
396.744,1117.276,132.004
255.712,1058.716,110.288
157.38,1035.048,66.612
144.204,895.236,7.32
183.0,907.68,-29.036
202.52,1030.168,-48.556
193.248,1146.556,-70.272
176.412,1179.496,-100.284
160.064,1146.068,-104.92
178.608,1121.912,-83.692
206.668,1135.82,-36.356
244.244,1110.688,-23.18
202.764,1116.544,-70.272
163.48,1154.364,-109.068
96.38,1133.624,-144.204
41.48,1082.14,-150.792
-6.588,1034.56,-130.052
46.604,979.172,-121.268
157.868,986.004,-91.744
218.38,1004.06,-20.984
194.224,1082.14,-29.036
183.976,1092.632,-4.636
226.432,1067.988,-16.836
195.444,1032.12,-21.716
152.5,992.836,-21.228
148.352,979.66,-28.06
97.112,1021.872,-34.16
60.512,1023.58,-28.548
42.7,1002.108,-24.156
57.828,937.692,-23.18
129.564,927.932,16.348
177.876,948.184,32.452
133.468,974.536,27.572
25.376,1065.548,-19.764
-50.264,1113.128,-81.008
-17.568,1130.208,-100.04
91.5,1126.548,-89.792
217.892,1103.856,-61.244
243.024,1091.168,-25.62
189.1,1030.168,-55.876
35.624,981.124,-129.076
-73.2,970.632,-199.836
-73.932,943.548,-211.548
22.448,885.476,-189.344
108.092,858.636,-169.092
128.588,861.076,-163.48
126.636,924.76,-183.976
87.84,945.012,-189.344
48.556,951.112,-193.004
50.264,932.812,-169.824
76.372,923.54,-149.572
111.996,935.252,-123.708
122.488,955.504,-110.532
105.164,976.0,-84.668
96.136,951.844,-64.172
79.544,929.884,-63.44
86.376,932.568,-68.808
70.272,1028.46,-74.42
73.2,1037.0,-63.928
89.304,1014.552,-51.24
93.452,982.832,-50.02
86.864,977.22,-56.12
90.036,1008.208,-62.708
95.648,1000.4,-49.776
78.08,1002.352,-60.268
81.984,1001.864,-52.948
101.748,990.64,-54.656
98.088,992.836,-55.632
95.892,971.364,-59.78
91.744,959.408,-60.024
82.96,967.704,-54.656
102.48,973.316,-56.608
90.524,996.008,-53.192
96.136,1003.572,-66.124
102.968,998.936,-52.216
77.104,1036.756,-62.708
84.424,1042.612,-68.808
106.384,998.692,-52.46
109.312,975.268,-54.656
108.824,984.052,-46.604
100.772,985.516,-44.408
83.692,979.904,-49.044
73.2,983.564,-53.192
82.228,986.736,-53.68
99.064,989.42,-46.36
97.844,1008.696,-55.144
98.82,1024.068,-52.948
114.68,1018.212,-47.824
105.896,1001.62,-47.58
113.704,996.496,-50.02
126.392,989.664,-44.652
115.9,982.1,-48.312
101.992,972.096,-45.14
120.292,949.16,-41.236
124.196,960.14,-33.672
117.852,975.512,-44.896
97.356,999.912,-43.92
109.068,1000.888,-52.948
110.288,989.176,-43.188
101.748,993.08,-48.312
110.288,991.616,-52.46
94.672,1002.108,-51.972
98.332,990.64,-52.46
99.796,965.264,-47.092
88.328,966.484,-55.632
99.064,969.656,-62.708
97.844,986.736,-55.632
89.792,980.392,-54.168
95.648,976.0,-63.196
99.552,990.884,-59.536
102.968,997.716,-65.88
101.504,1011.136,-65.148
91.012,1012.356,-55.144
94.428,1017.48,-55.632
113.948,1005.28,-51.24
127.368,1020.408,-43.432
132.004,1067.744,-56.608
147.62,1097.268,-43.676
223.26,1108.248,-51.484
189.588,1087.264,20.496
287.676,1085.068,2.196
358.924,1156.316,-10.248
410.164,1235.372,-26.596
471.896,1237.568,-51.24
533.384,1147.288,-88.572
585.356,1081.408,-88.328
724.68,1026.02,-74.664
629.276,978.44,-68.076
593.652,840.336,-60.756
701.744,733.708,4.88
769.088,603.9,113.216
740.54,549.488,130.052
714.92,517.768,110.532
730.048,495.808,47.58
885.72,499.712,-12.688
862.296,470.676,0.732
885.964,417.24,24.156
883.524,372.588,63.196
836.92,305.976,72.956
804.468,292.8,77.592
745.42,340.868,94.916
787.144,327.692,107.604
780.556,232.532,164.456
802.028,133.712,215.94
918.66,119.072,197.884
956.968,120.292,133.956
948.184,155.916,84.424
947.452,166.652,84.912
880.596,131.272,124.196
823.988,108.336,161.04
819.108,164.212,150.304
817.156,200.812,105.164
767.136,193.736,103.7
719.556,144.692,146.644
672.952,108.092,152.5
637.084,113.704,128.344
612.928,150.06,114.436
598.532,197.396,100.772
658.312,257.664,65.88
642.208,196.664,20.984
530.212,41.724,70.516
516.792,-78.568,108.58
573.4,-83.204,108.824
605.12,-17.812,33.184
641.476,16.104,-6.588
794.708,-13.908,-94.428
799.344,-155.672,-84.18
893.04,-277.428,82.228
931.592,-215.94,-4.88
971.364,16.836,-185.44
1018.212,70.76,-234.972
1127.036,-9.76,-213.256
1220.976,-241.56,41.236
1182.912,-337.452,51.972
1227.808,-229.848,-147.376
1310.524,-94.184,-258.884
1472.296,10.248,-243.268
1570.14,-2.684,-227.652
1596.004,-87.108,-237.412
1544.52,-211.304,-246.684
1404.22,-287.676,-198.86
1419.104,-235.704,-130.296
1585.268,-120.048,-172.508
1664.324,-88.816,-228.14
1594.54,-140.788,-257.908
1466.684,-237.168,-229.116
1346.636,-229.604,-215.208
1335.412,-155.184,-213.5
1403.488,-86.864,-192.516
1422.032,-63.44,-162.26
1384.456,-116.388,-133.224
1356.152,-173.972,-145.912
1336.632,-137.86,-166.652
1231.224,-108.336,-133.712
1208.044,-30.5,-73.2
1308.084,18.3,-74.664
1256.844,-62.464,-58.316
1206.336,-131.76,-36.356
1210.24,-168.116,-55.388
1217.56,-138.836,-20.496
1233.176,-44.408,12.688
1167.052,-16.836,45.14
1040.904,-39.284,73.2
1010.16,-23.18,59.048
1059.448,-6.1,27.328
1054.324,-20.008,54.412
1068.964,-14.152,69.052
1054.568,17.324,23.18
994.544,24.888,29.524
947.696,5.368,67.832
974.048,-13.664,101.504
1008.452,17.812,46.848
970.876,33.428,18.3
856.196,32.696,57.828
849.608,103.212,44.164
903.044,189.588,3.416
895.724,191.54,21.716
878.644,208.864,-4.636
796.416,217.648,-29.524
702.72,193.98,-11.224
658.8,222.528,-54.412
723.948,297.68,-110.776
785.192,330.864,-129.32
744.2,335.744,-143.716
658.312,325.008,-135.664
541.192,269.62,-73.444
499.956,267.424,-53.192
599.264,331.84,-94.184
653.188,389.912,-112.24
657.336,375.272,-106.14
677.344,375.516,-59.536
690.276,394.548,-48.8
667.828,408.944,-51.24
658.068,412.848,-27.328
726.632,508.496,-69.54
731.756,558.028,-42.944
620.004,530.456,20.74
619.76,589.992,-14.884
668.072,779.092,4.88
638.792,896.456,26.84
490.196,896.456,41.236
402.112,789.828,57.096
453.108,811.788,14.152
515.084,941.84,-6.588
495.32,1110.688,7.808
387.716,1178.764,95.892
300.364,1061.4,100.04
219.844,1063.596,114.192
173.24,1127.036,42.456
196.908,1154.12,60.756
140.056,1167.54,67.588
103.7,1127.28,106.14
132.248,1044.32,98.576
196.42,914.024,87.108
230.58,836.92,75.64
199.104,861.808,45.872
124.196,928.664,27.572
27.572,1030.9,12.2
-15.86,1084.336,23.912
29.524,1086.532,46.604
154.94,1074.332,43.676
228.628,1091.656,41.724
203.252,1096.78,19.276
96.136,1124.596,-1.464
8.54,1157.292,-20.984
34.404,1124.108,8.54
138.836,1041.88,50.996
236.68,984.296,104.92
287.188,943.548,138.348
286.7,935.008,144.204
275.232,946.964,126.148
223.26,942.328,95.404
161.04,953.552,81.74
133.224,989.42,59.78
116.876,1007.232,37.82
126.392,1024.068,31.232
142.252,1057.252,41.968
157.624,1076.772,35.136
156.404,1089.948,11.956
100.528,1090.924,4.636
91.012,1058.96,8.296
129.564,1029.436,14.152
160.064,1026.752,5.612
185.44,1005.28,-11.224
220.576,979.904,-15.86
224.236,947.452,-28.06
224.724,940.376,-54.656
196.42,966.24,-96.624
153.232,965.264,-127.368
140.3,955.748,-142.984
129.076,935.008,-156.404
133.468,933.056,-169.824
148.84,926.712,-161.772
166.164,943.304,-170.068
137.616,967.704,-167.872
65.636,1016.26,-185.44
38.308,986.736,-184.952
73.2,948.916,-179.828
101.504,918.66,-155.916
133.956,902.312,-132.98
132.248,915.0,-119.316
80.276,963.8,-122.976
69.052,976.0,-122.976
85.888,970.388,-98.82
105.164,978.684,-94.916
116.144,975.268,-73.688
120.536,996.008,-68.564
118.34,1011.38,-71.004
96.624,1030.656,-68.808
102.968,1032.364,-71.492
137.128,1041.392,-66.368
165.432,1041.148,-60.268
167.384,1028.216,-47.58
144.936,993.08,-44.408
113.46,962.336,-45.14
93.452,955.748,-52.216
113.216,960.384,-50.508
133.468,966.728,-43.432
150.06,963.556,-51.24
153.476,968.924,-51.484
149.084,989.908,-53.436
146.4,998.204,-48.312
143.96,1005.524,-52.948
155.672,1007.72,-40.504
163.968,1020.408,-38.308
146.4,1017.724,-34.404
113.948,1008.696,-31.964
101.26,998.692,-22.692
105.164,1025.532,-24.644
119.072,1033.584,-17.812
140.056,1022.36,-10.736
154.208,1010.648,-15.372
144.448,999.912,-11.956
123.22,989.908,-30.256
105.652,982.344,-37.82
103.212,980.148,-47.092
124.196,978.928,-46.36
160.064,986.736,-39.772
179.828,991.128,-45.872
177.144,993.08,-40.26
164.7,991.372,-37.088
151.036,990.884,-40.26
148.596,966.728,-41.48
152.988,939.644,-34.892
152.988,943.548,-30.5
125.66,961.116,-31.964
119.56,968.192,-44.164
128.344,982.832,-42.456
146.156,975.024,-33.672
160.064,962.58,-20.496
155.672,973.804,-25.376
165.92,985.76,-37.332
185.684,1022.116,-37.332
193.736,1038.22,-34.892
211.792,1035.78,-22.204
225.7,1059.936,-19.276
219.844,1074.82,-25.864
241.072,1037.0,-9.272
295.484,1019.432,-22.448
338.184,1011.868,-12.444
387.716,980.88,-11.224
429.928,1052.86,-45.14
486.78,1156.316,-67.344
538.752,1123.62,-120.292
582.184,1073.112,-90.768
609.512,984.784,-40.748
696.376,874.252,-2.196
806.176,803.98,70.028
852.292,668.072,141.032
689.544,521.428,116.388
689.544,504.348,103.456
871.324,530.944,89.06
1025.044,533.14,73.2
1071.892,530.456,-13.176
949.648,529.724,-43.676
911.828,509.716,-13.42
865.224,418.948,49.776
791.048,295.728,154.94
838.872,238.388,188.612
846.436,249.124,167.872
881.328,320.372,107.116
800.32,331.84,98.332
790.56,285.48,146.888
842.776,211.548,188.612
865.468,146.644,209.352
870.592,124.44,214.72
883.036,153.72,171.044
911.828,216.672,147.864
877.18,186.172,138.592
786.168,119.56,183.732
745.176,67.344,222.528
794.708,64.904,227.164
803.004,90.28,176.656
771.772,104.92,186.416
739.564,89.548,144.204
682.956,77.104,147.376
656.848,91.256,173.24
662.46,101.748,191.54
641.476,111.264,175.68
656.36,108.336,126.148
646.356,65.392,130.784
681.736,2.44,101.016
675.392,-138.348,110.044
642.94,-250.344,101.992
652.7,-118.584,105.408
717.604,210.572,-136.396
680.76,343.064,-156.892
725.168,211.792,-107.848
885.476,-6.344,-137.616
1019.676,-179.096,-13.908
994.788,-242.536,-30.744
938.668,-146.888,-96.624
945.5,4.148,-185.44
1037.244,43.432,-216.672
1069.94,-153.476,-135.176
1072.868,-221.308,-92.476
1092.388,-203.252,-232.532
1121.18,-193.736,-296.704
1360.544,-162.26,-303.292
1572.092,-128.344,-317.688
1596.004,-155.672,-350.628
1487.424,-196.42,-314.516
1403.0,-223.504,-264.984
1501.332,-195.2,-254.248
1615.036,-134.688,-234.24
1621.38,-195.688,-225.7
1551.108,-292.068,-194.224
1525.0,-294.264,-216.184
1519.388,-247.904,-203.496
1512.8,-223.26,-186.172
1471.808,-224.236,-185.196
1438.38,-265.472,-157.38
1423.984,-321.836,-130.052
1414.712,-336.232,-141.032
1402.512,-368.928,-125.416
1358.104,-376.492,-111.264
1286.368,-306.952,-97.6
1257.088,-231.312,-55.632
1214.632,-198.86,-32.208
1156.316,-156.16,-29.768
1108.736,-123.22,-7.564
1095.316,-144.936,46.36
1099.952,-178.12,84.424
1113.616,-165.92,41.968
1067.012,-107.116,-30.256
965.996,-73.2,-75.396
975.268,7.32,-63.196
1108.248,53.924,-58.56
1161.684,11.956,-59.048
1116.3,-10.492,-97.356
992.836,-63.684,-91.012
902.556,-93.452,-58.804
1003.572,28.548,-107.116
1145.336,170.8,-196.176
1121.668,181.78,-213.988
935.496,119.072,-138.592
780.068,68.808,-58.316
716.628,38.064,-36.112
716.872,113.216,-68.32
695.4,188.612,-98.332
652.7,271.572,-98.82
575.352,269.376,-50.02
513.376,220.576,-5.856
469.7,210.572,-24.156
476.776,304.268,-60.512
574.132,380.396,-110.288
594.872,450.668,-118.828
542.168,434.32,-128.1
588.284,390.156,-97.356
672.952,337.452,-89.792
718.58,365.268,-86.864
764.696,422.608,-128.344
817.156,521.184,-137.372
780.312,490.44,-90.036
807.396,411.872,-47.824
922.076,416.508,-85.4
957.944,473.848,-95.892
890.356,549.0,-79.788
725.168,570.716,8.784
560.224,500.2,91.5
549.0,452.376,147.62
685.152,488.732,100.772
792.268,652.212,39.284
660.02,750.544,84.668
488.0,754.692,83.448
379.908,767.624,67.344
343.064,841.312,55.632
440.42,950.38,84.424
488.732,1048.468,75.64
517.036,1055.544,46.604
425.048,1179.496,21.472
216.184,1317.6,23.18
102.236,1342.488,49.776
110.044,1250.5,38.796
183.976,1040.66,-10.98
306.464,890.844,-74.42
329.4,887.916,-110.044
239.364,1039.196,-84.668
144.204,1142.896,-70.272
104.188,1156.56,-45.628
186.66,1116.788,-40.748
247.416,1084.58,-25.62
274.988,1023.824,-23.668
314.272,940.62,-70.76
264.252,939.156,-105.896
145.668,982.588,-122.976
55.876,1048.956,-113.46
7.564,1096.292,-101.992
67.1,1106.54,-78.08
165.432,1088.484,-62.952
214.476,1067.256,-53.436
227.408,1049.932,-71.248
181.292,1032.608,-81.984
103.456,1047.248,-84.18
43.92,1081.896,-72.956
53.436,1097.512,-58.804
120.048,1091.656,-54.656
162.504,1065.792,-45.628
200.812,1033.096,-44.408
176.412,1005.524,-53.436
108.58,1026.02,-77.348
33.672,1055.788,-107.36
10.492,1042.612,-112.484
16.104,1034.072,-102.724
27.084,1000.888,-106.384
75.884,944.768,-109.556
98.82,907.436,-113.46
96.624,897.432,-123.708
40.26,881.328,-142.984
1.22,854.488,-179.828
-17.324,845.216,-196.908
34.16,858.88,-209.84
137.372,909.388,-200.08
241.072,973.56,-181.292
265.228,1026.996,-152.744
248.392,1019.432,-137.86
224.968,972.828,-130.784
199.836,960.14,-125.904
168.36,953.796,-87.108
132.004,949.16,-64.172
106.872,915.488,-54.656
79.3,905.484,-68.564
89.548,947.696,-58.56
110.776,961.36,-37.576
96.868,984.54,-27.328
82.716,997.472,-31.476
68.076,994.3,-41.48
47.092,1028.948,-54.656
63.196,1034.072,-50.508
88.572,1032.364,-46.116
95.404,1024.068,-42.212
131.516,1038.464,-40.992
131.028,1048.712,-37.576
108.58,1046.76,-47.824
92.476,1019.188,-45.628
100.528,975.512,-41.968
89.548,957.456,-44.408
75.396,966.24,-40.504
101.748,971.608,-46.848
135.42,994.056,-31.72
133.956,982.344,-27.328
122.244,974.536,-24.156
123.22,981.856,-30.5
102.48,1000.156,-30.744
81.984,998.204,-36.112
81.984,993.812,-29.28
109.312,986.248,-30.5
127.612,991.616,-34.16
126.392,990.152,-31.232
118.096,998.448,-33.916
97.112,1012.112,-35.624
94.916,995.52,-40.26
108.336,977.464,-41.724
116.876,958.432,-33.184
110.532,947.452,-38.796
88.328,957.212,-42.212
80.52,969.168,-39.284
92.964,974.536,-41.968
109.556,970.876,-34.16
126.88,965.508,-36.112
121.268,950.136,-39.284
115.168,958.188,-47.092
104.432,993.324,-48.068
106.872,1003.572,-56.12
122.0,996.74,-52.46
124.928,997.472,-58.56
109.556,992.104,-57.584
92.964,997.96,-61.488
76.372,1019.676,-59.536
70.272,1027.24,-74.908
75.152,1037.976,-71.004
98.332,1019.92,-69.296
105.164,1002.596,-65.392
99.552,996.252,-62.952
97.6,1000.156,-69.296
99.552,1004.304,-62.22
99.552,997.716,-61.0
103.944,1005.28,-67.1
109.312,1010.16,-62.464
130.296,1005.768,-58.804
124.684,1022.604,-52.948
112.728,1033.096,-50.996
115.656,1018.456,-49.288
103.212,971.364,-44.408
98.576,954.528,-60.024
83.692,969.412,-47.58
85.156,999.424,-41.724
104.188,1011.624,-39.284
111.996,1012.844,-32.452
104.92,1007.964,-28.304
101.748,986.98,-33.672
76.128,984.052,-46.116
44.896,992.836,-49.288
30.744,1000.644,-47.336
49.288,1018.7,-40.992
88.572,1025.044,-36.844
104.92,1032.852,-31.72
101.26,1033.828,-28.06
90.28,1055.3,-27.572
93.208,1079.944,-30.744
150.06,1029.924,-25.376
210.572,985.028,-10.004
212.768,992.104,-4.636
190.808,1007.964,-16.104
109.8,1024.068,6.588
61.0,963.8,-5.368
52.216,920.124,-17.568
59.536,900.116,-22.692
58.804,909.388,-22.448
60.024,937.448,-17.08
61.0,967.948,-10.736
46.848,979.172,3.172
42.456,997.228,0.244
40.992,1016.504,-14.152
40.016,1025.776,-14.64
40.992,1039.44,-26.352
26.596,1031.144,-23.424
33.428,997.716,-24.644
47.336,1002.352,-11.956
44.896,1072.624,-10.004
61.488,1081.896,-34.892
132.98,1041.88,-30.012
302.56,1220.976,-61.732
347.212,1475.712,-65.148
462.624,1385.188,-84.424
534.604,1263.92,-161.772
458.72,1015.284,-106.628
382.836,799.344,-59.536
445.3,792.756,43.188
770.552,883.036,99.064
746.884,865.956,65.636
636.352,784.216,21.228
543.876,671.732,6.832
557.54,553.636,45.14
598.044,535.092,34.648
699.06,436.516,67.1
802.272,335.5,71.248
842.044,284.26,62.952
785.436,158.844,86.864
806.176,97.112,70.028
815.204,84.668,106.872
760.792,-16.836,147.864
859.368,31.964,138.592
825.696,116.632,112.728
848.388,146.4,68.564
893.528,129.564,96.624
872.788,60.756,142.496
859.856,7.564,130.296
911.34,96.624,26.596
812.276,97.356,32.696
706.868,54.412,146.156
721.752,17.08,214.72
810.812,69.296,164.944
884.012,128.832,91.744
812.276,83.692,111.02
754.692,29.768,88.572
757.376,14.64,80.276
743.224,63.44,68.32
826.184,156.648,-13.664
881.084,171.776,-33.672
809.592,41.968,8.296
688.812,-39.284,35.38
495.564,-28.06,87.352
486.78,62.22,65.88
737.856,123.708,27.084
912.804,15.372,48.312
1034.072,-135.42,6.832
1038.464,-203.984,-70.76
1005.28,-123.952,-198.128
1098.244,67.1,-286.456
1192.916,154.696,-186.904
1114.592,-77.104,-18.544
1143.14,-158.112,-17.08
1111.664,-116.876,-164.944
1084.092,-103.456,-252.296
1190.964,-33.184,-197.64
1278.316,-61.488,-142.74
1327.36,-162.992,-134.932
1338.34,-201.788,-212.036
1402.268,-74.664,-348.188
1386.164,20.496,-328.912
1343.952,64.172,-280.844
1337.852,70.76,-307.196
1395.436,46.848,-315.004
1398.852,-2.196,-342.088
1425.692,-2.196,-331.352
1472.54,-31.964,-268.888
1405.196,-95.16,-191.54
1302.716,-147.864,-175.436
1296.616,-115.168,-214.232
1341.268,-83.936,-209.108
1353.956,-76.128,-183.488
1362.74,-75.396,-168.116
1357.128,-101.504,-136.884
1356.64,-114.68,-135.176
1339.072,-117.12,-124.196
1291.492,-108.824,-109.556
1229.028,-85.888,-91.744
1214.388,-51.484,-89.548
1215.852,-1.464,-108.58
1262.944,29.768,-122.488
1261.968,30.256,-111.508
1267.336,14.884,-85.644
1231.712,-8.784,-80.032
1228.052,8.784,-84.668
1278.072,20.984,-87.596
1263.432,-28.06,-80.276
1232.932,-57.096,-81.008
1208.532,-29.524,-79.788
1098.488,-37.576,-39.528
988.688,-30.256,-9.76
883.524,-17.812,15.86
835.7,-27.084,13.664
916.464,10.004,-23.668
956.48,33.916,-45.628
928.664,59.048,-54.656
836.432,61.0,-56.364
715.652,54.9,-28.304
617.076,80.52,-24.888
633.424,176.168,-61.488
651.724,215.696,-97.112
628.544,244.976,-139.568
589.992,316.468,-159.82
503.86,379.664,-139.324
411.628,407.48,-121.024
419.68,453.352,-121.512
424.804,475.8,-116.388
485.56,402.6,-80.276
664.656,414.8,-97.6
777.384,448.228,-135.176
737.856,483.608,-124.684
639.768,492.148,-115.656
672.952,548.268,-136.884
764.94,570.96,-128.832
723.216,508.74,-91.5
672.464,499.468,-87.352
728.828,683.2,-117.364
726.144,755.18,-64.172
735.416,659.044,31.232
780.8,649.284,71.004
655.384,791.78,53.924
535.58,875.96,113.948
423.096,830.332,135.664
520.208,813.984,33.184
558.272,924.272,-83.204
481.9,815.936,5.124
341.112,866.2,17.812
169.824,1119.716,13.908
286.944,1187.548,117.12
385.52,1182.424,67.588
345.26,1128.5,52.216
253.272,985.272,30.988
156.648,897.676,41.236
169.58,896.456,34.892
251.808,909.876,60.268
278.892,913.536,53.68
299.388,976.244,32.208
247.904,1105.808,45.384
203.252,1178.032,70.516
210.572,1203.408,99.552
292.556,1123.376,112.484
359.412,1044.808,124.684
366.244,988.2,100.04
303.78,988.932,82.228
213.256,1034.56,64.66
146.4,1049.688,43.432
186.416,1000.4,35.38
301.828,918.904,21.716
345.748,908.656,-23.18
293.532,975.268,-55.388
141.52,1141.92,-83.204
-0.732,1189.5,-101.26
81.252,1124.352,-77.104
196.908,1070.916,-42.7
268.156,991.86,-29.524
264.74,943.548,-54.412
228.384,992.104,-71.736
189.588,1017.968,-79.3
231.556,983.32,-112.484
277.916,977.22,-144.204
207.156,961.116,-177.632
133.468,963.8,-187.392
69.54,1004.548,-202.276
58.56,1022.116,-202.52
106.872,970.632,-162.992
228.14,927.932,-111.508
338.184,917.44,-77.592
331.352,950.624,-63.928
232.044,935.984,-74.908
147.132,928.42,-76.372
113.216,929.152,-57.584
157.624,924.76,-51.484
204.472,936.96,-47.824
192.76,991.128,-38.552
150.792,1052.128,-45.872
134.932,1044.808,-32.452
127.612,1029.436,-25.62
122.732,1026.508,-19.276
132.004,1025.532,-42.7
162.016,1022.116,-45.14
149.328,1011.624,-56.608
158.356,981.856,-78.812
204.228,950.38,-78.08
188.856,939.644,-84.424
