acc_x[mg],acc_y[mg],acc_z[mg]
-91.5,981.856,-93.452
-102.724,985.272,-84.424
-89.548,981.856,-84.668
-93.94,974.536,-91.744
-103.212,985.028,-106.14
-105.164,987.468,-102.48
-107.848,986.736,-94.916
-76.616,984.296,-106.628
-94.672,977.464,-77.592
-107.116,978.44,-73.444
-103.212,978.44,-91.744
-105.896,980.392,-106.872
-103.944,978.928,-110.776
-104.676,976.976,-104.188
-113.704,977.708,-92.964
-101.016,976.732,-98.332
-96.624,980.636,-111.02
-96.624,988.444,-103.212
-88.816,981.124,-85.644
-88.572,976.976,-83.936
-84.912,988.688,-96.868
-88.084,984.052,-92.232
-98.332,979.172,-90.28
-94.672,977.464,-105.652
-108.092,976.976,-96.624
-110.044,977.464,-90.28
-91.744,967.216,-104.92
-100.284,964.044,-88.328
-104.676,971.364,-91.744
-114.924,978.44,-91.5
-106.628,986.004,-95.404
-79.056,990.396,-106.872
-95.404,984.784,-69.784
-85.156,984.296,-73.2
-56.608,990.396,-88.572
-63.684,993.568,-98.576
-73.932,983.808,-107.848
-89.548,987.224,-98.088
-85.644,986.736,-103.7
-93.94,976.244,-81.74
-103.212,967.704,-69.052
-106.14,973.56,-81.496
-105.652,976.0,-96.38
-105.408,974.292,-87.596
-102.236,969.168,-79.544
-94.184,968.192,-84.424
-74.176,972.828,-108.336
-81.984,978.684,-119.316
-101.748,982.588,-108.824
-90.524,979.416,-105.896
-94.672,977.952,-101.504
-105.164,983.32,-106.628
-92.964,988.444,-115.9
-88.328,983.32,-104.432
-96.38,978.684,-78.568
-81.984,978.44,-74.176
-78.568,978.684,-87.108
-81.008,981.612,-96.38
-80.52,986.492,-96.868
-92.72,988.932,-103.456
-94.672,981.612,-110.044
-102.968,984.54,-114.436
-101.504,979.904,-124.684
-102.968,986.736,-116.388
-96.38,979.416,-115.656
-102.236,979.172,-109.556
-105.408,986.98,-101.016
-111.264,987.224,-81.008
-108.336,990.152,-83.692
-104.676,993.568,-89.548
-117.608,1010.16,-88.084
-104.92,1014.308,-78.812
-121.268,1021.384,-76.128
-147.132,1017.236,-78.568
-236.924,1017.236,-61.244
-368.928,1010.404,-51.728
-391.62,1062.62,-174.216
-534.604,1164.856,-235.46
-650.748,1128.988,-397.476
-980.148,1061.888,-312.808
-735.172,608.78,12.932
204.472,313.54,315.98
822.768,312.564,372.1
1150.704,368.44,159.332
1341.756,570.716,-133.712
996.496,494.832,-82.228
784.948,374.784,250.588
807.64,330.132,237.9
1123.864,305.244,34.648
1167.54,214.232,160.552
1036.268,225.944,303.048
1056.276,263.764,236.68
934.764,265.96,233.996
1066.524,294.02,164.456
929.152,287.92,188.612
782.508,292.8,249.612
839.604,307.44,185.44
761.28,302.56,142.74
695.156,339.892,155.916
703.452,349.652,84.668
709.308,308.66,68.564
731.756,309.392,68.808
720.044,276.696,22.448
477.02,213.744,117.852
573.156,255.468,137.616
548.512,199.836,152.5
635.376,176.9,138.348
617.564,169.092,116.632
658.068,140.3,124.196
758.84,105.164,43.676
778.604,46.604,-53.436
752.008,38.064,-31.476
756.644,2.196,15.128
743.712,-61.244,42.212
846.924,-58.072,11.224
703.696,-76.86,34.16
756.4,-100.284,74.664
863.028,-182.512,-10.492
857.66,-191.784,-41.48
858.148,-223.26,6.344
863.516,-310.856,13.42
961.116,-341.356,-10.492
1066.28,-334.28,-15.86
1082.384,-388.936,30.5
1032.12,-478.484,47.336
1213.168,-479.46,9.76
1240.252,-520.696,26.84
1371.28,-566.08,-59.78
1537.688,-684.42,-58.804
1505.724,-765.916,145.424
1412.516,-773.968,185.44
1537.932,-705.648,161.772
1560.136,-728.096,223.016
1606.252,-728.584,189.588
1557.208,-690.276,133.224
1497.916,-640.744,76.86
1488.4,-613.904,85.888
1494.256,-677.1,187.148
1453.02,-721.508,306.464
1438.38,-758.596,339.404
1442.528,-772.016,414.556
1411.052,-758.108,481.168
1386.896,-727.12,453.596
1433.012,-696.62,393.328
1394.216,-711.748,418.46
1337.608,-706.136,465.552
1189.744,-709.308,486.78
1133.136,-658.8,478.972
1185.596,-605.12,404.064
1177.056,-575.352,324.032
1112.152,-548.024,281.82
1033.584,-520.696,250.832
1020.408,-496.784,206.668
949.648,-440.664,172.996
935.984,-375.272,125.904
891.332,-366.976,141.276
730.048,-358.436,158.6
749.812,-318.42,132.248
635.376,-241.316,177.876
527.284,-198.128,228.628
597.312,-148.596,126.148
633.668,-70.028,68.076
502.64,-2.684,107.604
552.66,33.672,52.46
577.792,69.052,16.592
558.028,113.46,40.992
654.896,98.088,38.552
568.032,77.104,50.264
673.684,150.792,34.404
613.66,172.02,39.284
697.84,166.896,10.492
710.04,191.784,-20.74
757.62,196.664,2.684
775.92,196.42,16.104
777.14,197.396,43.188
801.54,188.612,43.676
893.284,178.852,25.132
950.136,173.484,40.992
1035.048,172.752,5.368
1062.132,173.484,10.98
1171.444,184.464,57.584
1292.712,141.032,131.516
1415.2,130.54,214.964
1426.668,63.684,235.46
1437.404,65.148,171.044
1550.376,74.176,134.444
1493.28,-38.064,181.536
957.212,-8.784,347.944
623.664,94.428,210.084
235.46,296.948,140.056
-776.408,709.796,201.544
-916.952,1197.796,134.688
307.44,1055.056,-377.224
-123.464,968.924,-55.144
-253.76,874.984,112.972
-126.148,825.696,50.264
-213.988,902.068,-40.26
-99.552,1039.684,-311.1
-115.656,1065.792,-339.648
-110.288,1057.984,-260.348
-140.3,991.128,-64.172
-33.428,919.636,-7.076
-14.884,957.456,-89.792
13.908,983.564,-200.812
28.304,1044.808,-297.924
-43.92,1036.512,-229.848
-13.42,1017.968,-168.848
17.324,993.324,-112.24
73.2,973.56,-121.268
71.004,971.852,-89.792
68.076,956.236,-18.056
61.0,969.168,1.708
23.912,977.952,7.808
45.384,962.824,-11.712
67.588,966.24,-46.36
28.06,950.868,-25.132
54.412,940.62,-14.884
58.072,955.26,-8.296
31.232,995.032,-28.792
38.552,1014.308,-75.152
24.644,1017.968,-55.144
15.616,1010.16,-6.588
26.596,989.42,37.576
12.2,963.068,108.092
42.456,980.636,87.84
45.14,1009.672,59.78
20.008,1019.92,67.1
24.644,1012.6,87.84
26.84,1000.4,143.472
36.112,995.276,162.504
75.396,983.32,131.028
80.276,999.18,104.92
52.216,968.68,168.848
78.08,964.044,182.512
121.268,996.496,110.532
79.3,1006.256,66.856
47.336,999.912,50.508
39.04,1007.232,20.74
29.524,1007.476,0.976
1.952,1008.208,8.052
41.968,987.468,40.26
41.968,992.104,80.764
63.44,1016.992,14.396
98.576,999.912,0.0
114.192,976.0,58.804
81.008,995.276,77.348
123.952,1047.736,-18.788
105.896,1054.324,-37.088
97.112,1046.76,-36.844
81.496,1052.128,-53.68
89.06,1034.804,-41.724
103.7,978.684,41.48
122.488,966.972,71.98
132.492,967.46,-10.492
61.0,999.424,-46.116
48.312,1030.9,-93.94
75.152,1035.048,-148.352
120.78,987.224,-137.86
119.56,973.804,-93.696
127.124,987.956,-106.872
167.14,1006.744,-183.244
113.948,978.44,-156.404
102.48,967.46,-225.212
101.26,995.032,-278.648
35.38,963.312,-168.848
41.236,937.448,-177.876
60.756,975.512,-278.892
27.816,951.112,-235.948
44.408,911.828,-135.664
95.16,915.488,-135.664
88.084,958.676,-217.404
47.824,997.228,-256.688
36.356,1009.184,-255.224
17.568,972.096,-155.428
67.344,944.28,-137.86
110.532,965.508,-150.792
86.376,988.2,-103.212
74.176,992.104,-143.716
83.692,991.372,-204.228
34.648,1021.872,-195.932
23.424,1034.316,-218.624
48.556,1010.648,-168.36
47.092,964.532,-62.464
77.348,954.04,-51.24
67.832,981.612,-70.76
60.512,986.736,-69.296
53.924,972.096,-72.712
59.78,989.176,-118.584
46.848,1011.38,-106.384
51.728,989.908,-60.756
92.232,974.78,-71.736
83.692,971.364,-66.368
94.916,970.388,-70.76
75.152,964.288,-54.9
57.34,969.168,-63.928
49.044,991.128,-75.396
34.404,999.912,-70.76
41.48,992.348,-59.292
73.444,975.512,-52.704
88.084,1002.596,-58.56
73.2,1014.308,-49.288
82.228,1006.988,-66.124
107.848,1006.012,-81.984
96.868,1019.92,-70.272
71.98,1016.992,-64.416
90.524,997.228,-78.812
78.08,990.884,-74.176
57.828,1019.188,-92.232
3.66,1027.728,-82.716
-5.856,1032.364,-70.76
-15.372,1032.608,-40.504
-65.636,1066.036,-40.26
-53.436,1078.48,-75.152
-30.256,1107.028,-146.888
-129.076,1103.856,-120.292
-213.988,1125.572,-115.412
-310.612,1154.852,-162.992
-511.424,1104.344,-224.724
-376.492,905.728,-206.668
-187.88,523.868,164.944
100.772,240.828,447.008
781.288,106.384,427.488
1128.012,-41.236,662.46
1337.608,27.328,436.516
1298.568,161.528,-220.332
1217.316,251.808,-339.16
1231.712,281.332,-126.636
1196.576,250.344,-75.884
1153.876,231.312,9.76
1065.06,265.96,33.184
880.596,173.24,102.48
906.216,133.468,100.528
913.292,198.372,39.772
745.908,237.656,43.92
771.04,285.724,8.052
749.812,295.24,-10.98
670.024,276.696,35.868
720.044,292.556,62.22
668.804,246.684,86.376
718.824,232.288,49.776
731.512,220.576,54.656
652.944,180.072,124.196
664.412,175.924,160.796
688.568,176.412,134.2
756.4,154.696,42.944
736.636,73.2,26.108
642.696,75.396,107.848
652.7,93.452,136.396
656.116,24.156,156.404
718.58,-61.488,116.632
798.856,-69.296,15.372
882.304,-69.052,-87.108
801.54,-42.944,-9.76
761.768,-57.828,212.28
785.192,-155.672,165.676
884.744,-175.924,-34.404
1032.608,-209.84,-236.924
1069.94,-244.976,-229.116
884.744,-281.576,66.368
877.18,-381.128,153.476
1102.636,-413.336,34.892
1384.212,-385.764,-201.056
1328.092,-372.1,-178.12
1122.644,-406.504,-121.024
1069.696,-445.788,-111.508
1127.036,-481.656,-12.2
1243.668,-442.86,-34.892
1268.556,-457.256,-65.392
1312.232,-510.448,2.928
1366.4,-548.756,35.38
1474.248,-567.544,61.488
1406.416,-551.44,91.256
1488.888,-530.212,77.104
1596.736,-554.612,-4.392
1456.436,-660.02,91.5
1483.032,-658.068,173.972
1439.112,-650.26,165.92
1343.952,-586.82,20.252
1404.708,-487.756,-117.364
1465.464,-525.332,-59.048
1411.54,-640.5,181.048
1343.952,-728.096,340.136
1305.4,-708.088,357.948
1406.66,-645.38,324.032
1324.676,-641.964,341.356
1354.2,-636.596,453.84
1382.016,-667.584,493.368
1315.648,-650.992,462.624
1268.068,-599.508,358.68
1301.252,-528.26,286.7
1221.952,-529.724,295.24
1192.916,-506.056,387.96
1105.32,-484.828,401.136
1062.376,-427.732,323.544
1071.404,-384.544,247.904
989.908,-317.444,224.968
927.444,-279.868,262.3
888.404,-266.936,279.624
836.92,-213.988,274.5
841.312,-172.02,203.74
869.128,-130.784,139.08
909.388,-126.392,113.46
839.604,-148.108,147.376
733.708,-149.572,253.028
700.524,-123.708,247.66
678.564,-80.52,194.712
694.912,-16.836,145.668
534.604,32.208,107.604
534.116,87.108,168.848
556.076,82.472,166.164
538.264,86.62,158.844
518.5,138.836,143.716
608.536,152.012,116.144
584.868,132.736,107.604
578.768,188.612,111.752
659.288,197.396,93.452
656.848,178.852,116.388
770.552,191.54,77.348
788.12,188.124,59.536
772.26,218.624,52.216
810.324,266.448,38.308
837.408,274.988,44.164
854.976,230.824,77.104
916.22,219.844,98.088
879.132,199.836,97.844
976.244,246.196,102.48
1090.192,227.652,87.108
1213.168,264.984,92.476
1255.624,219.6,147.62
883.036,130.052,89.304
932.08,228.872,129.076
1247.084,246.196,179.096
1461.56,265.228,140.544
1585.756,248.88,108.824
1596.004,265.96,68.076
1380.064,224.236,233.752
1098.0,151.036,456.28
1208.044,287.92,249.124
1089.704,409.676,-81.984
521.428,330.62,62.22
202.52,500.444,111.508
-63.44,762.5,4.88
-197.396,786.9,4.392
-301.828,807.396,211.548
-261.568,831.064,223.26
-212.768,807.884,150.06
-184.952,858.148,-8.052
-213.256,853.756,10.736
-199.592,925.98,-44.164
-228.14,925.98,-35.624
-190.076,927.2,19.276
-203.984,936.228,42.212
-205.448,967.948,-4.148
-145.18,977.464,-120.292
-121.512,996.496,-173.484
-122.488,998.936,-138.836
-119.316,984.784,-56.852
-122.0,1001.62,-17.568
-120.292,972.584,-13.42
-56.852,971.852,-60.512
-78.08,995.276,-51.484
-60.024,1023.336,-85.644
-119.56,1012.6,13.664
-76.616,1012.356,24.4
-43.432,1015.528,-29.28
-14.64,1024.8,-105.652
-36.112,1043.1,-75.64
-61.488,1014.308,-18.056
-69.784,1007.964,33.428
-71.248,981.368,47.336
3.904,961.604,3.904
71.004,984.052,-61.976
55.876,1002.108,-87.352
-22.448,999.668,-35.868
0.488,990.152,-29.036
-10.98,980.392,3.66
-13.42,983.564,13.176
-22.204,1012.6,4.148
-41.724,989.176,9.272
-10.98,1005.28,-20.252
-64.66,1012.356,23.668
-48.312,1003.084,57.096
53.192,1013.82,20.984
-4.392,1005.524,73.2
33.672,989.176,71.98
46.116,1003.084,71.736
43.188,994.788,87.596
29.524,984.784,120.536
28.304,980.392,97.6
33.184,995.032,54.9
52.704,981.368,57.584
-5.368,962.336,135.42
-10.004,953.308,141.032
-1.22,935.496,159.82
4.88,945.012,185.196
19.032,954.772,188.124
24.888,967.216,167.872
24.644,968.436,181.536
-8.052,975.024,217.892
19.764,964.288,244.976
75.884,966.24,249.612
55.876,953.796,292.068
60.512,927.688,309.636
90.768,937.692,256.444
142.984,947.696,175.436
169.092,994.544,73.932
138.348,1047.98,-43.188
68.808,1035.292,-32.208
0.244,969.168,61.488
-41.236,932.812,180.072
12.932,919.392,248.148
115.656,937.936,208.864
151.28,987.224,128.1
124.928,1023.336,79.056
125.416,1048.712,56.608
177.632,1069.452,-8.784
205.204,1057.74,-4.392
166.164,1006.012,85.888
158.356,983.32,141.52
173.24,981.368,137.372
213.256,995.276,106.384
301.828,1013.088,-39.04
264.252,1062.62,-168.36
138.104,1042.612,-120.536
73.2,995.276,-38.552
86.62,978.928,-53.436
182.268,985.028,-102.724
273.768,971.852,-142.252
162.748,962.336,-76.128
152.012,945.256,-114.436
138.592,988.688,-175.924
142.008,961.848,-181.78
151.036,1010.16,-251.076
157.136,1049.688,-299.876
204.228,1009.672,-223.748
203.984,963.312,-136.884
189.588,982.1,-86.62
170.556,956.236,-40.504
178.852,941.84,-54.656
217.648,1022.116,-177.144
215.94,1049.2,-263.032
174.216,1053.348,-235.46
193.492,1036.268,-180.56
194.468,985.516,-123.22
201.544,949.404,-127.124
165.188,977.22,-138.104
137.616,962.336,-127.856
118.584,943.304,-109.068
130.296,981.612,-178.608
114.436,989.908,-201.544
46.36,961.604,-83.692
55.388,926.956,-28.792
98.82,942.084,-72.956
127.368,964.776,-90.036
134.444,964.776,-90.036
118.34,953.796,-66.124
127.368,953.064,-49.288
120.536,984.54,-54.168
107.848,1012.112,-36.6
113.46,1006.012,-33.428
119.804,1013.82,-48.068
124.196,1044.808,-57.096
115.168,1031.876,-42.456
149.084,1001.864,-28.06
188.368,988.444,-18.056
184.22,999.424,-0.244
142.252,1024.068,17.568
129.076,1006.988,11.224
64.904,990.396,66.368
-193.736,1071.648,0.244
-235.216,1321.504,-314.028
-212.036,1165.344,-334.28
-306.708,893.772,-7.32
-200.568,662.948,348.188
328.424,482.388,480.924
620.492,266.204,596.824
989.664,81.74,649.284
1299.544,87.84,489.22
1416.664,281.332,42.212
1407.636,380.64,-266.936
1153.876,351.604,74.42
1143.872,335.012,189.588
1009.916,288.164,206.424
1006.256,302.072,176.168
886.696,274.988,226.676
802.028,290.604,278.892
902.312,331.596,233.752
916.464,337.696,127.612
973.316,416.02,60.024
878.644,414.8,120.536
793.488,404.308,187.392
762.744,380.396,171.044
719.068,370.392,136.884
681.736,377.712,132.492
643.916,367.464,81.984
522.404,331.84,40.504
477.264,343.796,62.464
410.896,355.508,101.992
403.82,342.332,87.352
371.856,296.216,16.348
305.976,184.952,-10.98
171.044,69.54,87.596
168.604,55.632,197.396
281.332,101.504,262.3
400.16,57.828,120.78
501.176,-8.296,0.732
522.404,-135.664,-76.372
573.888,-188.856,-16.836
664.656,-274.256,107.604
803.492,-297.436,49.288
886.696,-393.816,-69.052
901.092,-435.052,-235.948
858.636,-364.292,-233.996
805.444,-531.432,-46.848
1022.604,-627.324,-70.028
1316.136,-599.02,-350.14
1566.236,-605.12,-631.716
1341.268,-684.42,-599.264
1285.636,-721.264,-320.616
1625.04,-795.44,2.196
1731.912,-970.144,185.928
2072.292,-988.444,51.728
2230.16,-999.912,-132.004
2118.652,-962.092,-181.048
1761.192,-918.416,49.776
1468.148,-807.396,315.736
1747.04,-787.388,204.472
2026.42,-712.724,-59.048
2045.208,-701.256,-28.792
1960.54,-868.884,212.768
1811.7,-1102.88,550.22
1946.876,-1175.592,707.844
1903.688,-1136.796,660.508
1651.392,-1099.708,682.956
1576.24,-1000.4,617.32
1412.028,-955.992,503.86
1349.564,-853.268,473.848
1298.568,-811.788,436.028
1270.752,-759.572,352.824
1166.076,-790.316,355.508
1078.968,-716.872,443.104
864.492,-732.0,496.784
719.068,-704.184,449.692
775.432,-579.012,352.092
578.28,-549.0,282.552
565.348,-406.26,240.828
421.388,-343.308,216.184
278.404,-227.896,208.62
176.168,-90.524,139.568
215.94,41.724,120.536
252.784,55.388,98.088
180.804,101.504,86.132
207.4,176.9,101.016
144.448,234.24,66.124
125.66,322.324,71.98
290.36,381.372,10.98
415.044,430.66,-60.756
484.34,404.796,-105.652
558.516,471.896,-75.396
587.796,493.612,-43.432
671.976,439.688,-36.844
659.044,458.72,-1.952
795.196,466.284,-27.328
885.964,443.104,-32.208
843.264,469.212,25.376
820.572,468.48,59.292
649.04,453.108,61.488
641.72,535.824,88.084
866.932,541.924,58.56
900.604,532.164,21.716
841.8,518.256,54.168
878.156,523.38,103.212
801.296,498.98,122.488
862.54,525.332,91.012
945.988,562.42,32.696
928.176,569.984,39.528
843.752,536.312,79.788
940.376,553.392,128.588
914.268,551.44,162.26
920.612,561.932,95.404
970.144,542.656,77.836
898.164,530.456,96.136
938.18,543.876,122.732
988.932,535.824,155.916
926.224,514.84,166.164
943.06,533.14,125.172
1113.86,540.948,71.248
1271.972,547.536,129.808
1162.416,446.276,316.468
1247.572,485.804,165.432
1054.08,401.38,91.988
815.448,389.18,83.448
525.576,383.324,187.88
247.416,464.332,275.72
-212.768,645.38,213.744
-755.18,945.5,74.42
-666.852,1077.748,28.06
-90.524,953.064,-119.804
-172.264,992.592,-80.52
-327.936,959.896,43.432
-149.328,933.788,-67.1
-181.048,932.568,-70.028
-199.592,1014.796,-109.312
-195.688,1094.096,-206.18
-227.408,1028.216,-83.936
-115.9,973.072,-81.496
-152.5,987.468,-44.164
-122.0,967.948,-44.652
-23.912,976.732,-147.62
-161.284,1021.14,-102.236
-143.228,988.2,-91.744
-29.768,1000.4,-138.592
-43.92,1017.724,-145.424
-75.64,983.076,-88.084
-12.932,972.584,-50.02
-46.604,973.804,-3.172
-70.516,951.6,42.944
-7.564,971.608,-16.836
-84.424,969.168,-9.76
-88.084,969.168,-10.736
-71.248,984.54,-17.324
-70.516,977.22,-18.788
-48.556,968.68,-16.104
10.736,977.464,-39.284
72.712,996.984,-69.784
55.144,1031.632,-72.712
3.416,1033.828,-40.504
-10.004,1022.848,-28.792
-35.624,1027.972,-66.856
-72.468,1005.036,-57.34
-83.204,990.884,-27.084
-49.776,958.188,32.452
-44.896,924.272,137.372
-9.272,935.496,178.364
7.32,984.052,152.256
13.42,1024.8,85.156
3.904,1025.044,88.328
-2.44,1021.14,146.4
20.008,1035.536,151.524
9.272,1002.108,221.796
20.008,970.388,287.676
6.1,948.428,316.224
-44.652,924.76,353.8
-45.14,929.152,335.5
-33.916,937.448,297.436
-37.088,950.38,225.7
-34.892,982.1,159.576
-17.08,1000.4,104.92
-30.012,1007.232,85.156
5.368,1004.792,73.688
36.356,965.508,122.488
35.624,967.704,122.0
39.772,943.304,84.668
15.86,951.6,110.776
10.98,938.424,188.124
99.796,962.336,160.308
184.464,946.72,50.996
119.56,973.56,23.668
56.608,976.732,34.404
126.88,996.008,2.44
207.644,1021.628,-3.172
222.772,1060.18,9.028
219.844,1037.976,3.66
247.172,1030.412,-54.412
246.684,1046.028,-101.504
185.928,1090.68,-147.62
215.208,1095.316,-219.6
192.272,1074.82,-186.904
177.632,1063.108,-182.512
171.776,1031.876,-166.896
79.056,975.756,-51.728
96.38,994.544,-103.456
198.86,1036.024,-223.26
148.108,1001.132,-165.92
151.28,1001.132,-174.948
148.84,1007.232,-180.316
111.752,989.176,-138.348
153.232,957.944,-144.936
143.228,1006.744,-247.172
70.272,1012.6,-245.464
36.6,976.0,-162.992
52.46,965.752,-119.316
84.912,989.42,-204.716
143.472,984.784,-275.232
69.296,976.732,-224.48
28.06,957.456,-152.256
84.424,934.276,-156.16
93.94,930.616,-164.944
60.512,956.236,-180.316
58.316,988.932,-219.356
11.712,955.504,-162.992
22.936,954.772,-144.448
29.524,954.04,-130.54
13.908,942.816,-82.472
25.132,954.284,-116.388
20.252,966.728,-147.132
-7.076,966.972,-97.112
-17.812,947.208,-51.972
19.764,971.608,-61.488
5.612,1015.772,-72.956
-8.296,1025.044,-86.376
15.372,1011.136,-87.108
19.276,1010.16,-73.444
34.892,1011.868,-55.144
-20.252,1011.38,-19.52
-108.092,1032.12,-48.556
-70.516,1063.596,-78.324
-120.78,1079.7,-74.42
-372.832,1147.044,-115.412
-450.18,1143.628,-313.052
-462.136,863.272,-169.092
-108.58,644.404,-21.716
218.624,361.364,227.652
567.056,182.756,568.764
1047.492,151.768,624.64
1213.412,167.872,574.62
1191.452,220.82,312.808
1281.244,281.332,98.332
1326.14,242.78,14.64
1443.992,268.644,50.996
1292.956,251.808,213.744
960.872,174.216,392.596
954.284,229.848,328.18
863.76,238.144,322.568
863.272,320.86,271.816
880.352,373.808,169.092
782.752,404.552,167.628
779.336,425.78,231.312
833.016,414.8,172.02
776.896,385.032,155.428
759.328,400.16,145.668
707.6,362.096,140.056
694.912,334.28,126.392
614.636,319.64,122.488
553.392,322.568,169.336
639.524,313.052,127.368
640.5,296.948,75.396
604.632,268.4,96.624
640.988,277.916,135.176
684.908,247.66,106.384
708.82,189.344,95.892
731.756,167.384,48.8
652.212,161.284,35.38
590.236,176.168,163.48
692.228,142.008,138.348
703.208,67.588,124.44
833.016,89.06,49.044
886.452,117.852,16.592
814.716,73.932,106.628
807.64,-44.408,134.2
871.08,-85.644,94.672
932.08,-81.008,112.484
908.9,-129.076,83.936
910.364,-170.312,18.056
1045.296,-182.024,-22.936
1112.64,-231.8,44.896
1104.344,-245.464,-41.724
966.728,-193.248,-46.116
915.0,-221.308,71.492
1007.964,-313.784,109.556
1093.364,-397.232,95.16
1194.136,-439.444,-37.82
1172.176,-459.696,-83.936
964.532,-433.832,98.332
842.288,-477.02,250.832
1012.844,-504.592,193.98
1209.752,-554.856,13.664
1230.248,-555.1,-107.848
1112.884,-531.676,-3.66
1170.956,-621.224,86.864
1407.148,-697.352,71.004
1598.688,-710.772,-76.86
1617.232,-675.636,-121.512
1648.22,-653.92,-133.712
1708.976,-668.072,-82.472
1703.608,-715.164,32.208
1546.472,-755.668,167.872
1436.428,-716.628,182.268
1381.04,-696.864,166.164
1424.716,-696.132,165.676
1445.7,-716.872,212.036
1413.004,-758.108,250.1
1397.144,-755.912,292.8
1410.564,-689.056,317.444
1546.472,-691.496,299.876
1610.4,-727.852,328.912
1519.876,-754.204,427.976
1396.168,-769.088,515.816
1291.736,-730.048,556.076
1256.112,-668.316,429.684
1077.748,-547.78,315.492
874.252,-457.256,309.148
889.868,-410.408,407.968
842.532,-413.092,386.252
685.396,-339.892,352.58
859.612,-252.296,312.564
701.5,-271.328,182.512
858.636,-190.076,150.06
771.04,-165.432,164.456
637.328,-172.02,222.528
821.548,-107.604,187.148
777.384,-95.404,99.308
634.4,-64.66,185.684
658.068,-59.048,226.432
642.208,-14.884,180.316
685.884,30.256,154.208
725.656,22.692,129.808
693.936,24.644,144.692
655.384,94.672,118.828
665.632,78.812,127.856
614.148,93.94,120.292
599.508,134.688,37.088
646.844,162.992,11.468
605.852,141.52,99.064
624.396,147.62,49.776
674.416,181.292,23.424
707.6,213.744,-3.904
733.952,244.244,-28.548
702.72,241.072,-27.084
824.476,261.568,-9.028
826.672,233.508,11.468
1028.46,239.608,-18.544
1174.128,263.764,-10.98
1159.732,198.86,61.0
1392.996,195.2,-29.28
1638.948,173.972,-0.244
1648.708,133.956,36.112
1498.16,35.136,199.592
1334.192,-28.06,304.268
1338.34,-3.904,-28.792
555.344,11.712,103.212
-490.44,419.192,81.496
-1440.332,1065.06,72.956
-615.856,958.92,-14.884
-85.4,835.212,-140.056
-643.916,943.792,98.088
-356.484,850.828,-19.032
-194.468,845.948,-92.476
-315.98,890.844,91.988
-57.096,967.704,-39.284
-16.104,1132.16,-183.0
28.548,1075.064,-53.924
102.968,1021.384,32.696
134.444,984.54,113.216
164.212,1058.716,79.056
107.848,1104.344,42.456
61.976,1067.744,22.692
223.748,1004.06,-82.716
220.088,1004.06,-131.516
34.648,990.884,25.864
56.12,956.236,70.516
135.42,947.94,47.58
274.012,1002.352,-42.7
138.348,997.472,47.58
154.208,972.096,65.636
116.144,957.944,119.072
85.4,929.152,150.06
102.968,948.916,131.272
126.392,962.824,108.092
91.256,983.076,97.6
108.092,979.416,94.428
135.908,988.444,79.544
144.204,996.984,98.332
153.72,973.072,137.128
144.448,967.704,151.768
192.516,969.9,147.864
152.5,975.024,167.872
75.884,965.752,173.728
86.62,962.58,145.18
95.16,969.9,117.364
106.872,1013.332,51.24
116.388,1037.976,7.32
115.168,1011.868,49.044
102.236,978.928,109.8
113.46,965.996,113.216
131.76,962.336,105.652
124.196,964.044,90.768
108.58,989.42,63.928
82.96,985.272,101.016
93.696,976.976,124.928
138.836,973.804,124.196
154.94,988.932,115.656
139.08,995.276,116.632
107.848,980.636,165.676
116.144,974.292,164.212
116.388,963.312,175.68
134.688,961.116,193.492
112.484,945.256,232.044
111.02,950.136,229.36
135.42,961.116,211.548
135.664,953.308,218.38
117.12,951.844,219.6
141.764,979.904,162.748
207.156,996.496,87.596
158.844,992.104,128.588
111.02,963.312,207.888
119.316,951.844,233.264
125.66,937.204,280.844
202.276,942.328,266.204
235.704,966.972,208.62
228.872,997.716,185.196
208.62,1022.116,202.032
210.084,1034.072,219.112
215.208,1028.948,242.78
278.648,1032.608,236.924
274.256,977.464,274.988
282.064,918.416,343.552
226.676,898.652,388.204
244.488,908.168,322.812
189.344,893.772,293.532
213.256,875.716,242.536
209.84,885.72,257.664
172.508,876.692,236.436
182.512,926.468,101.26
163.968,921.832,30.5
124.44,888.648,81.496
233.752,941.108,25.376
237.656,1007.476,-96.868
181.292,1002.84,-130.54
106.872,1012.112,-134.2
78.324,932.568,-50.996
137.86,947.94,-35.624
292.556,940.132,-141.032
297.68,895.724,-88.816
211.792,896.7,27.328
252.052,919.636,22.692
270.108,965.264,-99.064
259.372,1028.216,-241.804
236.924,1002.596,-221.064
195.2,1009.428,-138.592
222.04,1007.964,-132.004
233.752,1045.052,-191.052
216.428,1108.248,-299.388
148.596,1079.456,-262.3
130.54,1022.36,-155.428
165.92,996.74,-103.7
181.292,1016.504,-102.48
159.82,1000.644,-78.08
144.936,987.712,-89.06
172.264,987.956,-112.728
170.312,1032.852,-147.132
169.824,1054.08,-189.588
148.108,1021.872,-121.268
152.988,998.204,-88.816
156.648,994.3,-86.62
167.384,988.932,-95.16
142.496,989.664,-32.94
131.272,960.384,29.524
145.668,960.14,20.496
147.132,950.38,32.696
137.128,965.264,29.768
160.796,992.592,-21.228
161.772,1015.772,-55.144
183.244,999.668,-50.508
173.24,986.248,4.88
193.248,966.484,11.712
212.036,968.192,-1.22
178.364,980.88,2.684
170.8,982.344,-3.416
159.088,994.544,-32.208
159.82,983.564,-29.524
167.872,983.32,-17.812
182.512,980.88,-22.448
188.124,973.56,-20.984
171.776,968.924,2.196
172.264,970.876,-8.784
157.38,967.704,-5.856
151.768,969.9,-1.952
163.968,978.928,-19.032
149.328,985.516,-21.716
158.844,984.296,-23.424
169.58,979.172,-9.272
164.7,963.556,16.104
191.784,970.388,-17.568
200.324,979.172,-57.34
157.38,976.0,-25.376
156.648,977.464,-15.86
147.132,978.684,-24.4
146.888,991.128,-36.844
140.3,989.42,-16.104
148.84,977.952,13.42
184.464,968.68,7.076
186.416,975.512,4.148
164.212,1023.58,-32.94
169.336,1022.36,-50.996
153.72,1028.704,-31.964
152.256,1024.068,-20.496
99.552,1069.696,-61.732
-36.6,1039.44,2.44
25.132,1011.868,-9.272
56.364,980.392,-10.492
-45.872,869.128,32.696
40.992,648.796,172.02
237.168,427.488,399.916
402.356,174.46,583.892
1005.28,2.684,644.16
1484.008,54.9,262.544
1469.124,160.796,55.144
1000.4,138.348,489.22
1131.916,215.452,448.472
1355.664,215.208,73.444
1431.792,257.42,38.308
1109.224,156.648,149.084
892.064,149.572,341.356
985.028,141.764,394.06
940.864,168.848,315.98
963.556,240.828,208.376
901.58,263.276,251.32
798.124,245.952,231.556
818.376,259.86,212.036
833.748,269.62,174.216
677.832,285.724,165.676
712.724,309.392,160.796
647.82,263.032,165.676
597.068,206.668,140.056
638.548,194.224,107.116
594.384,165.188,67.832
572.912,156.16,15.128
541.68,159.82,63.928
458.232,196.42,167.628
532.408,212.036,124.928
520.94,186.172,109.068
648.308,161.772,-32.208
720.288,137.372,-110.532
665.876,100.528,-51.728
560.956,56.852,92.72
598.288,34.892,137.372
804.712,8.296,50.02
924.272,70.76,-13.664
769.576,-0.488,4.636
678.32,-75.884,48.8
951.112,-69.54,-40.504
1198.04,-59.048,-113.46
1192.184,-101.26,-109.556
1206.092,-162.26,-56.852
1131.916,-231.068,-69.052
1103.856,-193.248,-91.744
1152.656,-193.736,-71.492
1202.92,-287.676,26.84
1292.712,-371.124,15.86
1313.208,-384.056,-64.66
1277.096,-352.824,-116.632
1248.792,-366.732,-40.748
1446.432,-505.568,80.276
1611.62,-565.836,114.436
1677.988,-495.32,62.464
1639.192,-377.224,76.86
1669.692,-352.824,116.632
1661.396,-430.66,188.856
1743.624,-431.148,293.776
1749.968,-342.088,194.956
1506.212,-245.464,110.044
1537.2,-220.088,54.656
1734.352,-258.884,31.476
1778.516,-332.328,-31.72
1600.884,-422.852,73.444
1407.148,-469.7,192.272
1498.16,-418.704,85.888
1516.948,-474.58,16.592
1427.156,-524.356,104.432
1353.224,-527.04,237.168
1222.44,-574.864,356.24
1206.092,-583.404,416.02
1301.008,-497.516,355.996
1241.228,-507.764,359.168
1219.024,-533.872,529.968
1095.072,-566.812,650.26
900.116,-571.204,627.08
1077.016,-461.648,606.828
1023.58,-398.94,487.268
1069.696,-302.56,379.176
935.008,-304.756,387.472
803.004,-251.32,366.488
727.608,-184.464,320.86
788.608,-112.484,317.2
696.62,-62.708,215.452
575.108,19.032,119.804
560.712,65.88,170.556
396.988,117.608,177.632
411.14,137.86,150.548
439.932,188.612,111.996
308.66,226.188,112.972
347.944,286.212,69.784
357.704,326.228,21.716
482.144,357.216,-53.192
554.124,328.912,-2.44
520.94,346.968,-0.244
585.6,383.568,-37.82
852.048,387.472,-104.676
963.556,441.152,-231.556
569.74,367.22,-72.224
783.728,411.628,86.62
1067.744,380.884,114.924
1060.668,430.66,33.428
778.604,457.744,0.732
798.856,593.164,-119.072
917.928,673.196,-149.572
1129.232,629.276,100.528
981.856,449.448,474.58
782.264,456.524,416.02
768.356,576.328,39.772
629.764,653.188,-149.328
112.24,725.656,-91.012
-264.496,880.596,-114.68
-448.228,962.824,-5.368
-297.192,923.052,73.2
-136.152,875.716,96.38
-226.188,892.552,116.388
-325.496,883.28,105.408
-311.588,847.168,57.34
-368.196,848.144,92.72
-358.192,847.412,89.304
-285.724,906.948,21.96
-367.464,1015.284,-40.26
-380.884,1093.852,-91.988
-302.072,1042.856,-90.036
-261.08,1032.852,-28.548
-153.72,1064.816,-53.192
-122.0,1066.28,-6.832
-105.896,1056.032,37.332
8.784,1079.944,-55.876
-37.332,1062.132,-22.448
-36.112,1015.528,24.888
-36.112,970.388,70.76
-40.26,930.616,149.572
-41.48,903.044,175.68
2.44,926.712,103.456
-30.256,926.712,102.968
-35.38,925.98,131.272
-34.16,935.74,161.528
-35.38,944.768,193.736
-14.64,932.08,201.544
9.516,924.272,175.436
-24.156,912.316,184.952
-36.356,920.856,191.784
-17.812,925.736,185.196
27.328,929.884,170.556
54.9,944.768,172.508
66.856,966.24,120.78
37.332,995.276,93.452
4.636,1004.792,96.38
18.056,986.98,136.152
41.968,980.392,196.908
102.724,990.64,176.656
124.928,999.668,116.876
78.568,1010.648,97.356
72.224,1008.94,85.156
47.092,988.444,122.0
69.296,966.484,131.028
96.38,929.152,181.536
87.108,943.304,221.552
102.968,959.896,204.472
120.536,1016.992,100.04
65.392,1068.964,10.248
-15.86,1069.208,44.408
-47.824,1002.352,111.508
52.46,919.636,174.704
173.972,889.624,225.456
165.432,910.852,255.712
130.052,936.96,203.252
151.524,962.58,78.08
138.104,959.164,67.832
166.408,953.064,73.444
221.796,980.148,44.896
195.2,1006.988,6.832
142.252,976.244,2.928
148.108,947.208,-2.928
127.856,954.528,47.58
166.408,981.612,44.408
240.34,1002.108,-66.612
226.432,972.584,-58.804
180.804,980.148,30.988
221.796,972.828,58.316
234.972,963.8,64.416
270.596,957.7,-2.928
293.044,999.668,-177.144
201.788,1019.188,-206.912
110.044,996.008,-103.212
158.844,936.96,-59.536
231.312,932.08,-42.212
219.112,928.908,18.788
210.084,946.476,3.904
235.216,957.212,-77.104
239.12,974.78,-99.552
220.332,962.092,-49.044
215.208,979.904,-46.848
211.548,974.78,-36.356
221.064,955.26,-19.276
253.76,956.968,-37.088
284.504,996.984,-101.748
291.58,1042.368,-105.164
339.404,1081.652,-145.668
348.188,1065.304,-90.28
341.844,997.96,-15.128
414.312,934.764,85.4
414.312,910.608,172.264
275.72,914.756,295.728
184.464,880.352,377.224
124.196,902.312,239.12
122.244,960.14,-21.228
136.64,1094.584,-311.588
211.548,1193.892,-522.404
272.06,1251.72,-589.748
235.216,1171.2,-396.5
274.744,1027.972,-96.624
247.904,930.86,173.484
320.616,874.252,230.092
338.428,921.832,168.116
307.196,963.8,81.984
282.796,1006.744,-53.436
246.684,1017.968,-63.196
234.728,961.604,26.352
229.36,903.776,124.684
267.668,942.816,56.12
279.136,1005.28,-24.644
245.708,995.276,1.22
230.092,951.356,47.336
187.392,916.952,101.748
186.416,934.276,80.52
255.956,955.26,27.328
322.08,963.312,-7.564
310.856,984.052,-30.988
251.076,988.444,5.124
244.976,971.12,50.02
246.196,961.36,55.876
363.316,983.076,-8.296
370.88,1005.768,-17.568
314.76,1000.644,16.592
262.544,991.86,21.228
283.528,986.736,12.2
382.592,983.808,-6.1
402.356,968.436,6.588
389.424,952.332,3.172
298.412,929.884,35.868
228.14,904.996,73.2
197.152,894.504,63.928
259.86,924.028,16.104
328.424,951.112,-54.168
268.156,953.552,-61.732
189.588,980.148,-35.136
154.452,949.404,-33.428
-112.728,979.66,-35.868
-741.516,1001.62,-71.98
-575.352,513.132,-85.644
545.34,108.58,62.464
1011.38,149.572,336.232
1399.34,288.164,440.42
1551.84,312.808,-101.26
1191.452,376.492,-373.808
1192.428,339.16,-52.704
991.372,243.268,97.356
1148.264,246.928,31.476
1237.812,296.948,77.348
1111.908,350.628,92.964
747.86,336.476,135.42
690.52,370.88,208.62
726.144,350.14,71.98
744.932,327.204,47.824
784.46,320.372,76.86
624.884,274.988,52.948
560.468,277.428,86.62
537.532,284.26,27.084
567.544,230.092,-50.02
646.356,110.044,2.196
771.528,17.568,26.84
769.332,-0.976,45.14
682.712,2.684,144.448
712.968,-37.576,143.228
848.388,-107.36,61.732
971.12,-192.76,26.352
1036.268,-256.444,65.392
992.104,-332.328,148.352
969.168,-294.02,190.076
980.88,-323.056,77.836
1054.568,-368.196,63.928
1127.524,-387.472,41.968
1232.932,-378.444,11.712
1124.596,-476.044,12.2
1016.016,-507.276,106.14
1284.172,-462.868,7.564
1352.98,-457.012,18.544
1310.524,-455.304,23.18
1047.248,-430.66,-0.976
963.068,-382.348,-17.568
965.02,-385.032,42.456
1090.924,-423.828,110.044
1110.2,-456.768,181.536
1042.124,-456.28,185.928
1067.988,-446.032,151.768
1164.368,-473.116,152.5
1363.96,-468.236,115.412
1469.368,-478.484,64.904
1366.644,-531.92,184.464
1290.516,-533.872,269.62
1280.024,-495.564,247.904
1226.1,-478.24,158.844
1294.908,-442.372,20.984
1282.464,-393.816,-128.1
993.08,-404.308,-101.504
1171.444,-409.188,-69.784
1246.108,-433.588,38.552
1141.92,-486.78,163.48
1196.332,-484.584,160.064
1169.492,-455.548,107.36
1171.2,-433.588,111.02
1237.324,-442.86,127.856
1215.852,-466.284,148.108
1277.34,-456.28,186.904
1222.684,-486.78,235.46
1128.256,-476.044,296.46
1227.808,-485.072,271.328
1317.356,-419.436,188.124
1315.648,-441.152,94.672
1311.256,-404.552,125.904
1303.204,-388.936,169.824
1184.864,-421.632,170.556
1185.596,-368.684,159.82
1155.584,-344.772,206.912
1059.448,-347.212,235.46
1013.088,-313.54,211.792
1053.348,-311.832,175.436
894.26,-257.664,219.844
921.588,-191.784,192.272
961.604,-159.332,124.928
882.792,-96.624,112.972
856.44,-67.832,151.28
793.488,-66.856,162.992
807.64,1.708,82.96
824.72,100.528,-46.848
879.864,112.972,-42.456
715.164,76.372,98.332
704.428,148.352,124.196
633.18,181.292,57.096
594.14,233.996,-33.672
643.916,298.168,-80.032
601.216,268.644,20.008
573.644,247.66,89.548
651.968,267.668,37.088
834.968,317.2,-49.532
955.26,332.572,1.708
1149.24,301.096,24.156
915.976,215.696,167.14
870.592,263.032,207.644
810.568,321.592,137.372
913.048,427.0,-41.724
1043.344,487.756,-128.588
930.372,499.224,-112.484
621.468,466.772,47.336
235.704,414.556,224.724
140.544,524.6,99.064
-438.956,731.268,38.552
-1177.3,1174.616,67.832
-378.932,976.244,-92.476
-186.66,846.436,-99.552
-531.676,916.22,-1.708
-387.716,856.684,-31.72
-436.516,853.512,-3.66
-431.148,854.732,-0.488
-230.58,908.412,-134.932
-309.636,954.772,-68.32
-137.616,970.144,-109.8
-65.88,1017.48,-134.688
-134.2,1018.212,-47.336
-107.36,1005.524,-0.976
44.652,962.336,66.856
-72.712,963.312,144.448
-97.844,962.824,115.168
-80.032,972.096,41.968
-137.372,974.292,14.152
-180.804,964.288,21.228
-175.192,949.404,25.132
-42.212,977.708,-70.272
-44.164,1013.576,-122.732
-35.868,1020.652,-114.68
19.032,1030.9,-114.924
-29.768,1018.944,-20.252
-21.472,988.444,24.888
37.332,972.096,80.52
-18.056,952.82,148.108
-60.024,954.284,140.056
-79.788,976.976,127.368
-66.124,976.488,92.964
-59.78,985.272,63.196
-16.592,1006.012,-0.976
14.152,1023.824,-57.34
8.296,1043.344,-68.564
-23.18,1034.56,-28.548
-5.124,995.032,40.016
-1.22,975.024,122.0
-8.784,949.16,142.496
-36.356,939.888,133.956
-32.208,938.424,87.352
-60.756,958.188,37.82
-55.388,972.096,7.808
-56.608,988.444,-1.952
-43.432,989.908,31.964
-20.008,974.048,87.84
-15.128,968.924,123.22
15.372,980.148,100.284
38.064,990.396,71.004
22.936,980.88,85.156
17.324,978.196,81.008
-3.416,962.824,107.116
-26.352,932.08,152.988
-30.012,914.512,168.116
6.344,903.288,142.984
0.732,918.416,139.568
-5.856,930.616,145.912
3.904,942.572,150.06
15.128,947.452,159.088
79.056,932.568,175.192
151.768,924.516,211.06
114.192,935.984,215.696
97.112,959.408,137.372
89.304,991.372,94.184
85.156,1005.036,76.128
113.216,1000.888,79.056
53.924,983.32,146.156
23.912,968.924,228.872
112.728,940.62,245.22
205.448,926.712,216.184
272.304,980.148,121.756
216.184,1028.948,88.328
192.272,1017.48,115.168
211.792,984.296,161.772
232.288,952.576,190.076
262.3,947.696,145.668
237.412,961.604,101.504
229.36,1004.548,0.488
229.604,1029.68,-78.324
234.728,1022.116,-58.316
226.188,993.324,4.392
192.028,961.116,72.712
192.272,965.752,79.056
241.804,995.276,36.112
255.712,993.08,33.672
230.336,983.564,43.432
244.732,983.32,51.728
234.24,931.836,132.248
250.588,904.264,146.888
316.956,940.132,11.712
363.316,1001.864,-124.684
329.644,1042.368,-128.588
283.04,1023.58,-56.364
285.968,963.556,9.76
279.624,927.444,48.8
282.308,961.604,-7.808
335.744,1000.888,-124.928
351.848,1001.62,-149.328
300.608,983.808,-117.12
259.86,971.364,-107.36
269.376,977.952,-113.216
335.256,994.544,-140.056
352.092,993.568,-155.184
294.508,997.228,-165.92
267.912,1014.552,-191.54
308.904,1038.952,-212.768
335.256,1021.384,-156.16
321.348,973.316,-63.44
324.276,947.696,-17.08
318.664,925.98,-32.452
259.616,942.328,-46.116
210.084,995.032,-92.72
246.196,1004.792,-140.544
202.032,1027.728,-92.232
234.972,1020.652,-73.444
250.588,1027.24,-16.348
280.112,1003.084,40.504
335.744,958.676,54.168
337.696,935.008,24.4
291.092,962.824,-28.548
245.708,977.952,-62.464
253.272,975.268,-72.712
227.408,985.516,-49.044
207.888,964.044,24.4
248.636,921.588,86.132
290.604,903.044,90.768
310.368,909.876,66.368
316.468,944.28,16.104
261.08,959.408,-0.488
250.344,940.376,8.784
266.692,932.812,16.836
258.396,940.376,20.984
273.768,936.472,5.124
278.404,916.22,27.816
236.924,921.588,48.068
185.196,944.28,41.48
256.688,953.064,9.516
248.392,956.48,3.416
216.916,978.44,2.44
195.444,1015.284,-23.668
128.832,1050.176,-46.36
-38.308,1017.968,-20.008
-39.04,973.804,15.616
102.724,882.304,30.012
47.824,760.548,123.952
180.316,513.376,222.04
335.256,350.14,371.368
675.148,143.228,461.16
1221.708,111.264,172.264
1517.68,165.676,-16.348
1491.328,168.116,50.264
1143.14,97.844,106.384
1193.404,157.136,19.276
1258.796,101.748,33.916
1260.748,81.984,74.42
1347.856,75.396,142.496
1117.52,13.664,287.432
1098.0,19.032,283.528
1052.86,52.216,189.588
1027.24,87.352,189.588
1000.888,51.484,202.032
905.728,18.544,251.808
873.764,40.992,249.368
858.636,71.248,208.376
845.948,96.624,186.904
811.056,108.092,162.016
723.46,113.46,146.888
596.824,121.268,171.532
653.432,134.444,138.104
624.64,129.076,89.06
655.872,128.344,39.772
538.02,58.804,117.12
529.724,14.64,169.824
540.948,0.488,176.9
592.92,-27.084,146.888
552.416,-68.32,159.82
458.72,-146.888,207.888
604.632,-192.028,222.284
731.024,-213.012,109.556
836.676,-197.884,63.928
613.904,-262.788,95.16
540.948,-304.756,140.788
1024.312,-318.42,47.58
1152.412,-377.468,-50.264
1219.756,-401.868,-110.532
1146.312,-498.736,-23.424
1014.064,-507.032,33.916
1115.812,-426.268,-110.532
1188.28,-492.148,-172.996
1206.336,-577.792,-87.596
1110.932,-612.928,-9.76
1116.788,-540.704,-35.38
1168.516,-608.048,-71.248
1391.288,-634.644,-120.292
1764.12,-501.42,-271.572
1687.504,-539.728,-253.516
1769.976,-551.928,-256.688
1973.96,-647.576,-164.7
2246.996,-754.936,-53.68
2328.492,-803.98,-93.696
2632.028,-856.196,91.012
2610.312,-945.256,430.904
2508.076,-1010.892,620.492
2401.204,-1045.296,561.2
1928.82,-1049.444,618.052
1586.488,-981.612,665.632
1426.912,-837.164,615.856
1421.544,-810.568,527.528
1254.648,-805.932,405.04
995.52,-698.084,388.936
867.176,-652.456,419.68
779.58,-557.54,435.052
657.824,-518.744,371.612
120.292,-414.556,419.192
416.996,-243.024,334.768
349.652,-177.876,241.56
407.968,-96.136,159.576
338.428,-31.476,130.052
-135.42,-8.296,112.728
110.532,252.54,62.708
215.208,191.296,193.492
213.256,312.32,218.868
790.56,346.724,-95.648
466.528,165.432,135.664
-138.104,208.376,220.332
-103.7,498.492,-197.396
0.244,477.752,-103.456
-47.58,542.9,41.236
-751.764,781.532,69.54
-911.584,1026.996,-121.024
-199.348,945.256,-183.0
-220.332,940.132,-43.92
-268.888,898.408,-23.424
-285.968,860.344,60.756
-220.576,840.092,66.124
-117.608,925.248,-90.768
-170.312,984.052,-156.404
-228.14,967.216,-61.244
-215.94,905.24,54.412
-144.448,921.344,28.304
-144.204,961.116,-33.184
-106.14,1019.676,-94.184
-151.768,1028.948,-91.256
-137.128,1000.888,-35.624
-90.524,1002.596,-13.908
-147.376,1012.112,-18.544
-152.256,1012.356,-35.136
-73.2,1002.84,-33.184
-73.2,996.496,6.344
-73.2,974.78,80.276
-30.988,954.284,132.248
-51.24,942.572,133.956
-85.644,989.908,31.476
-88.816,1023.58,-52.704
-119.072,1002.108,-7.32
-135.176,961.116,36.844
-180.316,947.208,71.98
-120.78,969.168,13.664
-88.084,1015.528,-48.068
-111.996,993.812,-6.588
-62.464,989.42,-9.516
-12.2,1014.064,2.928
-48.556,991.86,68.808
-97.356,967.704,108.092
-87.352,990.64,52.46
-79.056,1001.376,3.416
-130.54,975.512,38.308
-131.272,970.876,56.852
-128.588,980.392,64.66
-120.048,940.132,96.136
-130.54,923.54,122.488
-66.368,967.216,51.972
-56.608,1017.236,-24.644
-75.152,1006.988,-25.132
-60.756,1000.888,-38.064
-54.656,1028.46,-41.236
-98.82,1015.04,-13.176
-110.044,988.2,4.148
-96.136,994.788,-1.464
-90.036,977.22,27.084
-98.576,944.036,84.912
-107.848,931.592,137.616
-101.992,930.372,149.328
-89.548,943.792,96.136
-84.668,969.9,33.916
-68.808,1005.524,-55.144
-96.868,1018.7,-76.372
-94.672,1012.112,-72.712
-106.872,997.96,-36.6
-111.02,974.292,18.3
-126.392,958.92,71.004
-121.268,942.816,101.992
-89.548,967.46,88.328
-68.32,962.336,119.56
-57.584,945.5,180.072
-70.516,927.688,241.56
-81.74,920.612,273.036
-100.528,929.396,276.452
-107.36,955.016,227.652
-112.728,983.32,187.88
-118.096,988.932,203.496
-123.952,974.292,223.016
-73.932,973.56,220.088
-44.164,978.44,188.368
-28.06,976.732,193.248
-9.76,970.144,221.796
-5.856,953.552,288.164
4.392,960.384,270.108
42.456,1006.988,114.192
3.172,1040.416,60.024
17.568,1062.864,23.424
40.26,1083.604,-8.052
44.164,1036.024,62.952
72.712,982.344,154.452
99.552,979.904,220.576
89.792,1025.044,191.052
112.728,1038.464,112.484
83.936,1101.172,33.916
134.444,1196.576,-61.0
168.848,1264.896,-130.54
192.272,1182.668,-44.652
218.624,1080.188,77.104
290.116,1030.9,34.648
271.328,1027.728,-75.152
306.708,1010.16,-200.812
238.388,933.544,-141.764
198.372,857.172,-159.82
119.316,842.776,-217.648
19.276,859.368,-215.94
27.816,874.984,-291.336
24.156,847.9,-310.856
-20.74,873.764,-343.064
-84.424,928.908,-338.428
-59.292,942.816,-326.228
4.88,956.48,-352.092
18.056,976.488,-325.496
-10.492,975.756,-273.28
-7.32,960.872,-264.252
-22.936,969.168,-258.884
-36.6,989.908,-248.148
-31.232,988.688,-255.468
-20.496,974.292,-237.9
-27.084,965.752,-199.104
-33.672,964.288,-181.292
-56.608,957.7,-154.452
-48.8,960.14,-162.504
-85.156,1013.332,-162.016
-67.588,994.3,-124.196
-59.048,989.908,-133.712
-26.84,980.636,-164.7
-23.18,986.98,-162.016
-38.308,995.032,-138.836
-25.132,992.592,-127.124
-1.952,986.98,-118.584
-13.176,995.52,-79.056
-117.608,993.812,-44.164
-98.332,1001.376,-86.62
-50.264,1028.948,-165.188
-124.44,1040.172,-191.296
-152.256,1057.252,-247.172
-209.596,1037.732,-273.524
-273.28,1008.208,-257.42
-153.232,981.124,-295.24
-171.532,923.296,-231.068
-196.42,795.928,-87.108
-101.748,631.716,37.576
-31.476,494.1,-6.588
-20.496,187.148,261.324
604.876,92.964,309.88
1087.508,-11.712,217.892
995.764,-23.912,393.816
969.412,-131.76,500.444
1135.088,-92.72,320.128
1235.128,-23.424,92.964
1476.932,-109.8,139.568
1629.188,-147.62,249.612
1462.536,-109.068,289.628
1266.36,-60.512,370.88
1262.456,-35.624,371.368
1154.364,-40.016,369.416
1088.972,-35.38,404.064
1172.664,-9.76,375.272
1078.48,34.16,345.504
1086.044,81.496,315.248
1058.472,80.52,301.584
1123.62,76.616,264.008
1070.184,75.64,260.348
1058.228,64.66,265.96
1049.444,48.556,260.104
1029.68,50.264,255.712
994.788,60.512,246.684
963.8,94.916,215.94
947.94,115.168,169.092
921.588,91.988,179.828
813.496,74.176,162.016
848.632,86.376,153.476
723.216,71.736,172.264
717.848,91.744,155.184
671.0,124.44,129.564
663.192,162.504,107.848
605.364,139.08,84.18
648.552,105.164,93.94
608.536,52.704,78.812
566.324,18.056,117.852
507.032,24.4,158.6
498.004,3.904,162.26
543.388,-29.28,94.672
598.532,-5.612,8.052
637.328,-30.5,15.86
591.212,-91.744,64.66
497.272,-136.64,162.26
540.704,-179.584,179.34
637.816,-206.668,111.02
689.056,-203.252,106.628
816.424,-235.704,-8.54
902.312,-347.456,-125.416
976.488,-413.336,-103.212
978.684,-463.6,8.54
837.652,-508.74,61.488
978.196,-545.828,35.868
1164.612,-631.472,-30.256
1407.392,-658.068,-191.784
1297.348,-636.108,-212.524
1187.792,-731.024,44.164
1298.08,-839.604,79.544
1381.772,-795.928,16.348
1327.848,-756.4,-133.712
1267.824,-758.596,-66.124
1359.812,-858.88,64.66
1390.068,-1010.16,249.368
1375.672,-997.716,196.664
1404.22,-876.692,-10.248
1443.748,-826.672,-81.984
1323.212,-853.756,19.764
1360.788,-850.584,48.556
1324.188,-867.176,46.604
1150.704,-866.688,63.928
1254.648,-839.848,97.356
1308.084,-952.088,233.508
1250.5,-970.388,318.664
1247.084,-1012.112,328.668
1169.736,-997.716,418.46
1067.256,-952.088,511.668
1215.852,-926.956,556.076
1223.172,-936.228,524.356
1211.948,-909.388,495.076
1218.048,-852.536,394.06
1136.308,-801.296,437.248
1103.856,-775.92,522.648
1080.432,-758.596,553.148
1013.088,-723.704,544.852
1008.696,-718.824,509.228
943.548,-651.724,409.432
986.004,-560.712,349.896
742.736,-549.488,377.712
793.244,-463.356,336.72
713.456,-396.012,259.128
631.96,-326.472,257.664
648.308,-273.28,181.78
553.636,-246.928,196.908
627.08,-206.18,181.048
589.26,-140.056,106.872
458.72,-68.564,107.36
422.364,10.248,89.548
361.608,45.14,74.908
444.08,89.792,95.648
414.8,104.92,92.72
422.608,133.224,93.94
500.444,189.1,29.524
628.788,188.612,-20.984
655.384,171.288,-2.196
744.444,148.352,-3.904
738.588,143.472,18.056
803.004,148.352,61.244
996.74,154.452,-5.612
1371.036,146.644,-56.608
1474.736,59.292,96.868
1437.648,45.872,9.76
1571.116,127.612,-51.972
1338.096,4.636,205.936
1234.64,26.352,278.404
1302.228,92.476,117.364
930.128,17.324,296.216
522.648,243.024,393.816
385.764,351.848,241.072
29.768,479.948,101.992
-649.772,905.24,60.512
-517.524,1079.7,22.204
-5.368,829.356,207.156
-126.392,806.664,357.46
-166.164,862.54,228.384
-120.292,936.96,39.284
-226.188,922.076,47.092
-183.0,895.236,75.152
-169.092,928.664,92.72
-131.516,1006.5,13.908
-120.78,1020.164,-13.664
-19.032,1005.036,-41.724
-54.9,995.032,18.544
-68.564,989.42,65.392
44.652,1018.7,-33.916
-14.64,1021.628,-45.628
-100.528,981.124,64.904
-63.928,953.308,97.112
21.716,914.756,69.052
106.872,933.3,29.036
119.072,989.664,30.012
117.364,987.224,79.788
86.864,978.928,165.676
51.728,960.628,202.032
71.98,971.12,176.656
105.896,993.08,102.48
60.756,1019.432,77.592
55.632,994.056,119.56
30.988,978.44,169.336
92.476,952.82,200.568
96.38,943.06,234.972
96.38,941.596,211.792
79.056,974.78,157.38
43.188,973.316,152.256
-22.936,943.792,239.364
36.6,922.564,256.444
92.232,924.028,243.756
120.78,938.912,236.436
127.612,955.016,203.496
175.192,978.684,107.848
182.268,993.08,110.288
226.676,1005.768,131.272
160.552,973.316,205.448
208.864,952.332,220.576
190.076,967.704,244.732
257.176,996.984,175.68
224.48,1025.532,159.332
198.86,1033.096,155.672
224.724,1057.984,117.852
199.836,1044.076,134.444
212.524,1017.724,153.476
183.488,1010.892,146.4
174.216,999.668,165.92
227.164,1004.792,124.44
291.58,1016.992,55.144
315.98,1049.932,-45.384
210.572,1058.96,-56.364
170.312,1014.064,-4.392
163.48,966.24,36.844
229.848,966.728,-51.728
226.676,980.392,-116.632
162.016,957.456,-107.848
128.344,938.18,-91.5
124.44,980.88,-172.02
101.26,1033.096,-249.368
97.356,1004.548,-205.692
84.668,921.832,-90.036
129.564,920.856,-113.948
139.812,938.668,-130.54
99.552,936.228,-119.072
93.94,963.556,-190.564
64.66,1001.132,-218.136
15.86,1003.328,-166.896
54.9,983.076,-163.236
108.824,977.464,-172.02
65.148,1013.088,-163.236
50.752,1029.192,-216.672
24.156,1005.768,-212.28
23.668,996.496,-160.064
29.768,1006.5,-145.18
50.508,1002.84,-138.104
-0.976,1003.328,-111.996
-29.28,1018.944,-93.208
-22.448,1045.784,-120.536
-63.928,1036.024,-112.484
-86.376,1017.48,-87.84
-121.024,1021.14,-55.876
-179.096,1009.184,-46.116
-239.364,1007.476,-81.252
-152.012,999.424,-162.26
-54.168,931.592,-221.796
-217.16,725.656,-85.888
204.228,470.432,153.232
651.236,282.552,316.468
869.86,199.836,443.592
1370.304,243.268,229.848
1403.976,237.9,38.308
1012.844,182.024,236.192
1214.144,256.932,166.164
1287.588,196.664,-81.008
1187.304,122.732,227.896
1229.272,58.316,402.356
1044.076,25.864,351.116
1133.136,131.516,298.9
1013.82,163.968,217.16
937.204,167.14,375.272
1004.304,153.964,351.604
954.772,134.932,284.26
1002.108,198.616,254.004
903.288,250.832,164.7
818.62,273.524,153.964
853.024,282.064,84.18
678.076,263.032,117.608
565.592,261.324,146.4
432.368,253.028,158.6
412.604,225.7,151.036
322.812,125.172,137.128
534.36,63.44,96.38
764.696,47.58,24.156
847.656,121.268,-29.28
803.98,104.432,-38.796
665.388,0.732,29.768
465.796,-45.628,200.568
504.348,-158.844,262.3
763.232,-212.036,105.164
807.64,-188.612,-40.992
728.096,-101.748,-85.888
570.472,-188.856,42.7
743.712,-292.8,-26.352
909.388,-332.328,-120.536
912.56,-270.352,-115.9
982.588,-360.388,-91.012
1399.096,-427.976,-316.224
1548.668,-468.968,-367.464
1495.964,-511.18,-304.024
1579.9,-553.392,-297.192
1581.12,-650.26,-167.14
1751.676,-680.272,-172.752
1821.46,-741.76,-111.508
1751.432,-800.32,9.272
1747.284,-756.888,10.98
1703.852,-739.564,-19.276
1670.18,-778.36,-72.712
1736.304,-742.248,-112.728
1550.376,-794.952,72.956
1411.052,-786.9,235.704
1383.968,-763.72,323.3
1331.02,-743.468,370.392
1381.528,-689.3,341.844
1395.436,-606.584,230.092
1334.68,-568.764,241.072
1242.936,-557.296,254.492
1224.392,-506.3,319.396
1134.112,-526.064,343.064
1055.3,-495.808,270.108
1002.596,-429.684,289.628
814.472,-367.464,304.756
878.888,-316.956,254.004
746.152,-273.524,207.156
667.584,-172.752,184.952
661.728,-81.496,111.752
538.264,-46.604,88.572
424.072,29.28,116.388
391.132,97.844,146.4
334.036,154.208,147.132
562.908,168.116,108.58
645.136,155.916,16.348
702.232,211.304,0.244
799.588,189.344,44.896
736.392,193.98,34.404
773.724,205.692,52.216
731.756,199.348,98.576
810.812,192.028,114.68
879.376,158.6,79.056
968.924,160.064,60.268
938.424,203.74,78.324
883.28,189.832,73.688
897.188,201.788,80.276
1007.964,230.092,66.124
966.728,229.116,59.048
898.164,243.024,69.54
986.492,249.124,104.188
1091.412,284.504,88.816
1369.084,287.432,38.064
1277.828,212.036,80.276
1094.584,184.952,199.836
1155.096,242.78,251.564
1159.976,254.248,166.164
1183.888,304.756,73.932
1010.892,281.576,175.436
860.588,373.32,289.14
930.86,415.288,124.196
877.424,391.864,-90.768
462.624,491.172,38.064
-467.26,750.3,254.736
-507.032,1016.748,195.444
273.768,845.216,-12.2
-15.128,810.324,210.328
-156.16,754.692,252.784
-185.928,803.98,129.808
-218.136,912.804,6.832
-207.4,1013.332,-91.988
-231.312,1068.476,-116.144
-199.104,1021.384,-72.712
-116.876,1075.796,-69.54
-120.536,1062.376,33.184
-2.928,1027.972,11.956
-150.548,1033.096,105.408
-144.936,1028.704,68.32
-47.336,1120.448,-183.976
-119.56,1109.712,-173.484
10.492,1063.596,-214.476
16.592,1048.956,-155.428
-28.792,1014.552,7.32
-9.028,979.172,101.26
-30.5,939.4,183.0
10.248,934.52,135.664
0.244,931.836,134.2
-15.616,938.668,144.204
-26.108,941.352,178.852
-23.18,980.88,128.588
-16.104,1014.796,79.056
-13.664,986.492,75.884
-29.768,963.312,131.272
-15.372,943.06,186.416
5.856,956.236,164.456
34.404,965.264,154.208
19.276,956.236,184.708
49.776,926.956,233.508
91.256,947.208,239.12
58.56,960.384,243.756
16.348,996.008,227.896
98.82,1032.608,110.288
131.272,1047.98,89.304
107.36,1025.044,165.92
91.012,958.432,263.52
127.856,965.508,286.7
96.136,955.016,329.4
61.488,979.172,304.512
164.212,977.708,189.1
193.736,999.424,102.724
129.564,1066.28,22.448
44.652,1128.256,-53.68
128.588,1120.448,-116.388
124.196,1079.456,-42.456
53.192,1097.268,-45.872
163.236,1109.712,-140.3
117.608,1049.2,-44.652
68.564,1043.1,2.928
182.756,1057.984,-112.728
215.452,1060.668,-161.284
251.564,1037.244,-179.584
106.628,995.276,-56.608
115.168,978.196,-63.44
128.588,962.824,-102.48
38.308,932.324,-95.16
-34.404,941.596,-162.26
-130.784,959.652,-253.516
-87.84,946.964,-355.752
-22.448,887.916,-283.528
-33.916,880.108,-153.476
15.86,912.56,-166.896
-17.08,937.936,-214.476
-56.12,917.684,-156.16
-15.128,900.116,-134.688
-27.572,912.316,-152.988
-62.952,959.896,-182.024
-88.084,948.184,-113.948
-84.424,926.956,-72.712
-35.136,955.992,-135.176
-34.648,982.588,-150.792
-22.204,987.468,-121.024
-7.32,991.128,-94.672
11.956,1024.556,-115.9
1.464,1024.068,-104.432
-2.196,994.788,-38.796
16.104,960.872,44.408
70.272,973.072,46.36
75.884,1024.068,33.916
51.484,1066.28,22.692
2.44,1109.956,-39.772
-9.76,1099.464,-35.136
-85.156,1057.008,24.156
-33.916,1067.988,1.464
-12.932,1070.916,-49.044
-90.28,1047.492,-3.904
-202.032,1021.14,15.616
-256.2,1030.9,-41.48
-167.384,983.32,-152.012
-192.028,833.992,-63.928
6.344,714.188,10.492
69.052,652.944,81.496
-144.936,567.544,152.012
85.4,425.048,194.224
653.188,378.688,26.352
701.744,314.516,180.072
804.712,329.156,146.4
757.864,198.372,201.788
888.404,226.92,244.244
952.088,176.9,43.432
946.964,152.744,60.512
904.508,128.344,217.404
868.64,168.848,130.54
582.916,65.392,278.16
692.472,105.652,245.464
823.988,62.952,69.54
804.224,29.768,80.032
645.136,-33.916,152.012
465.064,-69.296,223.26
526.064,-64.66,337.208
804.956,-131.76,129.076
896.456,-149.572,-57.34
889.136,-140.788,-37.82
866.688,-158.844,48.8
934.764,-252.784,-33.916
935.496,-313.784,-88.084
943.792,-306.464,-115.412
907.68,-310.612,-203.252
949.648,-366.488,-208.62
1077.504,-451.156,-284.016
1042.368,-442.372,-276.452
1116.544,-350.628,-203.984
1339.072,-384.3,-202.032
1555.256,-455.304,-262.056
1723.372,-486.536,-383.568
1855.132,-531.92,-371.612
1905.884,-706.136,-106.872
1846.592,-883.768,196.908
1895.392,-882.06,356.484
1866.356,-832.528,313.296
1901.98,-832.04,347.944
1808.528,-880.596,560.712
1800.964,-911.584,618.052
1796.816,-915.976,704.916
1696.044,-892.796,846.924
1726.056,-848.876,725.656
1651.88,-794.952,589.016
1495.72,-734.44,615.612
1317.112,-680.76,601.216
1311.988,-601.46,441.396
1146.8,-575.108,341.844
998.204,-473.36,305.488
911.096,-428.952,205.936
664.412,-393.084,278.892
647.576,-262.788,225.944
686.372,-184.464,154.452
534.848,-163.724,125.904
324.032,-78.08,138.836
450.668,-1.22,178.608
369.904,40.992,77.104
196.664,127.368,82.716
403.576,207.888,89.304
263.52,187.148,41.968
394.548,252.784,45.628
536.8,278.892,-7.076
513.864,275.964,-5.368
670.756,329.644,-31.232
661.728,307.44,-1.464
686.86,265.716,48.068
740.54,294.264,-10.248
891.82,318.664,-17.08
830.332,284.016,6.344
970.632,270.84,75.884
1258.796,308.416,13.176
1543.544,292.8,12.688
1479.616,172.264,213.5
1394.216,136.396,199.592
1367.132,150.548,129.076
1155.584,143.96,226.676
1009.672,266.448,231.556
930.372,358.192,188.612
579.988,419.436,256.444
-62.22,580.72,388.204
-250.832,745.664,151.036
-357.948,926.224,-18.3
-219.356,1028.46,14.396
10.248,977.464,17.324
-242.048,885.232,213.5
-223.992,852.78,98.82
-287.676,853.268,23.18
-378.2,895.48,-56.12
-480.68,921.1,-21.716
-287.676,920.368,-63.928
-231.068,942.816,-27.084
-226.188,927.2,89.06
-34.16,949.892,41.968
52.46,1000.4,-63.44
-38.552,1019.188,-42.7
9.028,1007.72,-58.316
76.128,1015.284,-146.4
-74.664,977.708,-29.768
-40.26,912.56,14.396
-6.344,887.916,52.46
-24.888,886.208,83.448
-11.956,878.4,75.884
48.312,901.336,52.216
17.568,927.688,52.704
-1.464,945.012,36.112
12.444,932.324,40.748
55.144,910.12,47.58
124.44,899.384,45.628
195.2,909.144,7.564
77.592,898.896,111.996
143.716,867.664,66.856
157.624,830.82,51.484
163.968,807.64,57.34
219.356,744.444,16.348
174.704,694.912,49.044
131.76,652.212,109.556
138.836,658.8,170.312
157.38,681.492,187.392
248.636,717.116,81.74
286.7,761.036,-27.572
272.304,785.924,-61.488
177.388,858.148,17.324
244.976,890.112,51.728
376.98,979.66,2.196
460.916,1088.972,-15.86
485.804,1226.344,-73.2
410.652,1280.756,-67.344
302.56,1255.38,6.1
184.708,1175.104,61.732
111.508,1098.244,87.352
105.652,1062.864,68.076
28.792,1097.024,99.796
-40.748,1118.984,117.364
-108.336,1107.516,134.2
-152.012,1094.34,143.716
