acc_x[mg],acc_y[mg],acc_z[mg]
57.828,996.252,28.06
60.512,988.2,36.844
62.464,983.076,34.892
74.908,981.856,32.452
79.3,988.444,18.056
85.888,993.324,20.496
75.884,994.544,18.788
69.052,988.444,34.648
65.392,981.368,36.6
60.756,978.684,37.332
68.808,977.952,33.916
80.764,985.516,6.588
67.344,998.448,29.036
34.892,1001.62,36.6
58.316,995.52,31.232
60.756,990.152,42.944
78.568,979.904,27.084
85.888,988.444,9.272
83.936,1004.06,20.496
66.368,1009.672,19.032
57.828,1004.06,46.604
61.244,994.3,45.872
73.932,980.88,33.184
84.912,973.072,17.568
65.636,989.176,21.716
66.124,997.472,24.156
52.948,981.368,43.676
46.604,967.704,41.724
60.756,975.512,40.992
52.46,982.1,34.16
70.272,978.196,17.812
78.568,992.348,20.984
77.104,996.496,21.228
86.376,995.52,21.96
74.664,996.496,41.724
67.1,996.008,43.92
61.976,989.176,45.384
67.1,982.588,43.676
62.22,988.2,27.084
61.244,994.3,32.452
56.852,996.008,27.816
61.0,993.812,34.648
67.588,990.152,35.38
81.496,980.636,15.616
75.396,983.808,16.592
70.516,992.348,13.908
63.196,989.42,10.736
62.464,985.516,28.792
72.468,979.66,17.08
66.612,983.564,31.72
64.416,987.224,35.136
57.828,989.176,46.848
54.412,989.908,63.196
78.812,987.712,43.432
78.812,997.96,39.528
73.444,1003.084,33.916
59.78,997.228,38.308
59.536,987.468,35.624
59.78,993.324,33.916
62.22,1000.156,36.356
62.708,999.912,33.672
72.468,991.86,40.992
71.004,982.588,43.676
86.132,984.052,27.816
82.228,992.348,37.576
68.32,994.788,32.208
55.144,987.468,48.312
54.656,976.488,44.652
58.804,976.244,43.188
69.052,982.1,21.472
75.396,992.592,9.516
63.684,998.692,19.52
61.244,989.42,20.008
70.516,993.08,38.552
67.344,991.128,43.92
79.3,985.272,30.012
82.716,995.276,32.94
84.18,996.008,16.104
72.712,997.472,14.396
54.168,992.104,25.376
42.7,989.908,29.524
61.0,975.512,23.18
67.832,983.076,20.984
66.856,990.396,27.084
64.66,997.96,29.036
60.756,989.908,44.164
61.244,977.22,43.432
70.028,982.832,29.768
74.664,990.152,33.916
67.344,986.98,27.572
71.492,986.004,24.156
83.448,988.932,25.376
66.856,1002.84,17.568
64.172,1004.304,20.008
54.656,996.496,19.52
67.588,983.808,25.376
65.392,984.296,29.28
66.612,985.272,38.796
67.832,990.884,30.5
65.392,989.664,37.82
60.756,989.176,31.476
71.492,990.396,30.256
66.612,985.028,30.744
61.976,990.396,23.18
72.712,994.056,23.18
53.924,991.616,24.4
62.464,986.492,25.132
55.144,989.176,28.06
63.196,988.444,29.036
54.656,986.248,37.332
61.976,979.904,36.6
66.856,982.344,25.376
70.028,992.592,30.012
61.488,997.228,28.548
70.516,988.688,33.428
75.64,988.932,26.84
72.468,996.008,30.988
60.512,994.056,27.328
69.54,989.908,26.596
64.66,989.908,33.916
62.464,982.1,24.644
58.072,988.2,31.232
55.632,989.176,33.184
58.56,980.392,27.572
67.344,985.76,38.308
67.344,990.152,44.896
76.616,988.444,33.672
71.736,986.248,39.772
75.64,982.832,29.28
67.344,990.64,26.108
49.776,995.276,40.26
50.02,997.716,34.16
50.508,991.86,39.772
78.568,980.88,22.692
89.06,993.812,12.932
69.784,998.936,29.28
54.168,994.544,38.308
61.0,984.296,50.508
64.172,976.0,45.14
74.42,984.296,25.62
85.888,993.324,12.2
65.148,1001.864,17.324
63.44,995.276,30.012
55.632,989.908,39.04
68.076,982.588,32.452
54.168,981.124,41.48
53.924,981.612,32.94
71.98,982.344,25.132
58.316,986.736,41.724
69.784,990.396,26.596
77.592,992.104,32.208
70.272,997.716,38.308
66.368,996.74,41.236
65.392,989.664,40.26
66.368,983.076,35.624
63.196,990.64,30.5
67.1,992.348,20.496
67.344,990.152,25.376
61.976,991.372,29.28
67.588,989.664,27.084
64.904,988.444,28.304
67.1,986.98,30.744
62.952,988.444,25.62
60.512,989.908,38.796
57.584,985.272,38.308
65.148,978.44,36.6
54.412,986.98,48.8
54.168,985.516,38.552
54.168,976.244,41.968
49.044,979.172,40.748
56.12,988.688,31.476
52.948,999.424,36.356
64.416,997.96,36.844
83.936,990.884,27.328
83.448,994.3,32.696
77.104,998.204,38.308
62.22,994.544,43.188
59.78,984.54,49.288
63.684,980.636,36.112
67.344,989.908,25.62
63.928,994.544,16.104
56.608,991.372,29.28
63.196,980.392,36.6
58.804,979.416,41.48
61.488,986.736,45.384
56.852,992.592,42.944
67.344,989.664,42.944
71.248,988.444,45.628
63.44,989.664,43.676
56.364,994.544,41.48
57.096,995.764,35.38
61.244,994.3,32.452
66.124,993.324,32.452
64.66,993.812,33.184
70.76,997.96,28.06
67.1,1000.4,34.404
53.68,999.668,45.14
47.336,1001.376,58.56
55.876,993.812,43.432
56.852,1002.596,38.552
45.872,1023.336,33.672
38.064,1037.244,32.208
25.62,1042.368,37.82
54.9,1043.1,11.956
81.984,1044.808,8.052
78.08,1042.856,8.54
30.5,1044.564,39.528
6.1,1035.78,58.072
-32.452,1039.928,61.732
-60.512,1066.524,63.44
-107.116,1101.416,56.364
-55.632,1128.744,14.396
-22.936,1164.124,-26.84
-18.056,1214.144,-42.7
-17.568,1191.696,-76.128
-67.832,1164.856,-76.86
-103.944,1164.612,-60.756
-156.892,1195.844,-30.988
-221.064,1247.816,-9.76
-212.524,1243.18,-31.476
-194.956,1203.896,-63.44
-111.996,1169.98,-83.204
-72.712,1169.004,-76.128
-166.652,1170.712,4.636
-256.444,1152.168,81.252
-225.212,1143.628,101.016
-56.852,1107.516,14.64
-36.6,1125.328,-19.032
-108.824,1124.108,13.176
-257.664,1075.064,89.548
-306.708,1040.66,104.432
-161.284,1014.064,47.336
0.0,982.1,-57.828
41.968,962.336,-107.848
-83.692,1002.596,-32.696
-196.176,1053.592,41.968
-186.66,1025.776,153.232
-176.9,995.52,219.112
-119.316,1024.556,209.352
-30.744,849.608,127.612
-49.044,606.828,2.196
360.144,513.132,12.688
941.84,415.044,-9.028
1033.096,147.62,-93.696
875.96,158.112,146.644
513.864,-25.62,249.368
846.924,-75.64,-168.116
785.192,34.16,34.648
982.588,17.324,46.604
955.992,-119.804,212.036
918.416,-201.544,377.712
998.692,-280.844,375.76
1126.792,-129.076,254.248
1041.636,90.036,203.496
1031.144,194.956,115.168
949.16,233.508,165.92
898.896,174.948,105.164
815.204,175.68,148.352
724.68,198.616,104.432
548.268,238.388,66.368
404.552,269.132,57.828
259.616,271.816,116.144
100.528,204.716,126.148
-0.732,172.996,91.744
-117.608,112.728,88.084
-53.192,142.74,93.452
-29.28,104.92,94.428
-214.964,27.816,187.148
74.908,-64.66,-0.732
188.856,-119.316,-88.084
339.648,-58.072,-71.248
101.748,-62.952,-16.348
203.496,-40.26,-102.968
386.984,-137.86,-224.48
414.312,-184.464,-160.552
712.968,-292.556,-151.524
802.272,-461.16,-110.532
944.036,-538.996,-195.2
909.144,-519.476,-90.524
1105.32,-681.004,-133.468
1395.924,-915.244,-280.844
1565.016,-1053.104,-384.788
1665.056,-1190.72,-386.496
1454.972,-1311.988,-103.7
1549.156,-1267.336,-22.692
1643.828,-1281.488,5.856
1778.028,-1335.9,-41.48
2078.636,-1255.624,-110.044
2165.744,-1279.536,39.04
2314.828,-1320.772,184.22
2311.168,-1368.108,361.364
2340.692,-1330.776,474.092
2143.54,-1295.64,513.864
2095.96,-1223.904,483.852
1941.264,-1230.98,527.284
1830.488,-1254.648,520.94
1759.728,-1281.0,530.7
1663.348,-1305.888,641.72
1468.636,-1323.944,686.616
1370.792,-1290.272,692.96
1188.768,-1194.38,754.448
1127.768,-1115.324,750.788
1085.312,-1066.28,713.456
923.54,-1026.02,735.172
898.408,-978.196,704.184
870.836,-901.336,700.768
831.308,-847.656,644.648
790.804,-767.868,512.888
711.504,-643.672,431.636
610.488,-579.256,345.26
507.52,-555.832,318.176
351.116,-504.348,351.36
244.488,-426.024,266.204
173.728,-281.088,165.432
132.004,-142.74,61.488
-74.664,-10.248,90.036
-140.544,96.136,29.036
23.424,209.108,-12.688
20.008,237.412,-50.996
136.884,284.992,-103.7
346.236,268.644,-166.164
409.92,261.08,-126.148
499.224,220.332,-116.632
859.612,233.752,-77.592
1327.36,86.376,-163.236
1333.46,-96.624,-196.176
1139.968,-158.6,-121.756
712.236,-137.372,14.884
382.592,28.304,16.836
380.152,179.828,-130.54
-5.856,394.304,127.612
-385.52,712.968,91.744
-940.62,1134.6,71.736
-351.36,1289.296,114.436
-108.58,1187.548,20.984
-48.312,1089.46,-71.736
-91.744,1111.176,43.92
-119.56,1133.624,104.92
47.824,1127.524,21.96
210.084,1133.624,-30.988
264.008,1109.224,-4.148
355.02,1060.18,26.352
331.596,1005.28,61.976
469.456,973.316,99.796
431.392,917.44,90.28
402.112,841.068,74.42
338.916,793.488,80.764
213.5,775.92,99.308
137.372,762.5,162.26
200.812,745.176,147.864
108.58,747.128,159.82
-4.88,771.772,259.86
-40.748,763.476,257.42
23.18,743.468,180.072
104.676,773.48,175.436
74.42,785.924,153.72
-38.552,821.06,148.352
-28.06,846.68,54.9
-29.768,893.772,63.684
74.664,925.736,79.788
12.932,938.18,78.08
-45.14,976.488,122.244
-30.5,981.856,129.32
1.708,986.492,129.564
59.292,1025.776,105.164
28.548,1068.964,119.804
49.532,1090.924,97.112
65.148,1059.448,65.392
14.396,1053.836,61.976
-5.612,1103.368,65.88
-48.312,1097.756,102.48
-74.176,1064.816,76.86
-52.948,1061.156,51.972
-77.104,1098.488,-19.276
-133.956,1087.752,-58.804
-111.02,1084.58,-21.472
18.544,1074.332,-59.292
8.54,1071.404,-71.004
-0.976,1055.788,0.0
13.176,1037.244,-30.5
22.448,1031.876,-59.536
101.992,1059.936,-72.224
142.008,1073.356,-130.784
89.06,1079.7,-100.284
-40.992,1087.508,-16.104
-90.524,1083.36,9.272
-94.672,1068.476,56.852
-24.644,1034.56,19.764
103.212,1019.92,-117.12
138.104,1081.408,-181.048
131.516,1143.872,-244.0
67.832,1149.484,-196.176
83.936,1112.152,-122.976
117.12,1063.108,-57.828
77.836,1047.736,-10.248
63.684,1053.104,-1.22
19.764,1052.128,3.416
39.528,1023.58,-7.564
105.408,1029.192,-67.1
155.672,1046.028,-104.188
141.764,1052.128,-31.476
100.284,1017.236,46.36
30.988,985.028,89.548
40.504,974.048,100.772
41.724,986.004,66.612
51.728,1000.888,1.22
51.972,1015.284,-47.092
51.24,1028.46,-67.1
62.708,1024.556,-82.716
55.144,1015.528,-53.924
62.708,999.18,-28.792
43.676,982.832,7.808
58.072,1003.816,28.548
92.232,1017.236,18.056
85.4,1008.208,25.376
113.46,997.472,14.884
131.516,988.444,16.348
95.648,968.192,45.384
75.64,961.116,59.536
51.972,961.116,64.66
38.308,958.92,86.864
19.52,968.68,103.212
13.664,961.604,96.38
56.608,958.92,65.636
117.364,986.248,-7.564
131.272,1018.456,-9.272
122.244,1027.484,-0.976
102.236,1012.844,32.208
90.28,998.692,65.88
70.272,986.492,69.54
72.712,976.976,57.828
81.008,978.928,46.36
84.912,991.372,38.796
70.76,1003.328,40.26
72.712,1014.308,27.816
74.42,1010.892,31.964
56.364,998.936,40.016
93.208,978.928,30.256
98.82,979.904,21.228
90.036,998.448,22.448
88.328,1024.8,18.3
71.248,1022.604,38.552
46.604,1020.408,65.88
56.608,1043.344,66.368
69.052,1082.384,64.904
27.084,1139.724,53.68
1.708,1227.808,66.612
-47.092,1285.636,104.432
-23.424,1261.968,128.1
-34.648,1281.732,140.544
-32.94,1293.2,123.22
-76.128,1282.464,137.86
-144.204,1248.304,136.152
-226.92,1233.908,144.204
-177.144,1212.436,86.376
-131.028,1223.66,40.504
-182.756,1221.708,87.596
-164.7,1185.108,110.776
-168.116,1161.684,137.128
-234.484,1148.02,193.736
-198.128,1092.388,182.756
-108.824,1049.688,137.372
-77.836,1052.128,80.032
-161.772,1077.992,105.896
-187.636,1024.312,184.708
-216.916,954.772,175.436
-194.468,933.056,79.788
-42.7,992.348,-63.928
-119.56,976.244,-57.828
-54.9,874.252,-24.888
90.036,762.744,-60.756
139.812,732.976,-43.188
105.164,793.732,-10.004
-20.984,796.904,15.372
-127.368,788.364,-26.108
-49.532,813.984,-104.432
40.504,925.736,-185.196
-8.784,997.716,-177.144
-295.728,970.388,-79.544
-422.364,936.716,17.324
-68.076,801.052,85.888
135.664,610.244,125.416
360.632,450.18,206.912
615.368,232.288,207.156
1054.568,219.6,11.468
1203.408,224.48,-29.036
1322.48,235.948,-6.344
1193.16,126.88,-17.324
1051.884,132.004,27.084
976.244,174.46,34.892
770.308,273.524,73.688
642.94,277.428,25.376
491.416,192.272,94.672
488.976,126.392,18.544
418.46,152.012,41.968
80.764,222.04,41.236
-0.732,295.24,25.376
-4.392,254.248,-13.664
-137.616,105.896,25.376
-255.956,18.788,122.488
-454.816,-77.836,248.636
-261.568,-145.912,228.872
-0.976,-117.12,222.04
180.316,-274.5,27.084
254.98,-336.476,-71.248
213.744,-316.956,-51.484
97.356,-301.096,89.548
485.56,-363.072,-44.164
812.276,-427.488,-359.656
681.004,-493.368,-347.212
681.98,-635.376,-339.648
426.512,-720.044,23.912
1289.296,-953.064,-492.392
1532.076,-1178.276,-556.076
1721.42,-1329.8,-538.996
1554.524,-1440.332,-349.408
1899.54,-1540.616,-252.784
2204.784,-1732.156,-110.044
2470.744,-1777.052,-168.848
2465.864,-1707.512,-27.084
2539.308,-1654.808,314.028
2433.168,-1663.348,582.916
2542.236,-1563.552,729.316
2422.676,-1543.3,768.112
2401.692,-1464.0,799.1
2294.576,-1508.164,813.252
2015.684,-1579.412,864.98
1711.416,-1603.324,908.656
1517.436,-1564.04,932.568
1281.976,-1494.744,895.724
1210.484,-1387.384,753.716
1087.996,-1302.96,655.14
890.6,-1105.32,613.66
870.836,-1036.024,555.832
881.816,-1045.296,474.092
779.58,-993.812,458.232
607.316,-930.86,473.604
506.056,-846.436,480.192
394.06,-823.744,425.048
452.864,-704.672,337.696
356.972,-615.368,356.484
219.844,-498.004,319.64
203.984,-368.44,217.16
54.9,-216.916,176.9
138.104,-26.352,106.384
141.52,34.892,-2.684
254.004,115.168,-31.476
296.46,152.256,-56.12
306.708,214.232,-31.72
416.752,198.372,-57.828
478.484,148.352,-68.808
487.268,149.816,-77.836
545.828,134.932,-35.38
733.708,38.796,26.352
791.536,-81.984,79.788
793.488,-97.356,194.956
693.448,-81.984,199.104
640.256,-79.544,210.572
704.184,-44.652,102.968
911.34,-24.156,79.3
1071.404,15.372,78.812
893.528,-80.276,164.212
673.684,-96.868,92.232
685.152,64.904,-44.408
654.652,246.684,26.596
662.46,358.192,43.92
694.668,420.168,30.5
467.748,469.944,242.536
384.3,566.324,221.552
356.24,676.612,69.54
344.04,818.62,-14.396
301.096,975.512,20.496
201.3,1013.332,114.192
126.88,988.688,119.804
137.128,1032.852,64.172
91.256,1074.332,20.252
-52.704,1143.628,46.36
-129.808,1153.632,72.956
-181.292,1164.124,113.948
-226.676,1177.544,178.364
-211.304,1129.72,93.94
-281.576,1101.416,39.772
-373.32,1131.428,56.364
-403.576,1220.732,121.268
-220.088,1281.0,226.188
0.976,1264.896,189.344
47.336,1229.76,87.108
-177.632,1225.368,129.32
-247.66,1259.04,274.256
-98.332,1177.056,175.924
-98.332,1174.86,38.552
-82.96,1156.072,-25.864
-142.252,1116.544,-78.08
-161.528,1073.356,-93.208
-166.408,1078.236,-34.404
-148.596,1056.032,36.112
-114.924,1025.044,3.416
-61.732,1001.62,43.92
-65.392,976.244,99.796
-46.116,960.872,85.156
-42.944,988.932,65.88
62.464,1054.324,-18.544
74.176,1116.788,-31.964
82.96,1106.784,32.696
60.024,1029.192,35.136
29.28,1008.452,77.104
62.708,1014.308,145.424
85.644,1000.888,151.28
119.56,970.388,107.116
103.456,967.46,99.796
89.304,985.76,34.16
82.96,1003.572,7.808
80.52,1015.284,-2.44
50.508,1019.432,-29.768
49.532,1014.064,-14.396
48.068,984.54,16.348
2.44,953.064,56.608
-6.588,925.736,98.088
41.724,932.324,82.96
75.64,946.476,71.736
106.14,959.164,24.644
121.512,988.444,-9.028
95.16,1011.136,-1.464
62.22,1011.624,15.86
87.352,1003.328,9.028
68.564,988.444,28.304
93.452,979.172,16.104
89.548,995.032,20.252
81.252,995.032,33.428
55.632,989.176,54.656
61.976,979.904,55.876
71.98,975.512,44.652
59.048,976.732,58.56
63.44,978.928,64.416
50.02,976.0,72.956
73.444,974.048,44.408
102.236,993.568,8.296
71.736,1022.36,29.28
61.732,1027.484,40.748
57.828,1015.04,46.604
72.712,977.952,30.012
84.668,972.828,10.98
103.944,1002.596,4.392
75.152,1014.796,49.288
61.732,1003.328,65.148
88.328,991.128,32.696
89.304,989.908,31.476
93.452,991.86,42.944
54.412,981.856,51.484
32.696,966.484,68.076
43.432,965.752,42.7
39.528,980.636,37.332
41.968,984.296,19.52
52.704,979.66,14.64
62.952,989.908,19.276
58.56,1000.644,48.068
49.044,992.592,65.88
56.608,974.536,63.928
62.464,972.096,62.708
81.496,990.152,47.092
70.516,1001.376,47.336
68.076,996.008,49.044
85.644,1006.5,43.188
79.056,1003.572,50.508
67.1,984.54,44.408
64.66,988.932,49.288
53.924,989.664,51.728
43.92,984.296,50.264
70.272,988.932,37.332
75.152,992.348,42.212
77.592,991.128,32.696
69.784,990.152,42.456
63.684,986.492,53.68
59.292,980.392,63.928
64.904,966.728,56.608
57.828,978.928,57.584
64.416,989.664,51.24
55.144,994.056,52.704
60.024,988.444,52.216
75.884,977.464,40.504
64.172,980.392,30.988
65.148,991.86,23.668
49.288,999.912,36.844
45.14,997.96,53.924
40.748,974.292,62.708
80.764,961.36,22.692
93.208,992.836,32.94
69.052,1003.816,40.26
70.272,1000.4,39.04
61.0,997.472,56.12
73.2,996.008,63.44
61.244,1001.132,66.124
47.336,1046.76,69.052
55.632,1101.172,48.312
77.592,1119.716,44.408
94.672,1105.076,45.384
66.612,1080.188,59.048
62.708,1064.816,67.588
36.6,1094.584,75.884
22.204,1135.82,84.424
-23.424,1189.744,84.668
-67.588,1244.888,95.648
-90.524,1267.58,82.228
-142.496,1282.708,59.536
-178.364,1311.988,40.748
-201.056,1382.748,8.052
-181.048,1392.02,-40.748
-212.524,1364.204,-63.684
-330.62,1361.52,-26.596
-357.704,1353.712,28.548
-357.46,1298.812,9.76
-333.792,1319.308,65.88
-234.484,1278.316,129.076
-375.76,1222.684,197.64
-485.072,1262.7,258.64
-357.46,1220.0,278.648
-214.476,1117.032,232.776
-182.268,1048.224,196.664
-91.988,1017.48,133.224
-315.736,948.184,183.488
-95.404,937.692,229.604
162.748,792.024,101.748
-66.856,740.052,67.1
-236.924,808.616,62.952
-120.536,605.364,78.324
130.296,513.376,111.02
244.732,215.94,187.148
743.956,20.252,30.744
523.868,-147.864,206.424
706.868,-121.268,152.256
791.536,-119.316,-142.252
908.656,-98.088,-17.08
1062.132,-181.78,-10.98
1070.916,-196.176,164.212
1053.348,-180.804,255.956
1041.148,-148.596,255.224
1121.912,-89.06,229.116
1143.14,-57.096,175.436
1123.376,64.66,138.592
798.124,118.34,140.544
824.72,264.252,38.064
523.624,268.888,63.684
389.18,290.848,44.164
223.992,341.112,81.496
155.672,310.612,88.572
87.108,262.3,30.5
61.732,204.96,0.244
152.256,184.708,-59.048
44.408,132.004,52.216
-6.344,82.716,40.016
41.724,84.18,62.708
210.084,46.116,76.372
433.832,-64.416,-133.956
539.484,-132.248,-152.256
377.956,-66.856,0.732
262.3,-91.256,90.036
592.92,-198.128,-63.196
867.908,-344.528,-318.664
827.892,-342.576,-356.484
467.992,-271.816,-38.308
535.336,-245.708,352.58
1020.408,-455.06,122.488
1404.22,-625.372,-155.672
909.876,-750.056,-201.788
1311.5,-727.852,-281.088
1307.84,-795.44,-94.184
1453.752,-808.616,-193.004
1368.596,-879.376,-77.348
1555.744,-981.612,5.124
1836.588,-1111.908,-29.28
1982.012,-1166.32,-88.084
1986.648,-1092.632,-92.72
1973.228,-1135.088,74.42
2089.128,-1190.72,200.568
2143.54,-1299.788,278.648
2056.92,-1307.352,307.928
1914.424,-1229.028,269.132
1833.66,-1148.996,280.6
1908.568,-1137.284,223.504
1810.968,-1147.532,210.572
1616.988,-1160.464,295.24
1413.004,-1219.268,397.72
1558.184,-1235.372,503.86
1466.196,-1272.704,587.308
1297.836,-1264.896,671.976
1227.564,-1232.2,658.068
1262.7,-1186.328,691.984
1313.94,-1165.588,653.676
1230.004,-1163.88,615.124
1129.476,-1121.912,572.424
923.052,-1054.812,583.404
960.14,-968.192,541.68
811.544,-912.56,487.268
681.98,-758.84,439.932
508.74,-672.464,388.936
428.952,-545.828,281.332
436.272,-428.22,227.652
348.432,-376.492,206.18
249.856,-299.876,167.384
266.448,-157.136,100.04
344.528,-62.952,62.464
358.68,-82.228,1.464
426.512,-34.892,-68.076
371.368,33.428,-23.424
315.004,73.688,-50.508
385.032,164.944,-91.012
416.996,208.62,-98.088
317.932,176.412,-92.72
523.136,163.48,-156.892
604.632,109.312,-123.464
591.944,74.176,-72.224
770.796,25.132,-142.496
705.892,-17.568,-77.836
778.36,36.112,-10.736
855.708,-21.716,-19.764
702.232,-165.676,-70.272
626.348,55.632,50.02
625.128,137.128,239.608
862.052,77.592,193.004
1000.644,-3.904,68.808
451.888,69.052,163.48
605.12,298.656,167.628
952.332,288.408,-26.352
1072.38,328.18,18.544
905.728,390.156,14.152
441.396,473.36,198.616
164.212,594.628,239.608
402.356,722.24,83.692
489.708,805.688,57.34
445.544,829.6,86.132
139.08,832.04,251.32
-2.196,866.688,233.508
59.536,959.896,167.14
81.984,1045.052,141.032
66.124,1115.08,113.216
49.044,1126.792,12.2
-119.316,1145.824,49.776
-336.476,1186.572,200.08
-307.928,1178.52,183.488
-324.764,1143.628,184.22
-364.292,1143.14,281.088
-417.484,1153.388,297.924
-359.9,1119.96,142.008
-360.632,1160.464,76.86
-375.272,1209.02,30.256
-425.536,1284.416,75.396
-333.304,1301.252,114.924
-272.06,1242.936,135.42
-199.348,1163.392,-3.416
-301.096,1123.864,30.988
-162.748,1116.056,-30.5
-100.528,1128.256,-32.452
-48.556,1112.64,2.44
-34.892,1076.772,17.812
-39.772,1037.488,31.476
-58.316,1013.332,97.844
-30.256,1005.768,55.632
-20.252,1045.052,75.64
21.716,1082.872,58.072
-30.256,1072.136,106.384
40.26,1020.896,119.316
53.924,945.012,119.804
25.864,935.252,180.316
73.2,945.5,145.424
69.784,973.56,122.0
127.124,1034.804,90.28
126.88,1055.056,63.928
162.26,1046.272,37.576
131.516,1029.924,69.052
76.128,993.568,102.236
145.424,963.8,55.876
96.38,978.928,80.52
66.612,970.632,73.444
-16.836,956.724,93.452
16.836,964.532,75.884
110.532,996.74,-12.932
109.068,1039.196,-36.844
134.688,1042.368,-80.52
85.888,1028.216,-6.832
57.096,974.78,54.656
27.816,944.036,103.456
74.664,951.356,105.652
126.148,961.116,60.024
113.948,974.292,64.172
137.86,989.176,63.44
188.124,998.204,40.504
145.668,1008.94,77.592
140.3,1015.772,84.912
182.024,1000.4,52.46
133.712,998.448,77.104
95.648,982.588,94.428
112.24,972.584,80.764
125.66,971.608,47.336
91.988,976.244,60.756
98.088,973.804,25.864
136.396,993.568,-6.1
128.1,1010.892,14.152
118.34,1009.672,30.012
125.66,999.424,40.016
136.884,982.1,43.92
110.776,978.684,70.028
113.46,973.804,87.352
107.848,968.192,101.748
118.34,965.02,101.504
160.796,966.972,57.096
125.416,983.808,55.632
107.848,990.64,62.708
152.5,996.252,28.548
118.34,996.496,42.944
89.548,984.784,68.076
50.752,966.728,80.52
108.092,946.232,61.244
85.888,946.476,92.476
119.56,970.876,97.6
132.98,992.104,91.744
139.08,999.424,102.968
145.18,1004.06,89.06
146.888,1002.596,62.952
133.468,1001.864,72.468
117.852,988.932,64.416
120.78,984.784,63.44
111.752,980.392,72.224
98.82,981.124,79.544
101.504,982.1,77.348
139.568,987.712,51.24
120.048,996.252,63.196
101.016,990.396,78.568
123.708,984.296,65.392
175.924,993.324,30.256
155.672,1009.184,55.388
126.148,1005.768,50.508
129.32,1002.596,39.528
81.74,998.692,73.2
27.816,981.368,97.844
50.752,956.968,76.128
45.628,948.672,74.42
80.032,955.26,71.736
84.424,974.292,61.488
72.224,982.832,95.648
79.788,984.296,99.552
160.796,986.492,52.704
171.532,996.252,56.364
146.888,999.424,64.172
134.932,993.812,45.384
126.636,1004.06,40.992
99.796,1004.548,39.284
77.836,997.716,46.116
83.936,981.368,44.408
86.864,972.828,48.068
112.972,970.144,43.432
116.144,981.856,30.012
103.212,995.764,50.752
111.264,1001.864,45.628
77.592,995.276,59.78
87.108,978.928,58.804
106.628,968.68,43.432
101.504,962.824,46.36
85.888,968.436,57.584
83.692,989.42,47.092
64.416,996.008,57.34
94.428,981.124,37.576
118.34,976.976,26.596
106.384,978.928,45.384
66.124,980.88,67.588
75.396,985.516,58.56
83.692,984.784,38.796
117.608,980.392,15.616
127.612,988.2,0.244
125.904,1004.06,24.644
93.452,1017.236,57.828
82.96,1012.356,81.252
89.548,993.568,66.368
110.776,979.904,44.652
101.992,992.836,47.336
94.916,1015.528,45.14
94.184,1032.12,50.264
84.668,1050.42,61.244
73.444,1082.628,76.372
59.292,1119.96,83.936
14.64,1186.084,86.62
-27.572,1303.204,91.256
-47.336,1401.048,102.236
-86.376,1411.54,116.388
-214.72,1374.452,84.18
-164.7,1409.344,13.908
-73.932,1455.46,-61.244
-151.28,1471.32,-83.936
-101.016,1485.96,-106.628
-89.792,1454.728,-91.744
-151.036,1443.748,-1.22
-75.152,1378.356,73.444
-130.784,1348.588,148.84
-147.864,1297.592,204.96
-105.896,1265.384,263.52
-71.98,1175.104,233.508
95.648,1168.272,209.352
245.952,1130.452,138.592
230.824,996.496,149.084
345.016,856.196,-30.012
433.832,754.692,36.6
847.9,653.188,102.48
680.516,395.768,205.936
567.788,202.764,355.752
539.24,81.008,276.94
717.604,-21.228,-15.372
732.732,-60.268,23.668
686.86,-106.872,148.84
739.32,-174.216,167.14
868.396,-180.316,134.444
965.508,-159.332,-2.684
881.084,-96.624,127.856
740.296,-38.064,137.372
616.344,29.524,173.728
625.128,104.676,106.14
510.204,198.372,100.772
327.936,183.976,85.888
392.108,194.468,54.9
315.98,226.92,64.416
221.796,244.0,45.872
187.636,272.304,55.144
4.392,219.112,84.668
55.144,170.556,156.16
124.44,7.564,126.636
195.932,-37.332,17.568
92.476,11.956,47.092
177.632,110.044,85.644
388.204,42.944,-78.324
353.556,-90.768,-61.488
418.948,-78.08,-170.312
350.872,2.196,116.876
420.168,-47.092,131.028
728.828,-115.9,-105.896
740.052,-129.32,-258.884
730.536,-124.928,-368.684
608.292,-50.996,106.872
949.16,-279.136,51.972
907.192,-480.192,9.516
1154.852,-485.56,-229.116
1252.696,-614.636,-357.216
1330.044,-822.28,-60.756
1436.428,-997.472,134.932
1570.628,-1036.512,156.892
1734.596,-1051.396,64.904
1929.552,-1076.284,10.004
2116.212,-1057.984,-50.996
2111.088,-1080.92,5.124
2088.884,-1114.348,83.936
2131.096,-1122.156,211.548
2170.868,-1097.512,266.692
2165.256,-1087.752,312.076
2204.54,-1097.268,335.256
2089.616,-1135.82,447.74
1945.656,-1108.004,508.008
1862.696,-1085.068,499.224
1764.364,-1075.796,508.496
1640.656,-1098.244,518.5
1581.608,-1110.688,555.832
1419.104,-1127.524,645.624
1294.42,-1131.184,726.632
1291.736,-1127.28,642.452
1168.028,-1083.116,629.52
1068.476,-1024.556,575.596
1039.928,-961.848,540.948
934.52,-897.432,509.228
817.888,-807.884,454.572
621.956,-662.704,395.768
598.776,-539.972,335.256
543.876,-478.24,278.648
454.328,-387.96,227.164
345.26,-275.72,243.512
324.276,-203.74,182.756
317.688,-168.116,113.216
279.136,-65.392,53.68
249.124,-9.272,54.412
322.568,24.644,33.428
370.88,44.652,62.952
263.52,65.88,59.536
384.544,136.884,34.648
390.4,161.772,-29.768
498.736,208.132,-23.424
612.44,223.26,28.548
802.272,202.032,34.648
724.192,127.368,16.348
645.38,185.684,-6.832
1001.62,264.252,-32.208
1111.908,224.236,31.72
1005.768,183.0,185.684
860.588,137.86,275.72
821.792,122.732,305.488
1083.848,101.748,94.916
1116.788,101.504,-26.108
950.38,268.156,133.956
761.28,290.604,173.728
520.452,336.476,210.816
547.048,409.432,155.428
235.704,511.424,299.388
182.024,594.384,209.596
177.388,616.344,-3.416
45.628,722.24,-45.384
-84.424,857.172,-9.516
-244.0,958.432,91.012
-161.528,936.228,-2.196
-190.32,955.748,-28.304
-257.176,1013.088,-41.236
-444.568,1042.856,-19.52
-515.816,1019.432,24.4
-471.652,1005.28,-4.392
-537.044,1011.624,18.3
-515.816,1041.392,40.748
-519.964,1086.044,131.272
-486.536,1053.592,111.264
-453.352,1059.204,135.664
-498.248,1072.624,157.624
-547.78,1082.14,214.476
-571.936,1094.34,198.86
-442.128,1119.228,126.148
-328.668,1141.188,10.004
-213.5,1173.396,-23.668
-172.02,1231.712,-75.396
-199.592,1259.284,-37.576
-166.896,1240.252,101.992
-124.684,1146.312,145.424
-30.988,1033.584,114.436
1.464,985.028,120.78
-11.956,987.468,94.184
-6.588,1007.476,30.988
-27.816,1024.8,6.344
-50.508,1048.224,30.5
-111.508,1049.444,50.264
-99.064,1000.4,29.28
-147.62,952.088,49.288
-135.176,937.204,78.324
-30.256,945.012,35.38
-10.248,950.136,59.048
-36.6,965.996,84.668
93.452,999.424,-12.932
103.456,1031.388,-18.3
51.728,1045.296,18.788
-39.284,1026.752,44.652
-23.912,972.828,47.824
-64.172,976.244,72.468
-68.076,974.536,81.74
27.572,980.148,63.44
74.908,981.368,53.192
95.404,990.396,60.268
147.864,1009.672,10.248
100.772,1035.048,21.716
62.464,1044.32,36.844
79.544,1057.984,19.52
78.568,1053.104,38.552
29.28,1023.336,86.864
52.704,975.024,77.348
59.292,948.428,81.252
10.492,965.02,127.856
11.956,962.824,117.852
-13.908,967.948,111.508
-16.836,965.996,122.244
27.084,964.776,69.052
30.988,976.488,50.264
39.04,991.86,48.312
51.484,995.032,27.084
3.904,996.008,69.54
22.692,1000.156,70.516
50.02,985.028,46.116
25.376,973.804,69.784
1.952,974.536,89.304
37.576,965.02,59.536
40.26,965.264,75.152
3.172,969.412,88.816
22.692,974.78,64.172
58.56,994.788,35.136
33.916,1005.036,52.46
9.028,1003.572,63.44
42.944,1001.62,60.268
50.996,995.276,59.292
32.94,989.176,70.028
76.86,983.32,46.848
131.028,983.32,4.636
134.2,1008.208,19.032
105.896,1038.708,38.796
56.608,1045.54,66.856
18.788,1031.388,112.972
28.792,985.028,102.724
44.896,947.208,77.836
27.328,942.084,71.492
22.204,950.38,75.396
-6.832,967.216,85.888
21.472,980.636,69.54
27.572,990.152,68.564
39.284,980.392,65.88
75.64,967.704,46.36
67.344,986.248,52.948
60.268,995.764,71.492
50.264,989.42,67.1
60.268,997.472,67.588
71.736,994.056,58.804
81.496,983.32,30.988
73.688,991.616,26.108
69.296,1010.404,39.284
58.56,1015.772,53.192
34.16,1016.26,88.084
16.836,997.716,111.264
41.724,960.872,92.232
56.364,954.528,82.96
50.264,965.752,104.676
8.784,974.292,125.172
51.728,983.564,112.484
64.416,998.936,108.58
57.584,995.52,108.824
50.02,982.344,99.308
91.988,972.096,52.948
72.224,987.956,52.46
83.936,1002.596,21.472
63.196,1025.532,17.568
49.776,1028.46,27.328
52.948,1021.14,22.448
55.876,1009.428,22.692
70.028,999.424,31.232
57.828,991.128,41.968
34.892,991.372,78.568
44.408,989.42,93.452
28.792,978.684,105.896
31.72,960.384,109.556
79.056,947.696,70.516
61.732,964.044,69.54
49.288,974.292,75.396
20.252,972.34,77.348
55.144,976.976,55.144
42.944,1001.62,63.196
39.284,1004.06,62.708
55.388,1003.328,57.096
40.504,993.324,63.684
49.776,994.3,67.1
99.308,999.18,24.156
96.38,1009.916,40.748
77.348,1011.38,53.68
61.976,1001.132,65.88
44.896,990.884,76.86
39.772,979.904,84.424
38.064,975.024,65.148
15.372,974.536,83.448
13.664,984.052,84.668
42.456,975.756,56.608
42.7,978.684,64.904
54.656,981.856,54.412
55.144,991.616,60.024
67.588,988.688,53.924
62.464,988.688,47.824
54.656,1001.376,64.904
29.28,1000.644,77.836
31.964,981.612,78.08
33.184,973.316,71.492
45.872,975.756,63.684
58.072,986.004,44.896
47.58,1001.864,58.316
47.824,1005.768,62.22
47.092,997.716,62.708
49.776,987.224,57.584
60.024,970.876,45.14
53.436,978.44,47.824
49.044,988.688,44.408
39.528,1001.62,57.096
41.48,992.592,53.924
45.872,981.368,53.436
38.552,975.024,67.1
51.484,971.364,48.8
47.824,977.464,49.044
49.532,989.176,57.828
46.604,989.664,55.876
57.828,981.124,52.948
64.172,979.904,61.732
57.34,985.76,61.488
53.924,993.568,67.588
40.26,992.836,68.808
68.32,989.664,51.484
71.736,994.056,48.068
72.224,991.86,43.432
74.908,996.008,31.72
61.732,997.472,49.532
44.408,1005.036,67.344
40.748,997.472,74.42
71.736,984.052,52.948
72.224,985.516,40.26
65.392,994.544,43.188
47.336,996.252,53.924
45.14,985.272,65.636
34.16,986.492,78.324
35.624,1001.864,89.548
36.6,1026.508,92.72
39.772,1061.888,97.6
35.136,1108.736,107.36
51.728,1119.716,90.768
-19.764,1142.164,86.864
-50.996,1204.872,104.188
-93.696,1267.824,148.596
-81.252,1277.34,128.588
-64.904,1310.28,131.516
-147.132,1346.636,152.744
-170.312,1362.252,176.168
-43.92,1286.612,77.348
-18.788,1305.156,15.128
21.472,1337.852,-9.516
-30.012,1419.348,-3.66
93.208,1390.556,44.896
113.704,1332.484,97.6
155.184,1246.352,156.16
30.012,1165.1,201.056
-85.888,1138.504,171.532
-120.292,1060.424,101.504
386.252,978.684,-88.816
591.212,825.208,-226.92
409.188,700.768,65.636
343.796,588.772,349.896
678.32,385.276,103.944
855.952,270.596,11.224
663.436,296.948,237.9
659.288,213.256,251.076
789.34,32.94,50.264
978.196,12.2,-99.308
969.412,26.108,-147.864
864.248,30.5,-72.224
749.08,-55.876,-45.628
589.748,-112.24,40.26
345.748,-120.78,191.296
291.336,-129.076,194.224
187.88,-106.384,233.264
233.752,-80.52,139.568
268.4,-78.568,104.676
323.788,-38.796,101.992
221.064,4.148,93.94
214.476,87.596,59.048
209.596,103.7,62.708
125.66,78.324,32.208
319.884,36.112,-67.588
502.884,-8.052,-83.448
456.768,-31.72,37.088
530.212,-119.56,-25.864
584.38,-139.324,2.928
762.012,-154.94,-39.284
822.768,-270.352,-63.44
974.78,-311.832,-154.696
982.1,-344.772,-164.456
934.52,-399.672,-30.256
1204.872,-527.528,23.424
1432.036,-681.004,45.872
1591.124,-774.212,11.712
1692.384,-790.56,37.332
1755.824,-807.396,20.74
1907.836,-899.628,-4.148
2123.044,-938.668,45.872
2147.444,-980.148,133.712
2145.004,-983.32,183.244
2053.016,-912.56,228.628
2006.9,-844.484,211.06
1996.164,-851.56,272.548
1890.268,-907.924,415.776
1792.668,-903.776,507.52
1700.192,-908.656,599.02
1573.8,-900.36,716.384
1475.712,-891.332,765.916
1304.912,-895.236,814.96
1280.024,-829.6,771.772
1325.408,-787.144,608.048
1211.216,-756.4,481.656
1110.932,-662.704,444.812
1010.648,-611.464,382.348
947.452,-535.824,339.648
867.42,-501.664,248.88
695.156,-416.752,274.744
698.816,-344.284,236.192
639.28,-303.048,208.864
585.112,-245.708,151.524
612.928,-212.28,108.58
465.064,-182.756,106.14
526.064,-88.084,19.52
437.004,0.976,17.568
349.896,51.728,13.42
464.576,73.688,-20.008
404.552,94.428,17.324
460.672,162.748,-30.5
502.64,188.124,-59.536
546.316,236.68,-155.672
670.512,239.364,-150.548
708.332,203.496,-95.892
672.952,158.6,-30.012
798.856,151.768,-49.776
1018.456,150.792,-123.464
1157.292,160.064,-173.24
1335.168,133.956,-133.712
1295.884,64.66,19.276
1241.472,-6.832,110.532
1185.596,4.88,82.96
1244.156,89.548,-82.716
864.98,307.44,143.716
768.356,435.296,126.148
663.192,465.552,18.056
375.516,626.592,82.96
6.832,800.564,95.404
-323.3,941.596,97.6
-228.628,1008.696,87.108
157.868,988.2,-37.82
85.644,1021.384,-143.228
-218.136,1112.64,3.416
-267.424,1063.108,-1.22
-147.864,931.348,-109.556
-89.792,912.56,-30.744
-63.684,944.524,-49.288
-69.052,1006.256,-167.628
-146.888,1045.784,-74.176
29.036,988.932,-131.028
127.856,935.984,-116.876
255.468,923.052,-37.088
311.832,914.024,-1.952
357.46,906.216,-24.888
369.904,902.068,-72.224
320.86,894.26,-70.516
370.636,845.704,-105.896
297.68,810.08,-6.1
240.34,778.116,41.48
122.732,796.416,111.508
132.98,768.356,110.288
152.744,761.036,64.66
151.036,782.02,-35.136
-30.744,831.796,33.916
-48.556,817.888,-51.972
-101.504,872.3,-33.672
-100.284,959.164,63.684
-142.008,965.264,61.488
-223.016,942.328,62.952
-254.98,909.632,28.548
-300.364,919.636,-3.66
-302.316,999.18,-19.276
-337.94,1096.536,-6.588
-365.512,1092.632,-20.74
-376.248,1071.16,30.012
-328.424,1060.18,22.692
-273.28,1053.592,-67.832
-311.832,1086.288,-71.248
-337.696,1122.4,-79.544
-344.528,1165.588,-22.692
-213.744,1198.528,-58.316
-159.576,1198.284,-60.756
-149.084,1153.876,-47.336
-225.456,1091.9,9.76
-274.988,1057.252,41.48
-226.188,1052.372,21.472
-165.188,1087.508,33.672
-105.164,1099.464,16.592
-94.672,1064.328,15.616
-56.852,1026.02,6.344
-60.024,1015.04,26.84
-4.88,1023.336,43.188
24.888,1024.068,22.936
0.976,1019.92,61.244
49.044,1026.996,27.572
47.58,1024.8,1.22
46.36,988.444,-10.004
23.424,974.292,-30.988
-9.76,983.808,-5.368
-9.516,967.216,-8.54
-17.812,998.692,16.104
-6.832,1001.376,40.016
32.208,986.98,18.056
71.248,971.608,2.928
108.824,968.924,0.0
134.2,985.516,-25.132
74.42,1002.84,20.496
51.972,995.032,34.892
97.844,1005.036,32.94
162.992,1027.972,-54.656
138.836,1052.86,-21.472
94.428,1049.444,5.612
47.336,1033.34,39.04
55.876,1005.036,53.924
71.492,976.244,59.048
102.48,971.852,29.28
72.468,973.072,70.028
39.772,975.756,94.428
48.312,963.556,90.768
66.856,980.148,76.616
76.86,985.272,56.608
161.772,982.588,-18.3
132.98,1010.648,-35.868
101.504,1025.288,-30.256
86.864,1028.704,-40.992
64.904,1024.8,-21.228
56.608,1002.84,-11.956
67.344,971.608,-30.744
30.988,953.796,-3.66
58.804,946.72,-16.592
39.528,961.848,2.684
53.192,985.028,11.224
53.436,996.008,18.3
54.9,980.148,18.3
62.22,973.804,24.888
72.712,978.684,22.692
47.336,976.732,45.384
26.352,962.58,64.66
31.964,974.78,58.804
50.02,978.928,49.288
82.472,961.116,22.448
120.78,980.148,-24.644
143.472,1029.924,-18.3
125.416,1057.252,-5.856
92.72,1055.788,16.104
64.904,1033.096,35.868
69.296,987.468,18.788
62.464,968.68,1.464
37.576,968.192,10.004
23.18,958.676,9.516
10.004,981.856,26.84
28.304,976.244,40.016
60.756,967.46,22.204
96.38,995.52,27.084
121.756,1003.572,21.96
110.288,1007.476,32.94
115.9,1007.232,41.48
111.752,988.2,26.596
96.624,988.932,23.912
81.496,987.224,13.664
52.46,985.76,15.372
27.084,986.736,26.84
33.916,966.972,17.08
27.084,983.076,27.572
58.804,986.248,19.52
61.976,996.984,16.104
91.988,1012.112,14.64
95.404,1002.108,17.812
103.944,992.348,12.2
110.532,1005.036,25.376
89.792,1000.156,31.476
68.564,988.2,38.552
45.384,985.76,50.752
34.648,972.34,49.044
54.168,954.528,18.544
44.408,968.436,20.74
90.036,976.244,-22.936
86.62,996.984,-31.72
86.132,1014.308,-19.276
85.156,1023.336,-18.3
81.984,1008.696,-21.472
54.412,996.984,11.468
91.012,987.224,-17.324
78.568,982.588,-13.176
61.0,982.588,13.176
38.552,980.636,32.696
51.728,979.172,38.796
45.628,975.024,52.948
94.672,963.556,25.376
101.26,972.096,7.32
95.16,992.348,15.86
88.816,1010.404,4.636
88.328,1010.648,8.54
82.228,995.032,19.52
98.576,981.124,-18.056
72.224,988.2,10.736
35.136,988.688,21.472
-1.708,984.784,48.8
20.252,981.368,55.632
42.456,964.044,43.432
115.412,963.312,-4.88
141.764,986.736,-35.136
148.108,1015.04,-18.3
107.604,1034.56,8.052
80.276,1022.116,42.944
72.956,994.788,47.824
71.248,975.756,48.8
70.76,967.704,36.6
98.088,975.512,-1.952
83.448,992.348,12.932
76.86,1000.4,13.42
105.652,1001.132,-8.052
73.444,997.228,29.768
48.8,985.516,44.408
42.456,977.952,46.848
66.368,969.412,34.16
85.4,966.24,22.692
132.004,978.44,-19.032
113.948,1002.352,-4.392
97.6,1012.112,10.98
80.764,1003.816,26.352
80.52,991.372,35.136
109.068,978.44,6.344
103.456,978.928,8.296
102.724,985.516,1.708
79.056,990.152,8.052
65.88,997.228,30.012
72.224,991.372,32.208
73.688,984.296,38.796
96.868,973.56,27.572
109.8,979.172,25.864
119.316,989.176,18.056
102.236,999.668,30.5
92.232,1005.036,45.872
89.792,1008.94,49.044
93.696,1014.796,65.392
83.936,1023.092,74.908
61.976,1070.672,105.164
51.728,1098.732,152.256
70.272,1082.384,153.964
58.316,1073.6,167.14
39.04,1094.34,171.044
-24.4,1132.648,216.916
-21.472,1117.276,251.808
-54.9,1117.764,264.74
-3.172,1135.088,249.124
8.296,1156.56,252.052
20.252,1131.916,223.504
-47.092,1144.116,237.412
-33.672,1167.052,233.508
-64.172,1153.144,262.788
-63.196,1098.488,267.424
-122.732,1091.168,288.408
-188.612,1141.676,299.632
-116.388,1144.848,260.348
-50.508,1100.928,195.444
-99.064,1148.752,198.128
-214.232,1161.196,249.124
-270.596,1119.716,254.248
-369.66,1111.42,242.78
-115.412,1088.484,153.72
33.184,1129.72,38.552
205.448,1080.188,-55.388
9.272,1122.156,-8.296
-163.968,1251.476,23.424
-133.956,1168.516,125.66
-312.076,1084.336,326.472
77.836,859.856,328.912
418.948,657.824,67.1
386.252,630.74,57.34
245.708,399.916,343.552
673.684,235.948,384.788
929.64,-32.696,228.14
978.196,-96.624,87.352
836.92,-146.644,128.832
812.764,-181.536,263.276
950.868,-254.736,235.46
1094.828,-202.764,-123.22
1017.968,-36.112,-24.644
1051.64,-30.988,40.504
1085.312,-100.284,88.328
990.64,-73.444,85.4
840.336,28.548,2.684
705.892,115.656,-51.24
618.052,170.068,-137.372
508.008,137.128,-72.468
223.26,96.624,56.12
159.82,91.5,63.196
15.616,100.528,65.148
65.88,98.82,-47.092
-121.024,79.056,-61.488
-265.228,74.908,-23.668
-215.208,76.86,3.172
-172.264,1.464,25.132
57.096,-110.532,-42.7
170.556,-207.888,11.224
393.084,-259.372,103.7
304.268,-315.004,170.8
370.148,-325.984,123.464
650.26,-363.316,-90.28
835.212,-358.924,-252.052
850.584,-442.616,-115.9
613.904,-637.328,30.988
1021.872,-799.344,77.592
1533.296,-966.972,-77.104
1731.668,-1176.568,-113.216
1416.664,-1296.616,-23.668
1432.28,-1270.996,34.404
1860.988,-1261.968,-92.72
1949.56,-1246.596,-178.12
2009.34,-1245.864,-102.724
2038.376,-1291.736,-7.32
2131.584,-1221.22,137.372
2158.424,-1244.644,329.4
2258.22,-1209.264,401.868
2290.672,-1187.304,454.328
2120.848,-1202.188,692.228
2160.132,-1235.616,786.9
2092.788,-1281.244,779.336
1882.704,-1291.004,805.932
1751.188,-1292.956,791.048
1566.48,-1310.524,789.584
1393.972,-1317.844,744.2
1331.02,-1241.716,680.516
1134.356,-1210.484,607.072
1043.1,-1156.072,516.548
1030.168,-1069.94,396.256
844.24,-978.196,422.852
780.068,-935.496,393.816
731.512,-880.84,389.912
600.728,-798.124,431.392
508.496,-718.092,410.896
415.776,-635.132,355.02
398.452,-546.072,324.276
355.508,-475.8,301.34
160.308,-405.528,240.34
237.168,-277.916,158.112
226.92,-175.436,62.22
206.668,-89.304,-7.076
234.728,-10.492,-3.416
120.292,30.5,43.432
182.756,91.744,1.22
258.396,155.672,-21.716
423.828,181.292,-86.376
437.492,178.852,-58.316
528.016,166.896,-42.7
602.192,125.416,-49.776
752.74,146.156,-72.956
846.924,154.452,-47.58
944.036,84.18,-55.388
1034.56,39.772,-58.316
1279.536,-1.708,22.204
1522.804,-4.636,107.848
1541.592,-112.24,89.06
1381.772,-143.96,111.508
1171.932,-134.2,109.068
983.32,-15.128,127.368
770.064,129.564,277.916
669.78,167.384,238.388
376.98,257.664,229.36
-106.872,580.72,38.552
-683.444,1019.676,13.664
-540.704,1119.96,-11.956
-140.788,1032.608,-307.928
-161.284,977.464,-292.312
-482.632,1036.512,76.372
-328.18,928.908,40.748
-196.664,903.288,-29.768
-130.54,1039.196,-117.608
-136.152,1142.408,-139.568
-91.256,1125.084,-130.54
-49.288,1085.068,-66.856
55.632,1059.936,-44.896
69.052,1068.964,-43.92
166.408,1046.76,-40.26
287.92,971.12,-35.136
262.544,905.24,24.888
221.796,901.58,50.996
114.192,925.736,128.588
96.624,876.692,85.156
114.924,823.744,37.332
170.312,794.464,-34.648
104.92,803.492,-45.872
-0.244,811.3,87.352
-11.224,768.356,68.32
-52.704,772.504,126.148
-11.224,806.42,4.88
-134.688,841.8,26.84
-141.764,841.556,4.88
-184.952,811.3,52.216
-179.828,770.796,70.76
-214.964,755.668,67.1
-214.232,802.028,69.784
-289.384,849.608,101.016
-289.14,954.284,156.648
-234.728,995.52,164.456
-176.412,1001.132,118.096
-219.6,1009.916,78.812
-340.38,1103.856,123.952
-456.28,1152.168,127.612
-599.508,1242.692,195.932
-569.496,1305.156,201.788
-460.916,1336.388,182.024
-283.528,1325.408,57.828
-246.928,1255.136,15.128
-286.212,1186.572,74.42
-236.436,1158.268,90.28
-118.096,1156.316,77.836
8.052,1170.712,67.344
72.712,1154.608,9.272
-0.244,1128.744,62.22
28.548,1064.572,111.752
1.708,1003.572,158.844
12.932,970.876,186.172
8.052,960.872,139.812
-42.456,953.064,136.64
-48.8,988.688,119.804
39.528,1009.916,38.552
17.08,1020.164,52.216
-20.74,1007.476,49.288
-38.552,1001.864,45.384
-27.816,1004.792,50.264
24.156,983.808,20.252
37.82,984.052,30.256
59.536,968.68,42.456
60.756,945.5,41.236
10.004,954.284,78.324
-11.712,968.924,90.28
-28.304,966.728,82.228
-15.128,959.408,68.808
-15.128,953.064,56.12
6.1,951.6,21.716
19.032,970.876,18.3
21.472,993.812,28.792
13.42,991.616,33.916
43.676,994.788,14.884
36.6,1006.5,41.724
-7.564,1014.552,77.592
9.76,1006.5,81.008
32.696,1008.94,87.84
20.984,1017.236,99.552
61.244,1015.284,75.152
89.792,997.472,52.216
53.924,999.424,96.868
29.768,999.18,96.624
-13.42,992.348,123.708
-14.64,986.492,130.052
55.876,964.288,71.736
36.6,964.532,53.68
38.552,986.248,55.388
6.832,1009.428,60.512
16.592,1010.404,78.568
49.044,1008.696,76.372
35.136,991.616,90.28
39.284,965.02,96.624
62.952,944.036,70.028
35.868,959.896,88.328
30.5,964.288,74.42
20.984,984.052,62.22
30.5,1003.816,51.728
34.648,1015.528,32.94
35.38,1010.404,31.232
47.336,1003.084,34.648
53.924,987.956,33.672
43.92,988.444,59.292
57.34,991.128,67.1
35.38,992.836,75.64
-0.488,984.54,97.112
1.22,986.248,103.944
75.396,969.412,62.708
53.924,975.756,81.984
24.888,978.928,95.648
-19.52,974.78,111.508
22.448,977.708,91.988
74.908,993.324,43.432
115.412,1015.04,7.564
121.024,1036.024,-20.008
61.976,1051.152,12.688
9.272,1044.808,58.56
-22.204,1016.26,102.48
16.104,968.192,90.036
28.06,945.256,88.572
38.552,947.696,96.136
50.264,965.264,85.644
22.936,985.272,108.336
43.188,987.956,97.6
40.992,980.636,95.892
28.304,973.316,104.92
47.824,980.88,91.5
73.444,979.172,61.976
77.104,987.468,57.34
68.808,1007.72,45.14
38.796,1015.528,45.628
13.42,1016.016,72.712
28.06,1004.548,56.852
32.696,985.76,56.608
76.86,969.656,24.4
38.064,986.98,51.484
21.96,985.76,67.1
55.388,988.688,59.048
64.904,998.692,61.488
49.288,1001.864,72.712
37.332,997.716,80.032
56.12,981.612,60.268
30.5,976.732,77.836
60.512,980.148,39.04
58.56,991.372,30.256
39.528,1001.132,52.948
20.984,1002.108,58.072
26.352,995.032,62.708
45.872,982.832,54.412
47.092,977.464,45.384
45.14,981.124,49.776
55.876,985.76,31.72
28.792,988.444,55.632
8.54,986.248,73.444
58.804,977.708,40.748
33.672,980.88,64.172
24.888,978.44,70.76
17.324,984.784,73.932
54.412,974.78,47.58
69.784,982.1,43.676
89.06,994.3,17.324
61.244,1011.38,39.04
28.06,1011.624,63.684
10.98,995.032,78.568
23.424,975.268,67.832
61.0,961.116,38.064
54.412,975.512,39.04
52.216,997.96,50.02
27.572,1012.356,63.44
39.04,1014.064,71.98
43.432,1001.376,70.516
46.116,992.104,63.928
20.496,1007.964,69.052
-7.808,1039.196,83.692
8.052,1046.76,60.756
40.992,1042.368,37.576
33.184,1060.668,45.14
-25.864,1131.916,70.272
-44.164,1176.324,92.232
-70.272,1199.504,91.744
-86.376,1228.54,94.184
-105.408,1274.9,75.152
-158.844,1345.172,71.248
-160.308,1456.192,123.464
-49.288,1486.936,132.736
-57.096,1511.336,171.532
55.632,1498.648,292.312
149.816,1316.38,241.072
345.504,1182.912,112.972
466.772,1150.948,95.892
286.7,1164.124,120.292
239.364,1130.94,111.264
416.02,933.544,28.792
375.76,801.052,118.584
473.116,675.148,202.764
430.416,464.332,327.692
504.836,274.012,330.62
590.968,200.08,247.172
619.516,106.14,390.644
843.752,-56.12,224.236
927.688,-124.44,231.556
929.396,-144.936,240.584
967.948,-141.032,148.596
941.352,-141.52,266.936
907.192,-190.564,255.712
937.448,-168.848,165.92
820.572,-28.06,235.46
805.444,31.232,160.796
876.204,62.464,-4.392
932.568,80.764,49.044
775.676,89.06,148.84
883.28,149.084,71.492
916.22,114.436,29.036
956.724,138.104,-19.764
981.124,131.76,-25.864
857.172,121.756,65.88
916.952,93.452,-18.788
942.084,97.844,-59.048
841.312,99.064,-16.104
722.24,109.312,-34.404
572.912,91.5,-6.588
340.624,75.152,95.892
113.948,32.94,88.816
45.628,16.104,92.72
44.652,12.444,64.416
-12.932,-25.864,51.972
-13.176,-60.756,55.388
-31.232,-73.688,34.404
-80.764,-94.184,143.716
68.32,-230.58,192.272
409.676,-337.696,90.28
698.084,-345.26,-104.92
598.044,-249.368,68.808
996.008,-232.288,-13.176
1312.72,-396.012,-338.916
1326.14,-483.852,-295.484
1255.868,-640.5,-25.376
1462.78,-890.356,163.236
1656.028,-1157.048,253.516
2130.608,-1273.924,-1.464
2368.996,-1137.772,-168.604
2540.528,-1052.372,-311.832
2663.26,-1065.548,-250.588
2553.704,-1091.168,-124.928
2382.66,-1089.948,20.008
2128.168,-1038.708,116.144
1972.984,-990.64,204.716
1857.084,-971.364,288.896
1748.016,-998.936,418.46
1496.94,-1013.332,554.612
1498.404,-983.32,606.34
1416.42,-928.42,649.528
1357.86,-854.0,641.232
1341.512,-847.168,595.116
1227.808,-815.204,605.364
1144.604,-773.236,594.384
1001.132,-718.092,552.172
817.156,-657.824,513.864
678.808,-564.128,495.564
506.788,-455.06,463.6
526.552,-365.512,322.568
461.892,-269.376,256.688
445.3,-172.264,162.992
392.108,-101.26,148.596
378.688,-40.992,91.988
373.076,6.344,38.308
379.908,48.556,4.148
337.696,108.336,-1.22
400.16,155.184,-53.924
388.448,150.792,-12.688
442.372,164.7,-59.292
474.824,178.852,-61.0
514.84,208.864,-74.42
601.948,211.548,-95.892
663.436,203.496,-98.576
743.956,207.156,-122.976
792.756,170.312,-90.524
809.592,136.396,-61.0
903.288,132.98,-97.6
971.364,163.724,-151.768
1016.26,189.832,-140.788
1096.78,148.596,-144.204
1122.888,106.628,-109.312
1118.496,129.076,-115.9
1117.764,167.384,-101.016
1090.924,171.044,-78.568
1130.696,155.916,-52.216
1107.516,156.648,-25.864
1229.516,150.792,-11.712
1355.664,105.896,32.208
1350.54,67.832,91.988
1340.048,7.076,111.02
1293.2,3.66,82.228
1162.904,82.96,146.644
1172.908,167.14,39.284
1065.304,181.292,39.04
736.392,292.312,228.384
415.532,436.028,315.98
355.508,622.932,67.832
-49.288,816.668,-49.776
-500.2,1088.728,51.484
-124.196,1101.416,-129.32
199.592,998.692,-262.3
189.344,972.828,-208.864
68.808,918.416,-32.696
169.092,829.844,-38.796
368.928,773.48,-75.884
331.352,773.724,-33.672
326.96,786.656,-30.988
213.988,808.372,51.24
57.096,765.916,95.648
44.652,750.544,13.176
129.32,744.444,-86.376
141.032,775.676,-42.212
103.212,816.18,23.668
22.936,764.452,51.728
-55.632,739.32,-22.448
-209.108,795.928,32.208
-216.184,860.832,-14.884
-210.328,894.016,-29.28
-149.328,895.236,-46.116
-123.22,916.22,-52.948
-207.888,952.088,22.692
-300.364,1080.676,91.256
-233.264,1099.708,58.316
-162.016,1110.688,5.368
-181.292,1143.872,103.456
-126.636,1118.008,106.14
-38.308,1131.184,87.108
-91.744,1183.644,69.784
-202.276,1206.824,58.072
-350.628,1206.336,65.148
-374.784,1236.348,43.676
-235.948,1212.192,-105.896
-86.864,1213.656,-156.404
-66.368,1199.504,-178.852
-118.828,1192.184,-156.16
-148.84,1184.62,-41.48
-76.616,1102.148,21.472
-46.604,1019.188,-9.028
-48.556,990.152,-57.828
-100.528,1014.308,-10.736
-75.884,1043.344,-30.012
-58.56,1065.792,-6.344
26.108,1062.62,32.452
58.072,1020.408,67.1
-33.428,987.224,117.12
17.08,974.048,61.244
38.308,966.972,-13.664
19.764,984.54,-19.764
102.724,1023.092,-114.924
75.64,1038.952,-154.94
1.464,1028.704,-121.512
-11.956,1027.972,-78.324
8.54,1028.704,-40.016
14.396,992.348,-0.244
-0.732,948.184,47.58
58.316,920.124,66.368
76.86,909.388,72.712
40.016,910.852,85.888
70.516,941.84,67.1
131.76,971.364,7.32
152.5,1008.696,-38.796
162.26,1034.072,-61.976
113.948,1047.248,-35.38
60.268,1026.996,6.588
65.636,997.96,10.492
81.252,991.128,-1.708
70.028,1008.208,5.612
90.28,1017.968,-28.304
70.516,1016.26,-47.824
69.784,1007.232,-30.744
66.612,998.448,-26.596
42.7,981.856,-0.732
75.396,976.976,-1.952
72.224,994.3,6.832
65.148,989.664,21.472
52.216,986.736,40.748
44.652,981.368,41.724
44.896,966.972,27.572
67.832,962.58,-7.564
42.944,980.636,4.148
41.724,989.42,-2.684
64.66,1003.084,-8.052
55.632,1003.816,-2.44
104.676,989.42,-17.324
114.192,984.54,-24.156
114.436,968.192,-19.032
108.58,965.02,11.224
93.208,982.588,30.744
79.544,981.856,41.724
74.664,995.52,43.188
84.18,1012.112,20.74
78.324,1006.988,8.052
68.564,994.788,-5.856
48.556,992.592,7.076
48.556,987.468,14.884
76.128,986.98,-13.664
62.708,1006.012,0.732
62.952,1014.796,0.244
62.464,1016.26,1.464
101.26,1011.136,-8.296
83.204,1008.208,9.272
76.616,1000.4,21.96
111.508,985.028,-2.196
80.276,977.22,22.204
64.66,972.584,38.796
97.356,981.368,18.3
82.716,986.98,18.788
71.492,976.976,25.864
54.168,975.512,24.156
47.092,970.632,19.764
26.108,965.02,31.72
72.224,954.772,-0.732
89.792,965.508,-25.62
110.044,984.052,-44.652
116.144,1014.064,-42.944
94.428,1021.628,-32.94
86.132,1014.308,-26.596
61.0,1003.572,-9.028
63.684,988.2,-1.464
69.784,981.856,-0.488
49.532,982.832,23.912
67.832,979.66,19.764
66.124,986.98,24.888
66.124,989.908,32.208
53.68,992.592,44.896
65.88,987.956,41.724
67.588,982.344,35.136
86.864,981.124,18.788
73.688,985.028,5.612
64.66,994.056,12.2
62.464,997.472,-3.66
40.26,1009.184,18.3
34.404,1028.704,32.94
53.924,1042.124,44.652
81.496,1034.316,50.996
65.392,1058.228,74.908
36.6,1118.252,103.212
20.252,1165.588,128.1
-45.628,1193.648,145.424
-101.748,1213.9,177.144
-104.676,1217.804,196.176
-16.592,1231.224,199.836
61.732,1274.656,184.708
82.96,1276.12,215.696
40.016,1247.572,226.432
-43.92,1214.876,214.232
2.44,1194.136,180.072
62.952,1205.604,170.312
71.736,1220.0,163.724
59.78,1203.652,129.808
4.636,1217.56,106.628
-108.336,1265.14,156.648
-151.28,1276.852,181.536
-59.048,1252.94,179.096
137.616,1190.476,122.244
270.596,1160.22,13.42
216.672,1148.996,-17.568
30.012,1099.22,31.476
-35.136,1008.696,152.988
73.932,847.412,141.032
174.46,730.536,91.744
497.028,670.756,-41.724
357.46,500.444,-14.396
33.672,437.98,28.304
220.576,313.784,193.248
514.596,67.344,379.908
176.9,-325.984,712.48
789.34,-574.132,442.128
815.204,-489.708,30.5
842.776,-243.268,79.056
871.324,-3.904,86.132
1006.012,-132.492,109.556
1099.22,-351.36,108.092
1005.036,-318.176,336.964
984.784,-234.24,260.836
1104.832,-100.04,75.396
1162.904,-10.248,-2.196
1154.608,7.32,-41.968
1069.208,-32.452,-31.476
984.052,-2.44,15.128
833.26,28.548,7.076
753.716,90.768,-64.172
422.852,109.8,-10.98
388.448,142.984,-81.252
255.712,114.68,-41.236
116.388,40.26,-30.744
180.316,-8.784,29.036
58.072,-82.472,108.336
29.768,-103.456,138.348
-30.256,-177.876,82.472
128.1,-158.844,38.796
23.668,-157.868,100.284
45.872,-132.248,56.12
243.756,-244.244,-75.64
336.964,-298.168,-111.264
604.388,-231.8,-152.5
590.968,-263.52,-73.688
710.284,-424.804,-322.568
909.144,-527.528,-504.104
1008.696,-644.648,-556.32
1391.532,-916.952,-553.636
1420.568,-1241.228,-526.796
1275.388,-1350.296,-375.516
1370.548,-1339.072,-176.656
1720.444,-1496.696,-91.5
2056.432,-1675.304,-19.764
2338.496,-1722.396,82.716
2641.3,-1795.108,255.224
2712.548,-1798.28,491.416
2698.152,-1722.884,602.68
2590.06,-1628.456,606.584
2464.888,-1519.632,511.18
2278.96,-1457.168,483.364
1988.112,-1436.672,565.348
1691.164,-1446.432,606.584
1435.94,-1431.792,708.088
1270.508,-1353.224,717.604
1154.608,-1288.32,698.328
1077.748,-1210.484,632.936
831.308,-1115.324,571.448
802.516,-983.564,536.8
722.972,-870.592,482.876
526.064,-783.972,452.62
462.624,-671.732,391.62
398.696,-591.944,317.2
257.176,-521.916,306.22
204.472,-430.416,289.872
158.356,-338.184,242.78
191.54,-228.628,160.552
198.86,-104.92,91.988
263.276,-40.992,76.86
335.256,-53.68,26.596
272.548,-40.992,-6.832
429.928,21.472,-7.564
532.408,29.768,-20.74
571.448,-9.272,34.16
623.176,-18.788,33.916
639.28,-42.212,67.588
615.612,-10.248,63.928
260.348,-26.108,145.912
445.056,230.824,186.66
799.832,244.976,186.416
1005.036,175.924,69.784
791.536,137.86,208.132
609.756,190.32,276.452
547.292,305.488,231.8
617.32,398.696,88.328
538.264,517.036,91.744
440.908,578.768,79.788
346.724,635.62,44.408
269.132,665.876,95.16
171.288,758.84,211.792
247.904,811.544,195.444
312.564,859.368,128.344
277.916,898.164,104.188
122.0,964.532,183.0
25.62,999.912,251.808
-49.044,998.448,238.632
-69.052,985.516,226.676
66.124,1012.356,129.076
-192.028,1062.376,259.372
-357.216,1124.108,282.064
-401.38,1098.976,235.216
-452.132,1129.964,221.552
-519.476,1150.46,283.772
-525.332,1181.204,266.692
-376.98,1148.02,97.6
-221.552,1144.36,-124.684
-244.244,1174.86,-177.388
-370.148,1234.64,-129.076
-355.752,1265.384,-44.408
-175.924,1226.832,18.788
-48.312,1154.608,13.42
-56.364,1067.5,30.012
-132.004,1020.164,87.84
-142.008,1020.652,107.116
-86.864,1036.024,101.016
-51.24,1045.052,101.992
-92.232,1035.78,87.352
-119.56,1021.628,17.324
-150.548,1009.672,-25.62
-15.616,1039.44,-114.436
24.156,1083.604,-120.048
6.832,1086.532,-92.964
-32.94,1046.028,-46.36
56.364,1060.18,-28.548
73.2,1073.356,-0.488
69.296,1042.612,19.764
27.572,997.716,49.288
61.0,977.708,44.164
145.912,960.384,14.884
144.936,942.328,24.156
123.22,957.7,37.576
43.676,984.052,55.632
-5.368,981.368,58.56
6.344,976.244,60.268
79.056,961.36,11.956
162.504,957.7,-53.924
96.38,1001.864,2.196
78.08,1007.476,12.2
30.5,1005.524,44.408
-7.32,993.812,88.084
36.112,964.044,92.964
94.916,944.768,61.732
37.576,949.648,73.688
33.672,949.16,58.072
70.76,972.34,9.272
40.748,1003.084,9.272
19.032,1001.376,13.42
-7.808,997.96,39.772
41.48,1012.356,20.984
45.14,1021.872,23.424
47.336,1014.064,30.988
40.26,997.96,42.212
44.896,983.076,66.124
30.744,964.532,96.868
47.336,947.94,127.368
103.944,960.14,129.808
127.124,967.948,109.312
132.248,988.2,85.888
109.8,1014.064,68.076
86.376,1022.848,46.36
105.164,1043.1,11.468
94.184,1043.832,-6.1
65.392,1031.632,1.708
48.8,1010.16,10.736
42.212,1002.108,28.06
34.16,982.832,50.508
46.848,959.164,60.024
83.692,967.704,62.708
106.384,974.536,63.684
118.096,988.2,55.876
125.66,1007.476,36.356
96.624,1019.188,40.748
82.472,1011.624,33.916
85.4,997.472,18.3
97.112,983.076,-16.592
37.82,980.88,22.204
18.544,973.072,30.5
-4.148,970.388,39.772
-16.348,971.12,59.536
36.6,978.928,37.576
46.604,982.832,19.52
44.164,974.048,24.644
45.628,973.316,31.476
51.728,970.632,30.5
49.776,973.56,47.824
69.784,994.788,50.508
100.772,1001.376,30.256
99.308,995.032,19.764
95.648,996.496,19.764
83.692,998.936,-2.196
51.484,1004.06,6.1
37.332,1005.28,20.984
16.592,1000.4,31.232
19.276,987.956,40.016
37.088,978.684,32.94
33.672,978.196,47.336
55.632,979.172,45.628
60.024,984.784,49.776
75.64,981.612,40.016
81.252,984.54,29.28
78.812,983.808,28.304
66.612,981.368,29.28
51.972,984.54,34.404
38.552,981.612,37.332
42.7,978.684,16.836
12.688,977.464,26.596
28.792,970.632,18.3
33.916,970.388,12.688
17.08,966.24,31.72
5.612,952.82,42.944
6.344,956.48,48.556
15.128,963.8,43.188
57.096,965.02,25.864
121.268,976.976,-20.252
109.312,1002.84,-3.172
111.508,1010.648,-7.808
78.08,1024.312,11.956
104.188,1020.164,-2.684
59.78,1018.456,17.324
67.832,1003.572,11.224
86.376,999.18,-6.344
87.108,988.2,-9.272
89.548,1002.352,-2.684
85.156,1011.868,8.54
91.5,1015.04,16.836
87.352,1008.452,28.304
94.428,999.18,35.136
118.34,981.612,6.832
90.28,985.76,25.376
95.892,984.784,21.96
72.224,987.956,28.304
65.88,989.664,31.232
52.948,1008.94,43.188
66.124,1021.14,46.848
94.672,1020.896,37.576
116.388,1014.064,25.376
106.384,1002.596,22.936
92.964,998.936,24.156
108.336,998.936,-4.148
99.064,1009.916,-7.808
73.2,1024.312,7.076
49.532,1066.036,28.304
39.04,1085.068,58.804
52.46,1081.164,48.312
38.796,1085.312,19.032
-13.908,1148.996,49.288
-26.84,1199.26,64.416
-33.184,1202.92,71.004
-25.864,1184.132,62.22
-114.924,1225.612,92.72
-322.08,1286.612,150.548
-417.972,1277.096,175.192
-421.388,1265.628,126.88
-294.996,1269.776,8.784
-159.088,1337.12,-72.712
-143.228,1401.536,-84.18
-270.84,1379.332,-1.952
-351.36,1308.572,62.464
-155.672,1270.752,20.74
-49.776,1257.82,29.036
-56.12,1290.516,137.86
-115.656,1203.408,117.852
-126.88,1151.68,78.568
214.964,962.58,-117.12
57.34,806.176,-229.36
300.608,772.748,-311.344
634.888,670.024,-304.756
611.952,586.088,-21.716
590.724,386.496,1.952
635.864,274.012,87.84
750.788,297.924,84.18
748.104,250.344,-45.628
795.196,218.868,124.44
822.036,59.048,168.36
732.0,-149.328,203.008
927.2,-177.632,25.62
789.828,-156.404,40.992
628.788,-34.648,60.268
440.908,-21.228,152.744
273.28,-73.2,169.092
225.456,-93.94,212.28
128.1,-107.36,190.564
182.024,-36.112,62.464
30.012,29.524,123.952
-48.556,44.896,98.82
17.324,43.432,94.916
170.312,-17.324,92.964
140.544,-116.876,41.968
93.452,-111.996,20.008
119.56,-60.268,47.336
217.404,-58.072,33.916
401.624,-71.736,17.08
619.272,-137.372,-168.848
561.932,-177.144,-254.004
640.988,-102.724,-206.18
732.976,-134.688,-147.62
874.496,-264.984,-313.54
1111.176,-395.036,-522.648
884.256,-523.624,-474.336
1146.068,-663.68,-390.4
1375.916,-870.592,-433.832
1512.312,-1044.564,-531.676
1466.684,-1104.1,-438.468
1585.512,-1234.884,-261.812
1991.772,-1315.648,-229.604
2321.172,-1396.168,-363.804
2576.64,-1441.308,-334.768
2664.236,-1414.224,-270.352
2598.844,-1395.436,-117.608
2576.396,-1371.036,10.492
2412.184,-1371.524,181.048
2193.56,-1362.74,319.64
2064.24,-1323.212,387.472
1859.768,-1299.3,356.484
1701.168,-1235.616,356.24
1582.828,-1188.036,346.48
1399.828,-1170.712,330.376
1311.744,-1120.692,300.852
1265.628,-1090.924,272.06
1170.224,-1087.264,274.5
919.392,-1059.448,310.612
987.468,-957.456,309.148
877.668,-910.852,298.9
701.988,-860.1,279.136
629.032,-759.084,262.544
596.58,-656.604,233.02
423.34,-530.456,277.184
387.228,-386.008,235.948
349.896,-245.464,242.048
359.168,-121.268,141.52
400.648,-6.588,81.008
397.476,60.024,0.488
237.9,92.232,10.004
321.104,129.32,7.808
473.116,110.532,-1.22
754.936,31.964,-9.028
807.884,-16.592,67.832
428.22,-73.688,93.452
280.6,103.944,159.82
609.512,230.824,140.788
757.376,285.724,59.78
705.648,329.644,68.32
411.872,342.088,140.788
354.044,427.0,56.852
375.76,515.328,-15.616
348.188,585.844,-11.956
331.108,652.7,-30.5
360.388,671.732,-28.548
372.1,701.744,-32.696
289.14,747.128,9.516
150.792,807.64,57.584
174.704,850.584,-4.148
106.384,890.844,-35.868
140.544,926.956,-116.144
25.62,957.456,-74.176
-38.796,1037.488,26.352
-100.772,1060.668,106.872
-111.264,1045.54,98.576
-72.468,1013.576,53.924
-67.832,1021.872,7.32
-215.94,1081.408,77.348
-196.664,1095.804,77.592
-163.236,1066.524,91.744
-107.36,1057.008,53.192
-161.528,1069.208,91.012
-244.976,1097.512,40.748
-211.548,1100.44,-61.488
-248.636,1127.768,-79.056
-285.968,1122.644,-82.472
-280.112,1172.176,-27.572
-230.824,1206.336,32.208
-147.132,1168.516,19.764
-116.144,1110.688,-3.904
-107.604,1076.04,-9.516
-97.356,1078.724,-30.012
-23.424,1104.588,-58.072
0.488,1107.516,-75.396
-49.776,1112.396,-33.428
45.872,1110.932,-36.844
-2.44,1078.968,-12.444
-75.884,1035.536,34.648
-20.984,986.248,33.184
-4.88,957.944,45.628
-58.804,931.836,83.936
-82.716,896.944,113.704
-40.26,881.328,129.808
108.336,937.692,82.716
173.484,991.86,45.384
241.072,1016.504,-23.668
203.008,1047.248,-34.892
165.92,1057.252,-26.596
150.548,1049.2,-36.6
138.592,1040.66,-50.752
187.88,1024.556,-64.904
191.296,1005.28,-73.932
133.468,995.032,-49.532
87.84,995.276,16.348
78.324,999.912,50.264
103.7,1001.864,69.54
110.044,1003.084,90.524
73.444,995.52,116.876
104.92,977.22,90.28
100.284,952.82,39.528
45.384,963.068,71.004
102.724,986.248,63.196
163.724,991.128,14.152
142.008,994.3,32.208
108.092,985.76,46.116
123.708,974.536,31.72
108.58,969.656,0.0
46.848,962.092,27.328
17.812,965.508,41.724
99.552,969.9,-19.032
114.436,986.492,-35.624
114.68,996.008,-26.352
159.088,1015.528,-53.436
181.536,1041.148,-64.416
187.148,1063.596,-62.22
190.32,1068.232,-78.08
125.172,1051.64,-44.408
61.0,997.472,23.912
32.208,940.376,91.744
69.296,897.92,116.388
84.18,912.316,149.084
103.212,943.06,157.38
115.412,974.536,129.32
142.496,990.152,95.892
176.9,994.788,55.632
144.448,990.152,50.264
104.92,983.564,59.78
90.036,965.508,67.344
80.032,954.772,61.0
39.528,955.992,64.66
36.6,963.068,58.316
39.284,974.292,55.144
73.444,977.708,35.136
135.908,993.324,-2.44
142.496,1017.48,3.66
129.564,1009.672,17.812
125.904,1002.596,37.576
134.444,1001.376,35.38
97.844,993.568,49.288
80.032,979.66,56.608
81.74,985.028,59.536
96.136,978.196,51.972
86.132,968.68,57.34
88.328,983.32,61.976
120.292,990.152,54.412
132.248,991.86,41.968
116.876,998.692,58.316
114.68,992.592,49.288
114.924,988.2,40.016
95.892,989.42,35.624
89.06,992.592,42.944
145.18,995.52,5.612
132.736,1001.62,8.784
109.068,989.908,30.256
63.44,980.392,48.8
77.836,975.756,47.092
89.304,978.44,46.604
68.564,969.9,62.708
67.832,962.58,71.248
138.836,967.46,40.016
145.18,981.612,35.868
137.128,996.008,43.676
159.82,1016.504,23.912
162.748,1026.264,16.836
158.112,1018.944,15.372
152.5,1001.376,9.76
124.684,985.272,12.932
112.24,973.56,26.596
99.064,969.168,37.088
89.304,971.608,45.872
71.004,971.12,49.776
67.344,972.584,53.68
118.096,977.22,30.744
113.46,988.444,40.504
94.672,977.952,57.096
73.688,963.556,72.712
112.484,966.484,62.464
118.828,984.052,64.904
150.06,991.86,46.848
164.456,1001.132,24.156
159.82,1009.184,17.812
133.712,1010.16,24.156
120.78,1000.4,25.864
120.292,989.176,20.008
116.632,990.396,23.668
100.528,991.372,32.452
106.872,983.808,31.72
101.26,979.416,35.868
81.008,973.804,53.192
113.46,977.952,53.924
146.888,980.148,33.672
137.372,978.196,52.948
142.496,979.66,51.972
148.596,983.564,32.208
149.084,983.564,26.84
104.92,986.736,44.896
78.324,987.468,48.556
80.032,983.564,46.116
93.696,978.684,30.012
93.94,978.44,32.208
118.584,983.076,20.252
110.288,991.616,27.328
125.172,993.324,33.672
119.072,999.424,54.412
137.128,997.716,48.068
132.248,1002.108,51.972
127.124,1006.988,59.78
118.828,1026.508,46.604
74.42,1066.036,68.564
43.676,1117.764,84.18
-20.252,1226.832,99.064
-69.296,1307.596,119.316
-19.764,1333.948,104.676
-20.74,1315.892,123.22
-38.064,1250.012,95.404
-5.856,1254.404,111.02
-61.0,1277.096,131.516
-248.636,1306.864,154.94
-350.628,1366.4,157.38
-82.96,1333.216,17.08
48.556,1348.344,-42.456
161.528,1291.98,-31.72
119.56,1265.872,26.352
-2.928,1104.1,125.904
-188.856,1025.776,218.868
396.988,1065.304,167.14
801.784,942.084,42.456
495.564,688.568,144.204
584.136,682.712,81.496
607.804,568.52,38.064
711.504,540.704,50.264
778.116,384.544,62.464
976.244,228.872,22.448
837.652,165.676,75.884
538.996,94.184,307.684
705.892,60.268,328.424
762.5,-43.92,175.192
861.808,-129.564,36.112
648.796,-176.412,109.312
586.576,-186.416,112.484
523.38,-209.84,149.816
394.792,-203.008,210.572
349.652,-198.616,151.036
172.996,-219.844,186.66
218.38,-197.64,228.384
274.988,-195.2,184.708
295.24,-164.456,85.644
246.44,-131.516,80.764
260.348,-129.076,6.588
346.968,-97.844,34.648
269.376,-103.944,74.664
349.896,-92.72,3.416
327.448,-68.076,57.096
585.356,-21.228,-76.372
756.4,-17.08,-205.448
940.62,4.148,-308.904
907.192,60.268,-239.852
796.172,16.836,-185.684
805.932,-81.74,-106.872
928.176,-269.376,-82.472
1065.548,-396.744,-46.848
1077.016,-534.848,46.116
1159.732,-705.404,25.62
1542.812,-804.712,-97.356
1743.136,-886.208,-105.652
1909.788,-881.328,-68.564
1911.252,-932.08,33.428
1858.548,-971.608,152.988
2177.456,-961.36,20.984
2300.432,-877.912,-49.532
2380.708,-772.992,-131.516
2307.02,-691.252,-107.848
2140.124,-655.384,4.392
2085.468,-659.776,58.316
2016.904,-694.668,117.852
1932.236,-744.2,183.244
1867.576,-764.696,214.964
1761.68,-830.332,237.656
1634.556,-854.976,339.892
1581.608,-878.156,383.812
1464.0,-892.552,411.872
1264.164,-873.276,444.324
1259.528,-784.46,428.708
1209.508,-752.252,391.132
1081.896,-701.988,357.948
939.888,-620.98,387.716
928.908,-541.436,352.824
922.076,-488.976,296.46
1007.964,-458.964,163.968
740.052,-409.188,268.888
634.888,-299.144,203.252
543.388,-224.236,181.292
445.3,-136.152,207.156
324.276,-83.692,136.64
219.356,12.932,155.916
185.44,84.424,152.256
206.668,121.268,106.384
274.744,172.02,28.548
275.964,232.288,91.988
263.032,276.452,70.272
346.968,315.98,48.556
466.772,315.004,34.16
577.792,315.736,44.896
782.508,272.792,33.184
613.904,216.184,182.512
873.52,244.244,132.98
1091.9,220.576,112.728
1279.048,224.48,67.1
1210.24,209.108,81.984
1050.664,213.988,105.408
917.928,262.788,194.956
746.396,327.204,207.644
793.732,377.712,59.78
939.888,488.0,-29.28
764.696,565.348,96.868
700.768,569.496,68.808
594.628,505.568,-9.516
448.96,526.308,-10.492
476.044,687.348,2.196
369.416,688.812,40.504
381.372,726.876,-24.888
394.304,738.1,-92.232
179.34,810.08,47.58
-14.64,915.732,83.448
-100.04,1021.384,95.648
-32.452,1055.788,31.72
-64.66,1044.076,22.936
8.052,1093.364,124.44
32.452,1144.116,215.94
-75.64,1136.796,217.404
-137.128,1128.256,190.564
-178.608,1157.048,138.592
-386.008,1172.42,142.252
-380.396,1219.512,74.42
-249.368,1212.68,-36.6
-158.356,1212.192,-50.508
14.396,1215.852,-46.604
127.124,1169.004,-31.72
89.548,1151.68,-8.052
-6.832,1088.484,-10.98
-5.856,1022.116,-27.572
140.056,1050.176,-125.416
222.528,1066.768,-179.584
270.352,1090.436,-140.056
237.656,1058.716,-91.012
37.088,985.516,15.372
-43.676,968.192,140.3
-56.852,930.372,182.512
-3.172,902.8,163.968
144.692,894.016,77.348
172.996,930.616,48.556
137.86,951.356,9.272
148.84,991.86,-38.796
169.092,1017.48,-116.144
129.32,1046.76,-108.092
139.08,1050.664,-76.372
144.204,1029.192,-42.7
130.784,992.836,18.056
191.54,980.88,42.212
200.324,978.44,77.836
186.66,957.456,94.672
208.62,962.092,90.524
220.576,987.956,64.66
175.436,995.764,66.368
159.088,996.74,68.076
185.684,994.056,55.632
170.8,989.176,70.516
180.56,990.884,75.396
193.736,978.684,53.68
198.372,969.168,48.312
210.572,962.336,38.796
196.176,973.316,50.264
190.076,989.176,66.612
171.776,975.024,70.76
171.776,963.556,71.98
177.144,963.556,70.272
171.776,955.992,50.752
196.664,954.528,19.52
201.788,970.388,16.592
177.632,987.468,23.668
165.92,1002.108,36.844
164.212,999.668,40.748
160.796,985.516,42.212
179.584,968.436,28.548
181.292,962.824,21.96
192.76,975.024,22.204
182.024,981.856,26.84
173.728,988.2,46.848
193.248,993.568,43.92
184.22,985.028,43.92
174.948,973.56,47.58
165.676,972.34,71.98
160.796,958.676,66.124
156.404,955.504,71.736
157.136,975.024,79.056
141.764,974.048,72.956
179.34,973.804,55.632
217.648,986.248,40.992
214.964,989.42,40.26
199.836,985.76,45.384
215.208,990.152,45.872
202.276,986.98,37.332
168.116,977.22,46.116
171.288,974.048,28.548
167.14,981.368,18.056
145.668,982.832,29.036
162.016,983.32,27.084
182.024,983.076,31.72
176.412,975.756,47.092
183.732,972.096,59.048
178.608,971.12,75.884
195.2,969.9,69.54
200.08,971.12,66.124
204.96,977.22,57.584
195.932,983.32,48.8
176.9,988.688,57.096
184.464,991.86,51.24
166.896,985.272,53.436
168.848,975.756,57.34
188.856,975.268,46.604
171.288,974.292,51.728
160.308,967.216,56.12
184.464,974.292,42.212
192.028,979.904,34.892
194.956,983.076,40.748
229.116,980.636,14.396
219.6,981.612,13.42
211.792,985.516,24.156
212.768,991.372,26.352
210.084,993.812,29.036
203.496,989.908,37.332
191.052,980.392,44.896
210.328,972.34,20.496
184.952,974.048,30.012
161.04,969.656,47.58
174.704,970.632,41.48
154.696,970.144,59.78
146.644,967.216,82.716
186.416,964.044,61.976
190.808,966.728,65.636
193.736,967.46,68.076
187.392,965.508,53.436
178.852,968.924,50.752
200.324,980.392,36.6
192.516,983.564,38.308
178.608,978.196,39.772
196.908,979.66,25.62
183.0,983.076,31.476
157.136,979.172,41.724
154.94,976.732,44.164
180.072,972.584,32.94
176.656,974.536,43.676
193.736,975.512,42.944
226.432,980.392,19.52
221.552,985.516,24.888
217.648,984.052,37.088
210.572,983.32,34.16
203.008,987.712,35.136
188.856,987.956,42.212
184.708,985.028,38.796
196.176,976.732,25.62
188.124,978.684,36.112
193.004,978.44,33.672
183.976,979.416,31.476
168.116,978.928,50.996
189.1,974.536,45.14
196.176,969.168,40.26
199.836,971.852,43.676
192.028,974.78,46.36
199.592,976.976,40.992
203.984,981.124,40.504
190.076,975.268,43.92
182.024,972.096,46.604
185.684,971.12,41.48
169.58,967.704,40.26
175.192,976.976,46.36
187.636,981.856,40.992
193.248,980.392,37.82
206.912,984.296,30.256
194.468,983.564,30.5
186.416,982.832,41.724
194.468,975.268,35.868
196.664,975.268,37.576
192.028,979.66,49.532
192.516,979.172,39.528
193.492,981.368,39.528
191.784,979.172,40.016
192.76,976.0,41.236
188.612,973.316,36.356
177.632,980.636,50.752
176.656,986.004,57.096
184.464,992.836,59.048
187.148,1004.304,65.392
193.248,1012.844,70.272
209.352,1013.332,63.684
219.356,1006.012,52.46
201.544,1005.036,50.264
169.092,1023.336,55.144
109.312,1092.632,81.008
78.568,1162.416,110.776
92.72,1218.048,123.22
-9.272,1277.34,125.172
22.448,1364.936,125.66
108.58,1394.216,103.212
82.716,1365.18,81.984
11.956,1364.204,111.996
-112.728,1372.988,108.58
12.444,1424.716,132.248
131.272,1370.548,102.236
223.016,1303.448,87.84
281.332,1240.252,67.588
144.936,1147.532,132.248
40.26,1113.616,110.288
64.172,1079.944,87.596
109.8,979.172,27.816
149.084,990.64,-88.084
466.04,875.96,-149.084
411.14,730.292,-123.22
108.336,674.66,102.724
381.86,635.132,273.524
764.94,438.712,249.124
758.596,234.484,97.844
779.824,212.768,216.428
728.34,144.692,358.68
743.956,93.94,288.896
848.388,71.492,144.204
984.784,19.276,-103.944
946.72,45.384,144.448
886.696,-13.176,183.732
805.688,-48.312,230.58
679.784,-40.26,214.72
574.62,-35.136,75.884
490.928,38.796,-26.596
260.104,75.152,189.588
125.172,106.872,135.42
194.956,67.832,96.868
111.996,23.424,61.488
163.48,11.468,34.16
136.152,17.08,73.932
132.98,28.06,92.476
208.864,-17.568,38.064
334.036,-53.436,-28.06
377.712,-57.34,-24.644
426.024,-53.436,-3.416
456.524,-71.004,76.372
667.096,-69.54,-13.42
680.028,-96.38,-90.036
681.248,-30.5,-130.296
705.16,-10.492,-122.488
745.42,-68.32,11.224
929.396,-290.604,-80.764
1118.252,-383.324,-250.344
1237.08,-491.66,-193.492
1305.644,-631.96,-143.228
1574.776,-849.364,-221.064
1874.164,-955.992,-406.26
1858.06,-1001.62,-350.384
1768.512,-970.876,-183.0
1750.212,-998.692,-65.88
1850.984,-1042.612,-25.864
1969.568,-1095.072,55.144
1989.088,-1155.096,166.164
2048.136,-1179.74,215.696
2043.256,-1180.96,316.468
1991.772,-1118.496,406.504
2028.616,-1119.716,389.912
1919.304,-1133.38,437.736
1786.324,-1084.824,484.34
1673.108,-1090.192,494.344
1581.608,-1103.612,519.72
1429.352,-1108.736,532.896
1389.336,-1056.276,453.596
1245.132,-982.832,452.376
1138.016,-906.704,454.816
1088.728,-849.364,434.32
1001.132,-807.396,398.94
964.288,-724.924,380.396
896.456,-638.548,387.716
775.92,-597.068,332.572
652.7,-461.16,330.864
626.348,-384.3,296.948
524.844,-308.66,284.016
476.044,-229.116,246.928
443.592,-148.84,264.008
407.48,-86.132,247.416
451.4,-26.84,213.744
492.148,-16.104,177.144
425.292,-58.072,106.384
512.156,44.896,81.496
615.612,68.564,114.192
729.072,79.3,170.556
874.252,8.784,112.24
599.02,-80.52,175.436
525.576,30.744,223.26
539.972,116.388,260.592
598.776,191.052,200.812
695.888,228.384,69.052
556.564,290.116,157.38
443.104,374.296,195.444
425.78,422.364,152.012
433.832,540.216,161.772
491.416,587.308,129.076
533.384,618.784,60.268
515.084,643.672,13.908
383.568,753.96,100.284
257.908,814.228,159.82
241.316,789.34,140.544
301.096,842.044,96.38
264.74,934.276,69.784
244.488,1004.304,31.964
180.316,992.348,4.88
121.512,986.98,13.176
54.9,1027.24,47.58
40.016,1087.996,66.612
23.424,1037.976,11.712
100.284,1009.184,-45.872
86.62,1013.576,-8.784
-51.972,1131.184,137.616
-193.492,1135.332,185.44
-69.052,1056.764,64.172
64.416,1049.2,56.364
128.344,1110.444,49.044
32.208,1181.692,87.108
-40.016,1183.888,21.472
-22.448,1176.812,-30.5
-34.648,1181.936,4.392
-83.692,1185.84,56.852
-118.096,1152.412,53.68
-118.34,1077.992,-39.528
-99.308,1058.716,-81.984
-53.192,1081.896,-104.676
-37.332,1095.072,-120.292
-25.864,1067.5,-140.3
-32.696,1027.972,-135.664
-45.872,1013.576,-73.444
-7.076,1010.648,-35.868
3.172,1002.596,-6.588
-3.66,988.444,48.068
2.44,956.48,78.08
34.892,952.576,86.864
76.86,965.752,81.496
92.476,975.268,73.2
70.028,979.904,65.88
151.28,996.496,11.224
156.404,1005.28,-19.276
86.864,1004.792,11.956
89.304,1011.136,28.548
68.564,995.764,47.824
3.66,970.632,89.06
-3.904,949.648,125.904
53.68,950.868,107.36
40.504,956.236,121.024
38.552,951.844,127.368
96.38,968.436,101.992
137.372,988.932,81.008
188.612,997.472,49.776
259.128,1023.092,3.66
229.848,1038.464,-4.88
210.816,1044.076,-24.156
195.2,1043.344,-32.696
133.956,1022.36,-13.176
111.752,1001.132,15.128
126.148,977.22,14.396
77.104,960.14,51.24
39.04,943.06,79.544
40.016,951.844,85.4
76.616,968.436,65.636
78.324,971.852,63.44
90.036,970.144,64.416
183.488,979.172,15.616
180.56,990.64,13.176
168.36,992.348,21.472
148.352,993.568,11.224
112.728,996.984,18.544
130.784,1008.452,12.932
147.132,1012.112,1.464
146.156,1011.38,-9.516
128.344,1006.744,16.592
124.684,996.008,29.28
109.8,988.688,39.528
96.868,984.54,50.996
75.152,979.66,70.028
105.896,977.22,53.192
106.628,979.904,51.484
91.744,969.9,56.12
101.26,976.488,55.632
129.076,986.492,37.576
124.684,988.688,40.016
109.556,979.172,49.044
133.468,981.368,35.868
128.1,981.856,27.572
109.556,969.412,26.596
119.072,972.584,11.224
127.124,991.128,6.588
117.608,996.252,10.736
129.564,997.716,11.712
146.888,989.176,-0.732
133.712,979.66,7.808
144.204,985.028,8.052
139.568,986.004,5.124
137.372,990.884,7.564
148.84,995.764,3.904
144.692,986.492,-1.464
146.156,987.712,-2.196
142.74,990.396,3.172
120.78,983.32,16.104
103.456,978.684,27.572
103.212,979.66,31.964
104.432,974.048,33.184
134.2,983.32,20.008
149.572,989.908,3.904
148.352,991.86,-3.416
154.94,995.276,-7.076
145.912,989.176,-13.908
136.396,991.372,1.22
130.784,989.176,9.516
108.336,977.708,19.276
104.432,971.12,22.692
113.216,981.368,18.3
103.212,981.368,17.568
101.504,975.268,16.836
120.292,985.516,9.76
128.832,989.42,14.396
121.512,982.588,28.06
139.812,974.536,22.448
151.28,983.808,22.692
162.016,989.176,20.252
163.724,991.128,9.76
157.624,993.324,2.928
144.204,999.668,-1.22
127.612,999.18,5.612
134.2,992.348,-4.636
130.784,984.052,-5.368
131.76,984.052,-6.344
125.904,982.832,6.344
132.736,988.932,8.296
125.172,987.224,18.3
107.848,974.048,30.256
129.076,968.192,25.376
122.976,972.096,30.988
105.652,968.924,40.992
101.748,970.388,43.188
141.764,976.488,23.18
164.944,986.98,-8.052
153.964,998.448,0.732
168.848,1006.5,-5.368
159.576,1005.28,-7.076
129.564,994.056,13.908
131.272,987.224,21.716
129.076,980.392,8.784
127.368,979.66,5.856
136.64,985.272,5.612
130.784,982.832,8.052
138.104,981.856,11.224
147.132,983.076,13.908
136.152,980.88,23.912
140.056,978.196,25.864
142.496,982.1,16.348
117.608,981.368,32.208
119.56,979.66,39.772
141.276,979.904,22.936
138.592,982.588,29.28
151.28,983.076,16.348
146.888,992.348,14.396
159.088,991.616,5.856
143.716,996.008,18.544
147.376,986.736,18.788
144.204,983.808,19.032
147.62,980.392,10.004
141.032,987.712,10.248
143.472,989.176,12.444
146.156,988.2,12.932
132.004,981.368,24.4
128.832,975.024,32.94
116.876,966.728,34.404
119.072,962.58,35.136
125.172,965.752,31.476
151.524,974.536,17.324
155.916,981.368,11.468
154.696,981.856,16.836
159.82,979.66,10.248
176.9,981.856,-1.22
166.164,989.908,10.98
164.212,995.276,13.664
156.16,996.008,17.324
177.144,994.788,17.812
178.608,991.616,13.664
172.996,988.444,22.448
166.896,983.564,18.3
165.188,987.712,18.544
156.892,988.932,29.768
180.072,990.884,13.908
161.528,991.128,14.64
161.04,988.444,24.644
178.608,981.368,5.368
160.552,982.588,11.712
145.424,982.344,26.84
139.568,984.784,37.576
144.204,996.496,30.256
127.856,1038.464,60.512
152.744,1063.108,68.32
153.72,1117.52,95.648
151.28,1180.96,120.78
134.444,1235.616,169.58
96.136,1282.708,211.304
12.2,1332.24,241.56
-141.764,1421.056,261.568
-238.388,1430.328,316.712
-225.212,1348.344,302.072
-187.88,1317.6,312.808
-125.66,1329.312,296.704
11.712,1289.54,285.724
88.816,1285.88,280.356
-36.356,1329.068,264.252
-18.3,1299.544,308.66
204.96,1227.808,289.872
318.176,1076.528,237.656
388.936,961.848,128.832
341.6,878.4,30.744
458.72,830.82,21.228
604.632,744.444,1.708
538.508,564.372,142.496
620.492,341.356,201.544
781.776,171.776,161.772
742.248,3.904,233.752
769.82,-103.212,298.9
710.772,-149.328,379.908
793.976,-162.016,211.304
1012.844,-184.708,-26.596
908.9,-198.372,13.664
704.428,-169.336,95.892
648.796,-177.876,128.344
517.524,-192.272,155.916
265.472,-180.804,209.352
118.584,-146.156,243.512
12.688,-146.156,216.428
-7.564,-113.216,162.504
80.276,-59.048,133.224
223.748,-49.776,119.56
334.768,-89.548,51.484
359.168,-68.076,24.4
311.588,-68.564,-65.148
340.38,-52.216,-77.836
497.028,-20.496,-162.504
637.084,-22.692,-202.276
716.384,-12.444,-314.272
766.892,47.336,-248.636
634.888,25.864,-168.848
668.804,-1.708,-175.192
960.384,-43.676,-286.456
1309.304,-116.388,-320.86
1711.172,-399.428,-268.888
2064.972,-647.82,-345.26
2078.148,-807.152,-201.788
2143.784,-768.844,-103.456
2419.016,-787.632,-151.524
2451.712,-789.828,-78.324
2433.412,-811.056,-57.096
2315.56,-788.12,-10.492
2224.792,-781.776,-14.64
2149.884,-797.148,34.16
2100.352,-821.06,92.232
1979.084,-845.216,237.412
1835.612,-854.244,370.88
1703.12,-858.148,502.884
1713.856,-870.104,555.1
1631.628,-887.916,638.792
1548.18,-859.856,662.704
1468.636,-857.66,641.964
1370.548,-796.904,596.58
1339.56,-754.204,470.92
1187.548,-696.376,412.604
1039.928,-628.788,365.024
876.692,-568.52,365.268
656.604,-483.364,340.38
576.084,-367.952,277.428
437.98,-246.684,192.516
259.86,-114.924,230.58
218.868,-24.156,138.836
172.264,85.4,77.836
191.784,183.244,53.924
162.016,209.352,-17.08
213.012,285.48,-40.504
291.824,311.588,-98.82
389.18,342.332,-104.188
438.224,366.488,-116.388
385.276,374.296,-101.26
524.112,396.744,-91.012
695.644,312.564,-126.392
827.16,219.6,-48.068
900.604,176.412,12.444
840.092,153.964,44.408
752.984,132.736,44.896
893.284,163.968,23.424
872.544,133.712,1.708
814.228,224.724,4.636
872.056,244.244,-26.352
810.08,254.98,-40.26
692.228,257.42,-26.84
510.936,380.396,108.336
436.028,485.072,70.028
437.248,543.144,-55.876
401.38,680.028,-70.272
352.824,780.312,-66.124
213.012,845.46,-50.02
221.064,891.82,-98.088
54.9,982.588,2.684
-121.268,1119.472,200.568
-118.584,1093.364,219.6
-12.2,1030.412,95.16
-30.256,1036.268,-72.956
-266.936,1096.536,-48.556
-469.456,1252.696,34.892
-504.348,1248.304,0.244
-400.648,1205.116,-69.052
-162.504,1186.084,-167.384
-45.14,1180.228,-117.12
-117.12,1246.108,25.864
-252.784,1189.012,72.956
-275.964,1145.336,31.964
-246.196,1137.772,-31.72
-321.348,1181.692,45.384
-314.028,1174.372,42.944
-171.532,1130.94,-81.74
-110.288,1102.88,-159.088
-72.224,1111.176,-129.32
-61.488,1128.012,-123.22
-59.78,1147.288,-111.996
-45.628,1134.6,-57.34
6.832,1075.308,26.596
8.052,1006.744,77.104
33.428,976.244,83.692
-45.384,972.584,99.552
-15.372,982.1,99.064
26.84,1016.992,47.58
-10.004,1019.92,32.696
-12.444,993.568,32.452
76.86,1000.156,-20.252
79.544,1028.948,-28.792
65.148,1023.824,-1.22
139.812,1004.304,-17.812
149.816,1013.332,-19.52
106.384,996.252,-9.516
87.84,998.936,4.148
60.268,1002.108,11.224
87.596,997.228,-17.08
96.38,1015.284,-15.128
58.072,1007.476,13.664
48.556,998.448,48.8
61.976,978.928,42.456
47.824,945.744,61.0
88.816,937.936,28.548
49.776,964.532,37.332
48.068,959.896,27.572
53.436,988.444,30.256
84.424,1004.792,30.012
75.152,998.448,20.984
60.756,981.368,25.62
63.196,987.468,17.812
51.728,976.488,5.856
50.508,969.412,-1.464
65.392,1000.644,1.708
91.256,1012.112,-25.132
106.872,1025.044,-30.744
114.436,1023.092,-39.04
134.444,1015.04,-58.56
117.364,1022.36,-58.56
97.112,1014.308,-43.92
71.004,994.056,-19.764
66.612,995.032,-6.588
63.44,988.2,8.052
47.824,968.68,26.352
43.92,949.892,27.328
35.624,959.164,27.084
18.544,958.676,29.28
24.644,963.068,28.06
64.904,982.832,14.884
66.612,988.2,6.588
59.536,984.54,17.08
74.42,987.224,14.396
84.668,980.636,2.684
84.668,970.388,0.488
98.82,991.128,-5.124
108.336,998.204,-23.424
90.524,1005.28,-23.912
83.692,1018.456,-25.376
72.956,1011.38,-29.768
84.912,999.424,-43.92
69.296,998.204,-28.792
50.02,986.004,-11.712
32.208,978.196,11.224
84.18,980.636,-3.66
97.112,988.688,-2.928
77.592,989.176,16.592
81.252,988.688,15.372
93.696,987.712,-2.196
73.688,983.32,8.296
79.3,977.708,7.076
79.544,985.272,0.0
77.348,991.86,5.124
81.008,995.032,-0.488
81.252,995.52,-7.564
81.008,994.544,-18.056
73.444,995.276,-13.908
95.16,995.276,-32.208
84.18,996.984,-29.28
71.492,992.592,-14.152
94.916,995.764,-21.472
88.328,996.252,-15.372
73.444,983.32,1.464
101.748,985.516,-12.932
99.064,992.836,-13.176
84.668,987.956,5.612
99.064,990.884,2.684
99.308,992.104,-0.732
89.548,989.42,5.856
83.692,989.908,9.272
71.98,984.54,7.32
64.904,984.784,4.392
49.532,983.076,10.492
62.952,983.32,6.588
94.184,993.324,-10.492
87.108,995.52,-3.416
83.692,989.664,3.416
93.94,990.396,-5.368
62.464,986.248,8.052
63.684,978.196,16.348
96.38,989.42,-6.588
94.428,996.008,-6.832
83.936,991.372,-1.952
71.736,994.788,5.124
69.296,992.348,5.124
80.032,987.956,5.856
95.648,976.488,-11.468
84.912,985.516,-9.272
94.184,996.008,-12.932
88.084,1002.84,-12.688
71.492,1000.4,-0.244
76.372,988.2,6.344
80.032,977.22,-3.416
62.952,979.66,15.616
62.708,980.636,10.736
53.436,986.98,15.372
78.324,987.956,3.66
79.3,989.664,1.952
83.936,985.76,2.44
81.008,985.516,4.88
86.132,989.664,1.708
92.964,995.032,-2.196
93.208,994.788,-0.488
95.16,991.372,-4.636
93.94,993.08,-10.248
72.956,997.472,-4.636
75.64,996.984,-3.904
69.296,994.056,-2.196
73.688,986.736,-2.196
71.492,985.76,2.196
71.736,983.808,2.196
65.392,985.272,3.66
71.98,985.76,3.172
82.472,988.444,3.172
88.572,988.2,-1.952
85.644,992.592,2.684
72.224,991.616,4.148
70.272,991.372,4.88
65.88,987.712,4.148
65.88,988.2,0.732
66.856,993.568,-1.952
78.568,1002.596,0.732
82.472,1002.352,-2.928
91.744,1004.06,-1.464
94.184,1005.036,0.976
102.968,1006.256,-6.832
75.64,1008.452,5.124
61.732,1005.036,12.444
53.924,1005.768,17.08
41.724,999.668,17.324
-1.708,1014.552,27.816
-47.336,1048.956,45.384
-41.48,1082.872,37.088
-34.892,1118.008,25.864
-25.376,1141.432,32.94
11.956,1137.284,27.816
-27.084,1121.18,31.232
-7.564,1125.328,11.224
61.976,1096.292,-20.984
126.88,1068.476,-59.536
113.704,1064.816,-40.504
192.028,1072.136,-68.808
140.056,1096.536,-51.484
10.004,1180.472,3.66
-61.0,1215.852,28.548
91.744,1201.212,10.248
132.004,1188.768,-42.944
242.536,1207.556,-92.964
273.768,1124.108,-102.236
327.448,1145.58,-190.808
465.308,1095.56,-230.092
436.272,1027.972,-132.98
386.008,1031.144,-79.3
421.632,986.98,49.532
515.084,948.672,123.22
610.976,880.352,117.608
764.452,778.848,55.632
811.056,722.728,85.888
710.284,639.036,89.06
675.392,536.8,185.928
774.212,409.432,371.124
1067.744,224.236,246.928
1096.536,67.344,-19.52
866.444,82.96,237.9
946.964,10.248,263.276
886.696,-37.82,327.204
965.752,-79.056,225.212
997.96,-120.048,51.24
848.144,-152.256,138.348
730.048,-138.836,176.9
629.276,-135.42,287.432
471.408,-162.26,287.676
427.976,-199.348,251.32
399.184,-208.376,212.036
334.524,-178.364,167.384
255.468,-120.292,218.38
179.096,-91.256,219.356
14.64,-47.336,201.056
92.964,-17.324,127.124
165.432,-1.464,8.296
249.124,-45.384,-66.368
407.968,13.664,-120.048
451.4,41.724,-28.548
395.28,4.148,30.012
436.76,41.48,-127.612
486.292,113.948,-115.9
387.96,236.924,-49.776
407.48,180.316,67.832
571.692,29.28,80.52
762.988,-111.264,25.132
896.456,-202.52,-74.176
902.8,-294.508,-57.828
1089.948,-406.504,-123.464
1537.2,-583.648,-434.808
1825.364,-711.748,-537.288
1930.284,-738.832,-358.924
1847.812,-839.848,-184.952
1996.652,-1018.456,-271.816
2159.4,-1077.748,-318.42
2354.6,-1093.12,-295.972
2360.456,-1040.172,-222.04
2229.428,-1005.524,-181.048
2148.908,-980.636,-159.088
1984.452,-954.772,-54.168
1872.7,-887.916,5.368
1682.868,-917.196,34.648
1576.24,-904.996,71.98
1580.144,-979.904,129.32
1538.42,-993.568,264.496
1560.624,-1050.664,328.424
1533.296,-1096.048,323.544
1356.64,-1120.692,401.868
1396.412,-1028.216,458.476
1297.348,-975.756,505.324
1337.852,-893.284,512.4
1214.632,-884.5,456.524
1050.908,-819.596,557.784
1013.82,-752.008,535.58
832.772,-693.204,466.04
764.452,-540.948,436.516
629.032,-423.584,383.324
501.664,-321.836,308.172
475.8,-211.792,199.348
447.984,-154.208,174.704
447.252,-132.004,112.484
405.04,-135.908,31.964
330.864,-84.912,85.4
339.16,-62.952,118.828
313.784,-27.084,109.8
279.136,8.784,117.364
385.764,64.416,89.792
637.328,72.468,0.732
749.08,-2.928,-21.716
489.22,-40.26,48.8
527.528,63.684,66.856
575.352,117.12,116.876
581.94,165.432,142.496
608.292,201.544,152.256
624.152,288.408,98.82
608.292,375.028,67.588
512.4,436.028,94.916
486.292,507.276,100.772
559.248,560.468,6.344
604.388,600.484,-30.256
538.508,641.232,-6.832
362.584,684.42,88.816
259.86,769.576,104.676
261.812,838.14,43.188
127.856,883.036,132.736
127.124,918.172,118.828
-29.768,916.464,146.156
-185.928,1031.632,138.104
-243.268,1157.292,241.072
-146.4,1198.284,171.288
-143.96,1168.516,142.252
-195.688,1198.04,192.028
-152.5,1247.816,256.688
-161.284,1170.956,111.264
-61.0,1181.936,46.848
-20.252,1191.696,-10.004
-212.28,1204.14,125.172
-280.356,1179.252,172.752
-159.332,1106.052,78.324
-86.62,1098.244,55.632
-55.876,1083.36,32.452
-112.484,1055.3,11.956
-195.2,1031.876,-10.98
-163.48,1009.184,-84.912
-133.224,1038.22,-88.328
-72.468,1082.872,-76.372
-19.764,1092.876,-74.42
-4.636,1089.948,-70.76
-22.936,1064.084,7.808
-42.7,1058.228,-6.588
31.964,1034.316,-71.248
-21.228,1042.856,-36.844
-29.524,1038.22,-18.544
-3.904,1028.704,-21.472
21.96,1038.22,-31.72
72.956,1016.748,-10.492
105.652,992.592,-54.656
80.52,1007.476,-56.12
27.572,1009.428,-5.856
3.172,981.124,9.028
2.684,984.54,31.72
42.456,970.144,40.504
31.232,972.096,30.744
34.404,975.268,13.176
33.916,979.172,-5.612
35.868,984.052,6.344
67.1,991.372,-11.224
70.272,997.228,3.66
68.32,999.912,-14.884
61.976,990.64,-20.252
38.064,981.612,-8.296
65.636,988.444,-24.156
76.616,995.764,-34.404
68.076,1010.404,-28.06
70.76,1017.236,-31.476
61.244,1006.744,-12.2
63.684,998.204,-4.88
75.396,999.912,-3.172
65.392,1000.156,7.564
67.588,988.688,13.176
67.344,986.492,9.76
44.408,982.832,13.42
58.072,982.1,8.296
59.048,988.2,7.076
65.88,993.324,-20.496
44.652,998.692,-9.516
45.384,1008.696,-32.696
25.376,995.52,-26.352
17.568,984.052,-6.344
18.544,975.512,-12.688
20.008,976.732,-3.66
37.088,983.32,13.664
64.904,992.104,1.708
64.172,998.692,4.88
66.368,999.424,-2.44
60.024,1001.376,-7.076
54.9,1004.792,-9.76
47.092,998.204,-13.908
38.552,995.032,-7.32
32.696,985.76,-9.028
21.96,971.12,-4.636
33.916,982.588,6.588
66.368,990.152,-11.224
59.536,987.468,-19.764
54.168,996.74,-23.18
68.076,1004.548,-40.016
54.168,991.616,-50.02
30.012,989.664,-29.524
29.28,992.348,-25.376
40.992,988.688,-40.504
56.852,992.104,-26.84
57.096,995.032,-29.036
63.196,999.18,-37.82
44.164,996.496,-20.984
38.552,992.592,-10.98
67.588,983.564,-37.332
42.212,977.22,-10.736
48.312,977.708,-12.932
51.484,986.98,-5.856
24.4,992.836,21.228
28.792,988.2,29.036
24.888,980.636,19.764
23.668,959.896,-0.732
15.372,973.072,-0.244
33.428,983.564,-16.104
26.84,985.272,-18.788
49.776,991.86,-12.688
59.048,994.788,-22.204
45.872,992.104,-15.128
84.424,996.008,-37.576
79.056,1004.548,-49.288
47.58,1013.576,-33.184
66.612,1006.5,-47.092
56.852,1008.452,-45.872
28.06,993.568,-17.812
26.108,982.344,-5.856
45.872,977.952,-16.836
30.256,974.048,2.684
34.404,978.928,16.836
71.98,988.444,-12.688
67.588,996.008,-4.636
84.18,992.836,-10.248
86.376,993.812,-20.008
80.032,995.276,-30.012
49.288,998.448,-15.616
40.992,988.444,-11.224
29.28,982.344,-13.176
25.132,981.124,-2.44
34.404,981.612,3.416
51.484,987.224,-11.712
61.976,987.468,-8.784
65.148,990.152,-8.296
55.876,998.204,-0.976
84.18,992.348,-15.86
58.316,999.18,-3.66
67.588,1001.864,-0.244
63.928,1000.888,-6.588
61.732,1000.156,-8.296
69.784,990.64,-7.564
53.436,989.664,-13.908
41.236,986.736,-7.32
39.772,986.492,0.976
44.164,988.2,-5.368
44.896,989.176,4.392
43.676,989.664,21.96
55.876,984.784,12.932
57.584,994.788,25.864
67.1,995.764,29.036
66.612,996.252,25.132
70.272,991.128,21.96
62.22,993.08,24.4
66.612,986.004,12.2
53.192,990.396,11.956
53.68,985.516,14.64
54.9,986.736,4.148
50.264,990.152,9.028
46.604,992.836,15.128
51.24,994.788,14.396
55.388,992.348,15.128
59.536,991.128,18.056
51.484,996.984,28.06
37.82,1017.48,44.896
25.62,1032.608,75.396
-19.764,1098.976,93.208
-91.256,1214.144,146.156
-83.692,1283.928,195.932
-103.944,1309.548,225.456
-129.564,1319.796,288.896
-82.96,1379.82,303.78
49.776,1379.332,300.12
198.128,1305.4,194.468
48.556,1363.472,164.944
4.636,1445.7,114.436
-15.616,1382.748,126.636
-117.364,1344.928,111.996
-39.04,1375.672,98.576
-0.976,1317.6,157.38
-15.372,1217.56,160.552
-108.092,1151.192,210.084
-63.684,1039.928,288.408
-27.328,959.896,279.38
274.5,913.048,210.328
371.856,796.66,165.188
409.92,764.94,162.26
464.332,771.528,106.872
442.128,767.624,158.844
543.144,651.48,260.836
561.444,383.568,280.844
572.424,98.576,227.408
811.788,-66.856,319.64
856.196,-188.368,539.972
951.112,-373.808,215.94
926.712,-251.808,191.052
688.08,-67.832,227.896
659.776,90.036,66.612
652.456,88.572,74.908
630.984,101.504,-51.728
560.224,115.9,-78.812
519.72,210.084,43.432
494.344,185.684,-59.292
254.98,129.32,-62.464
31.964,78.324,-34.892
-6.344,78.324,4.636
-48.312,-27.328,23.668
-171.776,-73.2,113.46
-166.896,-119.804,146.4
-87.352,-89.548,134.444
125.172,-88.816,-92.72
223.748,-102.48,-172.02
212.036,-22.692,-46.36
396.744,-33.916,51.728
613.904,-90.28,-98.576
712.968,-86.132,-160.064
803.98,-57.096,-233.996
728.096,-138.836,-311.832
716.14,-262.788,-107.604
854.244,-430.904,-10.736
1153.388,-625.86,-365.756
1358.348,-754.448,-588.772
1318.576,-804.224,-627.812
1618.94,-881.816,-756.888
1696.776,-1039.44,-710.772
1887.828,-1181.936,-639.036
2220.156,-1392.996,-433.1
2317.268,-1549.888,-247.416
2552.484,-1456.68,-121.756
2531.988,-1371.524,-59.78
2491.484,-1228.296,-80.276
2245.776,-1082.628,-33.428
2160.864,-998.936,-161.284
2058.872,-1026.02,-115.656
2103.28,-1185.108,5.124
2068.632,-1418.616,201.544
1882.948,-1598.444,314.516
1516.948,-1596.736,594.628
1386.652,-1484.008,621.712
1337.364,-1420.812,558.272
1077.992,-1344.196,672.464
923.784,-1247.572,745.176
1023.092,-1150.948,713.7
1096.292,-1120.936,657.336
1088.24,-1084.092,546.56
879.864,-1040.66,548.268
778.604,-904.264,630.008
622.688,-841.556,564.372
304.268,-739.564,522.404
292.556,-534.604,485.072
284.26,-412.116,355.508
147.62,-306.952,279.136
56.852,-147.864,94.672
33.672,-5.368,9.028
-15.616,71.004,53.192
-7.32,40.992,-50.02
134.2,67.1,-49.532
226.432,21.228,-78.08
478.484,-2.928,-144.204
540.704,-79.056,-119.804
494.1,-219.356,-94.428
477.996,-198.86,-4.88
646.844,-176.412,14.152
679.784,-152.744,-5.368
782.996,-189.588,-99.308
713.7,-115.168,112.728
554.368,68.564,221.796
453.352,219.844,144.936
673.928,319.152,-116.876
729.804,416.264,-3.416
712.968,536.556,130.54
553.636,521.184,143.716
308.904,608.048,-13.176
324.764,848.388,-26.596
327.936,1047.004,109.8
516.304,999.18,0.244
640.988,1056.764,-239.852
21.228,1052.616,-204.228
-234.728,1242.448,55.388
-264.74,1202.432,53.68
-100.528,1113.128,-65.88
1.952,1064.816,33.428
-40.748,1117.52,241.072
-145.912,1175.592,251.076
-206.668,1151.68,202.032
-311.832,1161.684,45.872
-508.252,1174.372,49.044
-696.132,1108.98,64.172
-1019.432,1132.892,62.464
-1088.24,1039.928,7.564
-949.404,992.348,-46.116
-569.252,1062.62,-100.284
-293.288,1166.32,21.716
-106.872,1167.296,99.064
-24.644,1054.324,142.008
28.792,939.888,64.904
31.72,929.64,4.88
33.916,1026.752,-21.716
51.24,1130.452,-64.904
81.008,1174.616,-124.44
-4.636,1188.28,-63.44
-110.532,1121.424,31.476
-146.888,951.6,85.156
-174.46,848.388,91.256
-80.276,873.764,106.872
-104.676,945.5,48.8
-76.86,997.716,-35.624
-100.528,1014.552,-18.544
-62.22,977.952,-40.26
-103.944,951.356,-5.124
-38.308,922.564,14.64
-35.624,937.692,-9.272
-114.924,957.944,45.872
-116.632,977.708,51.24
-98.82,979.66,22.448
-58.316,985.028,39.772
-31.964,999.424,7.32
-26.352,1003.328,-15.86
-21.716,1002.352,-17.324
-20.252,983.808,-16.104
-21.228,986.98,-30.012
-48.556,1003.816,-12.444
-49.532,1018.456,-4.636
-48.8,1016.748,-5.612
-63.928,1007.72,8.54
-92.72,986.004,20.74
-93.452,978.196,27.084
-39.284,965.752,-12.688
-10.736,990.64,-20.496
-6.832,1006.5,-12.688
13.908,995.276,-24.644
-1.464,986.248,-14.884
-25.376,982.588,17.812
-19.032,976.976,2.196
-56.364,976.976,-1.708
-104.188,972.096,3.904
-119.56,984.54,-20.008
-129.076,991.128,-12.932
-92.476,985.028,-44.896
-78.568,991.86,-38.552
-68.808,1005.524,-28.304
-50.996,1000.888,-11.712
-19.276,990.884,13.42
-17.568,990.396,58.072
6.1,983.32,69.54
2.928,975.756,49.044
-13.42,993.568,43.92
-41.48,989.664,9.272
-65.392,985.516,-3.66
-99.796,988.2,10.736
-69.296,969.656,-16.348
-50.996,987.468,-15.128
-50.264,1009.916,-2.928
-38.796,1017.48,-1.708
-36.844,1009.916,-2.684
-56.608,997.96,11.712
-42.212,992.104,6.1
-35.38,992.104,-10.004
-38.308,996.984,-13.664
-26.352,1000.644,-8.052
-32.208,998.936,-18.544
-60.512,987.712,8.784
-74.908,982.1,24.4
-61.244,972.828,-1.22
-61.244,970.632,7.808
-43.188,987.468,7.32
-39.04,991.86,4.636
-43.432,979.66,15.128
-55.144,968.436,26.596
-56.852,971.12,15.616
-38.064,985.516,0.244
-58.072,996.008,-4.88
-72.468,991.616,-5.124
-70.516,980.88,-6.832
-64.172,985.516,-9.76
-58.072,1001.864,-2.196
-37.82,998.936,13.42
-39.284,986.492,15.86
-53.192,986.736,35.136
-49.044,984.784,7.32
-55.632,983.564,18.3
-32.696,991.128,0.488
-40.504,991.372,1.464
-39.528,993.812,6.344
-27.816,1000.156,-2.684
-2.44,1005.524,-36.844
-22.936,1013.332,-14.884
-26.84,1008.94,-10.492
-36.6,997.716,-2.684
-43.188,990.396,12.444
-42.212,976.488,21.228
-53.192,981.368,25.62
-60.024,967.948,27.816
-52.216,965.02,19.764
-43.676,966.24,-0.732
-56.852,978.928,-0.976
-69.54,987.956,12.2
-58.316,987.224,9.516
-48.8,986.736,4.636
-56.12,991.372,12.444
-47.336,994.056,15.86
-35.624,991.128,16.592
-49.044,990.152,21.228
-40.504,994.3,40.992
-31.476,989.908,30.5
-28.06,983.564,16.348
-30.5,993.568,30.256
-14.64,998.448,4.392
-12.932,1001.132,4.88
-18.544,996.984,6.832
-35.136,993.812,10.736
-40.992,984.296,9.028
-55.876,981.124,15.616
-55.632,989.664,15.86
-51.24,989.664,17.324
-46.604,987.468,16.104
-45.384,985.028,18.056
-37.088,986.736,15.128
-40.992,998.204,16.104
-50.264,995.276,24.4
-55.632,984.296,25.376
-63.44,982.1,28.548
-79.788,978.928,39.528
-82.472,976.244,35.868
-74.42,982.344,18.3
-73.2,990.884,27.328
-59.536,993.812,41.48
-33.916,990.152,35.136
-22.204,996.008,45.384
-19.764,1000.4,43.676
-15.616,999.668,26.352
-19.276,1002.596,25.864
-33.428,1010.892,20.252
-51.972,1017.48,18.788
-90.28,1032.608,46.848
-102.724,1050.176,57.096
-132.248,1091.168,59.292
-154.452,1136.064,49.044
-198.372,1193.16,1.22
-318.42,1273.924,35.38
-316.956,1384.7,143.716
-77.836,1376.648,118.584
82.96,1355.176,68.564
68.32,1338.828,70.76
-59.048,1407.148,85.4
-53.68,1416.42,119.804
115.656,1375.672,84.912
199.592,1312.476,40.504
209.352,1285.636,102.48
224.48,1232.444,127.368
179.584,1171.688,69.784
45.628,1119.716,35.38
253.516,1133.624,16.836
315.004,1082.14,23.18
413.336,971.364,26.352
486.292,830.088,-92.232
306.952,737.856,46.36
445.788,646.844,160.308
395.036,496.052,312.076
548.512,367.464,246.928
540.948,283.284,233.508
623.908,206.912,266.204
762.256,109.312,70.028
784.46,104.432,50.996
734.928,154.94,-37.576
649.284,118.34,-11.956
778.36,31.964,-68.32
633.424,-16.104,36.844
630.496,-29.28,46.116
518.256,-0.488,14.152
416.02,19.52,-16.348
346.48,32.208,-34.892
247.66,32.452,25.864
229.604,23.668,22.692
340.624,19.764,-34.16
225.944,-7.32,-0.732
199.836,-9.76,-46.36
254.492,12.932,-35.38
261.324,1.708,-33.184
417.24,20.252,-102.724
322.568,41.724,-65.148
411.384,73.932,-125.66
422.852,-26.108,-32.94
495.808,-111.264,18.788
668.804,-165.188,-10.492
667.584,-177.876,62.708
669.78,-170.068,26.108
701.988,-167.628,-2.928
815.692,-257.176,-38.552
792.024,-393.816,100.772
997.716,-553.392,156.16
1061.4,-741.516,118.34
1191.208,-884.744,53.68
1395.68,-937.692,-5.856
1609.424,-1045.54,-61.0
1683.356,-1123.62,37.82
1812.92,-1206.824,103.944
1957.612,-1351.272,130.54
2047.892,-1461.804,225.7
2199.66,-1469.124,264.496
2198.44,-1390.8,287.188
2085.956,-1293.688,338.672
2002.996,-1238.544,315.492
1927.6,-1139.724,372.588
1735.328,-1104.832,413.092
1685.552,-1099.22,424.316
1545.496,-1124.596,508.252
1498.648,-1108.248,500.932
1420.812,-1086.044,499.712
1292.956,-1051.152,495.808
1271.728,-1001.132,438.712
1151.68,-939.156,439.932
1010.648,-892.552,443.836
981.612,-826.428,433.588
900.604,-770.308,427.488
772.504,-711.504,412.848
707.6,-608.048,352.092
691.496,-512.644,324.52
632.692,-440.42,304.512
663.192,-340.868,244.976
606.584,-242.292,230.58
437.248,-163.968,233.264
434.076,-34.892,172.264
412.848,26.596,174.704
536.8,71.004,134.932
563.884,99.552,77.348
432.368,144.448,119.072
538.264,187.636,109.312
560.712,173.484,49.532
690.032,170.068,75.396
742.98,132.98,77.104
689.3,89.792,41.236
661.24,166.164,61.0
702.476,186.66,32.208
777.384,187.392,30.744
819.596,151.768,67.588
782.996,111.752,53.192
840.336,114.192,101.748
827.16,106.384,73.2
886.452,131.76,49.288
920.856,119.804,32.452
925.736,102.968,-6.588
1074.576,88.816,-9.272
1134.6,9.76,16.104
1136.796,-117.852,139.568
1201.7,-158.6,164.944
1082.14,-110.532,283.284
1303.204,-35.624,174.948
1145.336,-110.044,140.788
1002.84,-29.036,236.924
934.764,63.928,392.352
960.628,95.892,266.448
846.192,107.848,213.5
692.96,249.856,153.476
494.588,347.456,131.76
102.968,448.96,220.82
-34.892,599.752,173.24
-14.884,693.936,91.988
-4.88,839.116,102.48
-10.004,901.824,181.048
-23.912,862.54,126.148
-36.6,876.204,75.64
-268.156,1005.036,224.48
-328.668,1023.824,190.564
-231.556,1011.624,46.36
-197.152,1026.02,10.492
-339.892,1118.74,101.016
-495.32,1148.02,130.54
-500.932,1116.056,92.72
-345.016,1005.28,124.196
-172.02,958.432,-9.272
-267.668,1020.652,-59.536
-349.652,1128.012,-114.924
-355.264,1202.676,-147.132
-230.336,1230.248,-125.416
-54.656,1184.132,-161.772
-138.592,1141.92,-247.416
-310.856,1150.948,-261.812
-341.112,1206.336,-214.72
-242.78,1249.036,-247.172
-105.408,1209.996,-204.96
-42.456,1133.136,-82.96
-44.408,1034.316,-8.784
-25.376,955.504,-12.932
-100.528,948.916,34.404
-115.168,932.324,10.492
-87.108,962.336,-15.616
4.636,1029.924,-80.276
-17.324,1067.256,-72.712
-48.068,1057.252,-27.328
32.208,1021.14,26.596
43.676,970.144,91.744
48.312,905.728,128.832
154.208,883.036,96.38
151.524,928.664,97.6
139.568,961.36,54.168
147.132,1004.304,-20.008
117.852,1068.964,-92.964
44.896,1097.268,-140.544
-17.812,1110.688,-129.076
21.228,1093.364,-96.38
-5.612,1046.516,-50.752
-21.472,979.416,0.976
3.66,925.98,49.288
-7.808,913.048,126.392
38.552,911.584,153.72
159.576,956.724,153.72
217.404,978.684,125.172
210.084,980.88,86.132
144.204,986.004,38.552
76.616,995.032,15.372
81.74,1010.16,-32.696
45.628,1026.02,-46.604
0.488,1027.972,-37.332
5.612,1035.536,-21.96
20.496,1016.748,-14.152
9.516,986.736,8.296
56.364,955.016,-8.296
21.96,965.752,2.44
3.66,965.752,18.056
55.632,987.712,1.22
88.572,1007.232,-7.076
98.332,1011.624,-0.976
154.94,1008.696,-29.036
130.052,1017.236,-20.984
118.584,996.252,-15.616
99.308,990.884,0.488
79.788,979.66,19.52
60.512,965.996,37.332
54.656,970.144,49.532
44.652,965.508,31.232
45.872,963.8,22.448
56.12,973.316,4.392
42.944,980.88,1.464
69.784,978.928,-15.86
75.152,989.908,-12.444
63.928,994.056,-7.076
55.876,999.912,2.684
62.464,992.104,-8.052
65.88,983.564,-11.712
59.78,981.856,5.368
51.484,986.248,15.372
38.796,999.424,28.304
9.516,1007.476,42.7
48.8,1005.768,0.488
58.316,1017.968,-12.932
55.144,1013.332,2.196
41.236,995.764,8.052
52.704,993.324,26.352
57.096,995.276,50.264
81.008,982.1,45.384
156.892,987.956,-5.368
157.136,1007.476,-0.488
171.044,1014.308,-2.684
150.304,1019.676,1.708
103.7,1007.72,25.132
61.732,980.392,37.088
42.7,959.164,15.372
35.868,951.112,-1.952
51.728,963.068,-25.864
35.38,981.124,-14.884
33.428,979.66,-10.736
46.116,988.444,-7.808
45.872,985.76,7.076
69.052,965.02,-7.564
71.004,971.852,-7.076
52.948,980.636,8.784
34.648,985.516,2.928
46.116,1003.572,-19.52
25.864,1015.284,-7.808
13.908,1008.452,-6.588
35.868,989.42,8.784
49.532,973.072,13.908
74.664,972.828,13.664
94.916,1000.156,14.152
115.412,1019.188,-2.196
103.944,1020.896,5.124
100.528,1000.644,16.104
114.68,984.54,2.684
98.332,978.44,12.444
90.768,964.532,16.104
95.648,970.388,6.588
85.888,978.928,10.248
67.1,977.22,8.052
67.344,984.296,-11.956
64.172,992.348,-33.184
39.284,990.152,-24.644
68.564,985.516,-39.04
78.08,987.956,-37.332
93.94,990.64,-25.376
97.844,1005.036,-6.588
83.936,1006.988,9.028
77.104,1005.768,16.836
67.344,997.96,30.744
55.388,988.2,25.864
59.78,982.588,19.032
79.056,989.664,6.344
71.248,1007.232,14.64
74.908,1032.12,14.884
87.84,1046.516,10.004
96.136,1045.296,10.248
91.988,1045.54,19.764
19.764,1090.68,30.5
-22.204,1153.388,50.508
47.336,1151.68,20.984
38.552,1158.512,3.904
16.348,1216.34,27.328
-35.136,1260.26,81.008
-123.708,1276.608,119.56
-168.36,1242.204,115.656
-181.292,1251.72,94.672
-68.32,1268.068,-17.568
-128.832,1326.872,-98.82
-73.688,1312.476,-72.224
-14.64,1256.356,-89.06
-6.1,1261.48,0.244
52.948,1279.048,102.724
72.956,1261.236,133.956
22.204,1237.568,183.488
128.344,1304.424,187.148
392.596,1250.5,122.488
396.012,1122.888,44.652
539.728,1052.128,77.836
527.04,928.42,22.936
598.288,778.116,21.472
641.476,613.66,75.64
769.82,438.224,219.844
780.8,159.576,198.372
648.796,30.5,156.16
619.516,-97.112,384.3
825.94,-108.336,193.492
860.588,-134.444,63.196
939.888,-175.924,23.424
796.172,-190.32,213.012
760.548,-194.224,187.88
759.328,-181.78,119.316
669.536,-77.592,0.244
628.788,17.812,14.884
429.196,20.252,31.964
348.432,43.92,85.888
194.468,38.796,105.164
88.328,88.816,109.068
115.412,73.688,81.74
-77.592,27.572,159.088
5.124,-35.624,133.224
154.208,-92.72,36.6
68.32,-133.224,149.084
141.032,-77.836,114.192
255.956,-121.756,21.472
272.304,-177.388,26.84
396.256,-152.256,-37.088
411.384,-113.46,-77.348
439.932,-139.324,-1.952
553.88,-193.98,-125.416
748.592,-221.552,-280.844
644.404,-290.36,-62.708
838.384,-391.132,-70.272
867.664,-523.868,-122.976
916.708,-696.62,-197.884
1226.832,-734.684,-123.464
1329.068,-1008.452,-35.868
1584.536,-1257.332,12.444
1820.484,-1339.56,-106.872
1951.512,-1391.044,-164.212
2018.368,-1362.496,-101.992
2281.4,-1319.796,-107.36
2369.728,-1337.12,-67.832
2210.884,-1310.768,-4.148
2029.104,-1252.696,142.984
1944.192,-1183.888,234.728
1871.236,-1149.972,327.692
1854.156,-1149.972,336.964
1760.704,-1197.064,329.644
1704.34,-1232.932,343.308
1602.592,-1291.004,447.008
1442.284,-1305.4,602.68
1370.06,-1286.124,615.612
1250.256,-1270.02,591.212
1174.616,-1220.0,532.652
1102.148,-1136.796,493.856
1076.528,-1083.116,471.652
894.748,-1034.072,485.316
937.204,-939.644,451.156
936.96,-894.992,415.044
652.7,-812.764,387.716
732.488,-640.988,368.684
679.052,-556.32,399.672
517.036,-496.784,366.0
475.312,-354.776,350.384
416.02,-305.488,320.372
353.068,-190.076,290.36
377.712,-111.264,252.296
447.74,-68.564,187.148
359.412,-26.108,69.54
435.54,76.616,-7.564
454.084,122.976,11.712
553.88,92.232,50.264
521.672,14.396,55.876
461.648,30.012,90.28
581.696,71.98,57.828
691.008,74.908,5.124
846.68,27.572,-41.236
888.648,-90.768,15.372
1049.688,-159.576,-23.912
1105.076,-185.196,20.984
1119.228,-208.376,80.764
1049.932,-229.36,52.46
1055.3,-216.184,82.96
566.324,-197.152,250.1
826.916,7.32,320.616
857.172,1.464,189.588
983.808,81.984,33.916
664.9,101.504,93.208
265.716,206.912,174.704
29.28,376.248,151.28
118.34,597.068,-18.056
348.92,733.952,-123.952
190.564,714.188,86.62
-61.488,741.516,235.948
-198.372,751.764,279.136
-258.884,860.344,208.376
-184.22,1015.284,106.384
-254.492,1134.356,152.744
-331.84,1156.072,197.884
-299.144,1172.42,249.368
-305.976,1130.696,231.8
-242.78,1114.348,120.292
-216.184,1147.044,109.312
-128.832,1187.304,86.132
-211.304,1152.412,94.916
-407.236,1164.368,190.32
-419.68,1121.18,111.264
-273.28,1100.196,32.208
-316.956,1109.712,131.516
-297.192,1139.968,117.12
-322.08,1155.828,166.896
-253.272,1102.148,68.076
-281.82,1072.38,80.276
-177.632,1117.764,79.544
14.64,1157.292,-32.696
24.644,1194.38,2.196
77.348,1159.488,44.164
97.112,1129.964,39.772
13.176,1099.708,82.472
-21.716,1045.052,121.024
-33.672,1034.804,151.28
-44.164,1007.964,124.44
-23.912,966.24,148.352
14.64,950.38,119.804
-28.792,959.164,131.272
-25.62,954.528,140.788
25.132,975.756,103.7
47.824,1001.864,58.072
85.644,1004.548,3.416
93.94,1032.852,-36.844
85.156,1047.98,-61.0
66.124,1046.76,-48.556
57.584,1026.752,-37.82
48.068,1011.624,-4.148
2.684,993.324,43.188
-24.4,962.58,55.876
-20.74,952.088,70.272
-14.64,946.232,77.104
42.212,931.592,48.312
29.28,961.36,64.904
22.936,987.712,71.248
22.204,982.588,63.684
63.196,982.588,36.112
67.344,1001.132,37.088
53.192,1002.596,19.764
75.64,1020.896,29.036
95.404,1025.288,48.068
54.656,1015.528,76.128
49.044,1007.476,74.176
40.504,977.464,49.532
24.888,968.68,61.244
49.776,981.124,64.904
44.896,976.732,71.248
33.672,962.092,96.38
46.36,977.464,94.916
38.552,983.808,92.232
46.848,972.096,88.816
86.132,964.044,62.22
80.764,983.076,59.292
69.54,980.392,58.316
102.236,989.908,36.356
135.664,1010.648,5.124
99.552,1017.724,19.52
63.44,1006.744,37.576
83.448,1001.864,15.616
72.712,1000.4,10.98
20.496,1001.376,50.264
32.452,993.08,55.632
46.36,977.708,63.196
32.208,958.676,84.668
49.532,957.7,81.496
80.276,965.996,67.344
77.348,978.196,66.124
79.3,985.028,62.464
59.048,1002.108,62.708
49.532,1011.624,81.252
37.088,1011.868,90.768
37.332,1004.06,95.892
51.24,989.42,92.476
61.976,986.248,74.42
59.292,1002.108,87.596
72.224,1004.304,73.444
66.124,1008.452,77.592
71.004,1007.72,73.688
63.196,1010.892,72.712
57.096,1014.064,83.936
64.66,1007.72,89.304
76.128,996.74,89.548
78.568,991.128,81.252
78.08,983.32,64.416
86.376,981.612,29.036
48.556,994.056,24.888
17.812,998.692,38.064
74.42,999.18,-7.076
49.532,1006.744,16.104
32.452,996.984,43.676
22.448,991.128,81.74
59.048,981.124,71.248
43.432,966.728,95.16
61.244,950.624,103.7
106.628,953.308,65.88
90.524,965.264,88.328
95.404,975.756,96.38
122.488,986.98,74.664
98.332,989.664,82.716
70.516,977.22,84.18
82.472,975.512,65.88
68.564,986.736,33.428
28.548,987.224,56.364
48.068,983.076,34.648
67.344,986.248,7.808
52.704,988.932,26.352
49.044,995.764,49.532
50.264,1005.28,51.972
68.564,1003.572,54.9
92.232,995.52,52.704
97.6,993.324,58.804
99.064,988.2,65.636
78.568,994.544,76.86
69.296,987.712,87.108
41.48,979.66,94.428
45.628,972.828,85.888
39.04,969.9,64.904
12.688,967.704,72.712
49.044,970.632,57.584
61.732,986.98,36.844
46.848,992.104,58.072
44.652,998.936,65.636
67.344,999.668,45.384
36.844,993.568,67.1
29.28,978.44,77.836
69.784,977.22,49.288
56.852,984.296,63.928
50.02,983.32,73.444
54.9,993.08,61.0
69.784,1002.596,53.192
65.636,998.204,66.856
69.052,991.128,66.124
74.664,985.028,57.828
56.364,990.64,70.028
54.9,995.032,71.004
40.748,994.788,80.276
51.728,987.712,78.324
40.748,983.808,85.888
56.364,980.636,83.936
49.288,982.832,75.396
43.188,981.124,83.448
76.86,984.784,67.1
68.076,996.008,65.88
75.884,999.912,74.42
75.64,1000.4,69.784
65.636,993.324,76.372
92.476,995.52,44.164
53.68,1002.596,71.98
45.872,991.128,74.664
24.644,981.856,80.032
43.432,974.536,76.616
57.34,979.416,76.372
61.0,976.976,83.936
84.18,978.684,71.492
104.188,989.908,52.704
76.616,1000.644,82.472
67.832,999.424,92.232
68.32,990.152,89.304
97.844,967.704,62.464
75.884,963.8,42.944
50.508,985.272,50.02
43.432,1010.892,53.192
44.408,1013.332,57.584
53.924,994.056,56.12
52.46,976.0,66.856
72.712,966.24,57.584
54.168,983.564,81.496
71.98,988.2,87.84
61.488,999.668,83.692
29.768,1036.268,95.892
12.688,1114.104,113.216
-8.296,1223.904,155.184
-1.708,1297.836,176.168
-52.704,1346.88,201.056
-68.32,1317.112,190.32
-294.508,1357.616,236.436
-254.248,1345.416,300.852
-97.844,1362.984,263.52
20.008,1335.168,214.72
190.808,1277.096,153.72
311.344,1220.976,56.364
236.924,1207.312,5.856
90.28,1243.18,131.272
13.908,1257.576,212.28
45.628,1227.564,266.692
153.72,1171.932,273.036
149.572,1125.084,291.336
174.948,1185.108,271.816
267.912,1111.908,274.988
446.52,1063.352,252.296
616.588,830.82,205.936
759.572,663.192,128.588
994.3,525.332,156.16
579.744,331.596,220.088
494.832,186.172,650.992
511.668,-111.508,690.276
640.988,-249.612,322.08
848.876,-125.904,-70.272
760.792,-72.468,-152.988
644.404,-26.352,114.436
526.308,-129.076,151.524
521.916,-215.452,153.964
383.568,-197.396,198.616
294.508,-153.232,190.32
337.94,-113.704,102.48
266.204,-110.044,219.6
162.504,-174.948,165.432
209.352,-209.108,140.056
176.412,-216.184,146.4
309.636,-146.156,-2.196
204.228,-125.66,-58.316
200.08,-142.74,-1.464
257.42,-238.876,-68.076
413.336,-232.288,-157.38
322.324,-159.576,23.668
405.04,-148.108,89.304
587.308,-129.32,-109.8
633.18,-57.096,-268.4
650.26,22.448,-265.96
501.42,-22.936,-135.664
707.112,-146.4,-87.596
995.52,-295.728,-298.168
963.312,-448.228,-420.656
1148.508,-468.48,-485.072
1321.504,-643.428,-254.248
1243.424,-873.032,-74.176
1589.416,-1015.04,-43.432
1594.54,-1202.92,-89.06
1753.384,-1189.5,-112.24
1911.984,-1189.744,-78.812
1746.796,-1175.836,-84.424
1815.36,-1200.236,-1.952
1998.604,-1256.6,-45.14
2092.788,-1279.048,49.776
2125.24,-1283.196,84.424
2127.436,-1244.644,113.46
2091.324,-1173.64,140.3
1908.568,-1088.484,181.048
1908.324,-1045.54,214.964
1911.252,-1067.5,231.312
1756.068,-1095.56,205.448
1522.804,-1101.172,258.64
1477.176,-1072.624,279.38
1418.128,-1065.548,290.604
1382.26,-1068.232,271.572
1242.936,-1077.016,280.6
1116.788,-1037.976,324.764
1043.588,-967.948,335.256
982.832,-894.992,315.98
926.224,-823.256,313.052
720.288,-790.804,300.852
649.528,-698.328,297.436
664.168,-607.804,332.328
630.74,-555.588,322.568
523.868,-518.256,229.36
585.6,-395.524,223.992
393.572,-356.728,194.956
424.804,-238.144,181.78
388.692,-161.04,164.944
388.448,-79.3,92.232
420.656,-14.396,-18.056
417.972,48.068,18.056
327.936,43.676,-4.148
435.052,111.508,0.0
488.488,103.456,-17.568
533.628,103.7,-50.508
658.068,120.292,-88.572
708.332,69.54,-113.46
839.116,40.016,-158.6
845.216,-25.132,-83.936
849.608,-47.824,-17.324
794.464,-48.068,22.936
956.48,-32.452,-35.868
925.736,-29.28,83.692
948.428,40.016,104.92
875.472,15.372,81.252
401.868,-9.76,91.012
821.548,279.136,75.64
957.944,232.776,32.452
1068.964,263.52,-50.508
789.584,242.292,72.712
343.552,304.024,135.42
446.032,516.304,7.32
514.108,611.952,36.112
777.872,720.776,15.128
693.692,664.168,163.724
476.044,659.776,138.836
245.22,743.956,96.38
183.976,864.248,92.964
299.632,985.028,-50.752
367.464,995.276,-230.824
224.968,1068.232,-261.08
-93.208,1079.944,-86.376
-267.668,1086.532,105.652
-244.244,1035.048,93.94
-145.424,1016.992,5.368
-255.224,1045.54,71.736
-416.02,1100.684,158.356
-451.888,1122.888,38.308
-401.624,1140.456,-13.664
-422.608,1152.9,3.416
-433.832,1138.748,65.392
-419.924,1107.028,84.424
-383.568,1086.288,-29.28
-362.584,1105.808,-27.328
-354.532,1177.056,-74.42
-264.984,1210.24,-48.556
-159.332,1178.032,-19.764
-98.332,1089.216,65.88
-68.32,1022.116,50.508
-42.456,992.836,35.38
-34.648,1012.844,42.944
-40.016,1040.416,75.884
8.052,1037.732,66.368
-38.308,1006.256,88.084
-8.784,976.976,126.392
14.396,950.868,102.236
-55.876,909.876,103.212
-122.0,913.536,112.484
-71.004,961.36,6.344
-50.996,1018.212,-88.572
-48.556,1048.468,-122.244
41.48,1086.776,-216.428
64.416,1114.104,-221.064
46.604,1115.812,-142.984
55.632,1066.036,-70.516
13.908,1037.732,74.42
19.032,973.804,110.776
43.92,967.948,131.028
71.492,978.684,118.096
92.232,996.496,64.904
57.34,1028.216,57.34
28.06,1037.0,30.744
-0.488,1011.868,13.908
-20.008,981.368,11.712
-36.112,956.236,26.84
-58.072,937.448,42.212
-50.264,937.936,34.16
-49.532,951.112,49.288
-23.668,960.384,41.724
-28.06,974.536,42.7
26.352,974.292,15.616
23.424,977.464,11.712
14.152,979.66,3.416
20.984,995.276,-8.54
-11.956,986.248,-10.98
-8.54,980.88,-48.312
-15.128,998.204,-51.972
-36.844,1002.84,-41.724
-48.556,994.3,-27.816
-33.184,987.468,4.392
-33.428,975.268,25.132
-22.448,961.36,50.264
66.856,962.092,34.648
80.032,987.468,51.728
90.524,997.716,44.652
66.124,1012.844,32.208
60.512,1029.436,19.276
18.056,1017.236,-1.22
-24.4,989.176,-6.588
5.368,966.728,-30.988
-39.772,968.924,-2.928
-48.312,960.628,6.1
-32.208,970.144,15.128
42.212,985.028,2.196
80.52,1007.72,3.416
126.148,1010.16,12.932
112.24,1012.112,35.136
103.7,1010.892,45.384
100.284,1002.596,44.652
50.02,995.032,49.532
22.936,988.2,51.484
12.688,986.248,39.04
12.688,984.784,28.548
8.54,993.324,27.328
-17.08,992.836,23.18
-27.084,989.42,32.696
2.684,990.396,35.38
26.596,985.516,34.404
47.336,972.584,30.988
81.008,977.708,15.86
96.38,1007.72,15.128
111.508,1016.016,9.516
80.032,1015.772,14.884
50.996,1016.504,30.5
25.864,999.424,33.184
25.132,977.464,18.788
16.104,978.44,29.768
10.492,976.976,32.94
25.864,982.588,27.572
23.668,986.492,33.428
12.2,985.272,50.752
40.016,984.052,41.48
43.92,983.32,33.672
41.724,979.904,37.82
84.912,986.004,12.2
76.372,997.716,12.932
49.776,1000.644,23.424
30.988,1000.888,25.864
4.636,993.812,33.672
-9.028,977.708,40.26
16.836,976.488,30.256
26.596,981.612,24.156
62.708,987.224,8.784
75.64,1009.184,7.808
76.128,1008.696,12.444
54.412,1005.768,24.156
34.16,992.592,35.38
22.692,978.684,47.336
12.444,976.488,49.532
18.3,970.632,36.112
37.576,984.54,19.032
44.408,999.18,12.2
34.892,997.472,13.664
35.38,987.956,22.204
38.552,989.664,37.088
29.28,980.88,43.188
50.996,981.368,37.82
79.544,995.032,23.18
80.52,1002.596,14.152
92.964,1008.696,0.732
53.924,1009.916,11.224
6.344,997.96,33.428
5.368,980.88,47.336
10.248,964.776,40.992
20.496,968.924,42.212
40.26,978.684,22.692
50.508,1000.4,30.012
70.516,1003.816,24.644
66.612,1002.108,32.208
55.876,994.544,46.116
48.556,989.664,47.824
55.632,994.056,37.82
47.092,998.936,28.792
37.088,998.448,30.744
31.232,996.496,26.596
28.06,991.86,27.084
1.22,998.692,49.776
-15.86,1066.524,76.372
-49.532,1199.748,156.16
-23.18,1241.96,239.852
-14.64,1270.996,285.48
-107.848,1299.3,366.976
-214.964,1259.772,444.08
-280.356,1208.532,447.496
-262.788,1226.588,398.208
-214.72,1326.872,348.676
-72.712,1381.772,309.636
95.16,1335.412,288.652
280.112,1266.848,241.804
307.684,1206.58,232.044
279.38,1156.56,307.44
270.596,1121.912,355.996
212.768,1076.772,354.044
181.78,1106.052,356.972
240.584,1109.468,319.884
255.224,1091.656,249.856
366.244,996.252,75.884
365.756,927.932,-29.28
412.116,896.7,-68.808
677.832,789.828,-25.864
522.892,585.844,156.648
430.66,420.168,273.524
649.284,249.368,164.212
568.52,131.272,329.4
494.344,25.62,569.74
608.78,-96.38,476.532
922.32,-95.648,61.488
1036.512,-95.892,-34.648
946.476,-38.308,170.312
916.464,-98.576,184.22
773.48,-125.904,254.004
654.896,-133.712,238.876
613.904,-68.808,152.988
479.216,-6.832,148.352
466.528,47.58,158.356
352.092,-22.204,113.46
349.896,-32.208,112.972
209.352,-31.964,137.86
199.836,3.416,101.748
300.608,3.904,27.572
272.06,-24.156,-22.936
179.584,14.884,-9.028
-32.696,0.0,141.032
184.952,-96.868,109.068
468.48,-201.788,-71.98
477.264,-183.732,-120.048
375.028,-79.788,-18.544
297.192,-68.076,148.84
530.212,-163.236,51.728
709.796,-210.572,-76.616
801.296,-267.912,-153.476
785.436,-320.372,-180.56
770.552,-435.052,-150.304
1104.344,-557.296,-198.616
1447.164,-645.136,-427.244
1479.128,-806.42,-310.124
1434.476,-969.168,-101.504
1598.932,-1064.816,-98.576
1792.912,-1180.472,-71.248
1868.064,-1168.028,-6.832
1960.052,-1214.388,84.18
2125.484,-1284.66,138.348
2277.984,-1284.66,177.144
2344.596,-1282.464,314.028
2286.524,-1245.376,466.528
2192.828,-1169.492,519.964
2044.232,-1093.852,558.272
1930.528,-1067.5,548.024
1868.064,-1050.42,517.28
1811.944,-1061.644,481.9
1715.808,-1082.628,503.372
1599.176,-1106.54,547.78
1403.0,-1108.248,591.944
1282.708,-1059.936,588.528
1167.784,-999.18,543.144
1142.408,-896.7,468.724
1125.084,-796.416,381.128
968.924,-721.264,349.408
848.876,-670.512,357.46
777.628,-605.608,328.668
666.852,-554.856,345.26
591.7,-482.632,287.92
549.488,-394.792,236.68
578.28,-274.256,203.496
643.916,-223.504,169.092
554.368,-228.872,130.54
491.904,-153.964,192.272
457.012,-122.732,160.308
567.3,-59.292,115.656
586.576,-31.964,117.12
603.168,-29.036,64.416
549.732,-29.768,76.616
599.508,-21.228,42.212
649.528,-10.492,7.076
702.72,-2.44,-16.592
693.448,-3.904,20.008
695.156,-48.068,53.436
762.744,-63.196,15.128
743.712,-63.196,18.544
757.62,-64.416,21.96
621.468,-73.444,79.788
763.476,-30.256,33.916
796.416,-38.064,57.34
806.176,20.496,87.352
815.204,97.112,31.476
882.792,179.096,31.72
762.5,157.868,5.124
362.34,109.8,-17.08
83.448,331.108,-0.732
534.116,608.78,-89.06
585.356,626.592,-2.684
491.172,576.328,-138.348
406.26,615.368,-155.672
186.904,732.0,-60.756
-48.8,864.98,39.772
-57.096,937.448,21.472
77.836,987.712,-141.52
142.008,1067.988,-211.304
-58.804,1156.56,-84.424
-222.772,1226.1,0.488
-250.832,1177.788,49.776
-205.448,1159.976,117.852
-152.256,1151.436,203.496
-79.788,1196.576,202.52
36.112,1179.74,140.3
60.268,1189.5,135.42
28.304,1183.888,137.372
-38.796,1180.96,143.228
-46.604,1222.928,104.188
-14.884,1232.932,-18.788
-9.028,1238.3,-101.992
-11.224,1264.408,-69.54
-49.532,1274.656,-44.652
16.836,1257.576,33.428
164.944,1183.4,37.088
150.548,1117.032,97.6
92.72,1032.364,181.536
15.616,979.416,227.408
-17.812,960.384,228.628
-10.248,962.824,218.624
97.356,994.788,132.98
58.316,1017.236,99.064
97.844,1001.62,69.052
152.744,1011.624,35.38
99.064,1012.844,69.54
35.868,991.616,108.824
115.9,990.396,101.748
116.388,1004.548,104.676
71.004,981.856,122.732
118.34,962.336,93.696
107.36,985.028,74.664
80.276,980.392,51.484
118.584,968.924,2.44
124.196,1006.744,-6.344
126.148,1014.308,-19.764
124.928,1023.336,-13.176
147.62,1025.288,8.052
134.688,996.984,13.908
122.976,991.86,39.772
111.752,976.0,66.856
120.292,945.012,75.884
103.7,935.496,82.96
101.504,941.84,96.38
98.088,940.132,106.384
75.152,935.252,101.016
93.452,956.48,78.812
102.48,966.972,44.652
98.088,984.296,19.52
98.088,996.74,15.128
114.68,1000.4,5.124
134.932,1008.452,-5.856
122.976,1015.284,-0.244
147.62,1005.524,-10.248
173.484,1018.212,-26.352
152.256,1019.188,-10.004
126.392,1005.768,13.664
156.892,994.788,14.64
138.836,991.616,39.528
102.48,976.976,76.372
106.14,976.244,95.892
84.668,966.484,102.48
70.028,960.628,108.336
81.252,955.016,89.06
104.188,958.432,58.56
108.092,974.536,41.968
116.388,996.496,41.968
128.832,1000.644,43.92
142.252,1003.084,48.556
147.376,999.912,58.804
127.368,984.54,75.152
152.5,977.952,56.12
115.656,996.496,62.464
106.14,991.616,50.264
102.968,995.032,42.7
92.232,996.984,37.332
69.052,982.344,44.408
82.716,970.876,42.456
90.28,981.368,52.948
86.376,977.708,63.196
78.812,974.536,81.74
152.744,981.856,60.512
156.404,995.032,61.976
148.352,996.74,74.908
197.884,1001.62,46.36
168.604,1005.524,47.092
119.56,994.544,67.1
92.964,984.784,81.008
100.284,971.608,68.076
107.116,971.364,52.704
113.46,985.516,40.504
126.148,996.496,23.912
115.656,1005.524,17.812
112.24,1000.4,15.128
112.728,986.492,13.176
125.172,980.636,14.152
120.78,980.636,27.328
114.436,986.248,41.48
118.34,990.152,58.804
120.536,985.76,53.436
115.412,977.22,58.804
141.032,980.148,40.26
140.788,984.54,34.648
111.752,978.44,42.212
111.02,970.876,42.456
141.764,984.052,27.572
138.592,993.812,29.768
125.66,989.664,33.184
126.636,987.224,24.4
127.368,996.008,25.376
107.36,991.128,38.552
99.064,980.636,47.336
145.18,987.468,25.376
131.272,995.52,48.8
126.148,990.152,58.56
128.1,991.616,61.0
108.824,981.124,61.488
97.844,967.46,67.832
137.86,965.508,39.284
108.336,976.488,39.04
101.016,976.488,36.112
142.984,987.468,7.808
154.452,998.692,-6.1
142.496,1006.744,6.1
124.684,1010.892,24.156
107.604,1005.28,36.844
96.868,987.224,50.752
106.14,975.024,50.508
120.78,970.388,39.04
127.612,969.656,30.012
117.364,985.516,38.308
111.02,988.2,43.432
122.732,991.616,44.896
111.508,990.64,58.316
94.916,978.44,66.124
109.068,965.508,57.34
127.368,971.364,42.456
102.968,972.584,52.948
115.656,977.464,42.456
120.536,993.08,35.868
143.716,993.812,30.012
162.748,989.664,20.496
144.204,988.688,35.38
154.94,990.884,35.136
143.716,997.96,39.772
121.268,994.788,47.824
117.852,985.272,39.284
120.78,989.42,31.964
110.776,981.612,32.452
87.596,970.876,42.212
116.632,965.996,36.844
143.228,968.924,24.644
128.832,984.052,47.824
176.656,989.664,30.256
177.876,1000.4,26.108
168.848,996.496,40.992
154.208,994.056,56.12
