acc_x[mg],acc_y[mg],acc_z[mg]
-73.688,966.484,98.088
-72.956,975.756,94.184
-70.272,974.78,97.112
-68.32,976.976,96.868
-80.276,980.392,99.064
-80.276,976.488,102.724
-77.592,977.708,105.164
-79.056,966.972,108.824
-77.592,969.9,106.14
-68.564,977.464,98.82
-64.172,976.488,96.38
-65.88,977.708,96.136
-57.828,985.028,102.236
-50.264,982.832,106.872
-63.684,971.852,107.848
-67.832,969.168,104.92
-78.324,977.22,96.624
-81.496,967.46,101.992
-76.372,981.856,98.088
-71.736,983.808,100.284
-66.612,990.396,102.48
-74.908,984.052,101.26
-77.348,991.372,100.528
-69.784,1003.328,101.016
-63.684,1012.112,94.916
-65.392,1004.548,92.476
-72.712,1001.864,91.744
-71.492,1002.84,94.184
-72.956,978.928,105.164
-67.1,970.876,111.752
-67.344,971.852,116.388
-68.564,960.872,123.952
-68.32,956.724,125.66
-67.588,965.264,125.172
-54.656,976.0,127.856
-52.46,987.712,125.172
-52.46,986.736,123.708
-53.192,987.468,121.756
-61.0,981.856,115.168
-75.884,966.24,119.804
-84.912,962.58,114.924
-85.156,968.192,104.188
-83.448,980.88,96.38
-84.912,976.244,94.672
-80.52,982.832,96.624
-66.856,990.64,102.968
-63.928,981.612,112.484
-73.932,966.484,123.22
-76.128,962.092,128.832
-66.612,966.24,132.248
-63.196,972.34,131.516
-65.636,979.172,124.684
-69.784,986.492,118.584
-72.224,994.3,111.264
-68.564,1004.548,106.628
-66.124,991.86,112.24
-61.0,980.88,119.56
-65.636,987.468,115.168
-67.832,987.224,112.728
-65.636,980.636,122.732
-67.344,963.068,128.832
-66.368,964.044,125.172
-64.66,978.44,116.144
-71.492,983.564,108.824
-70.516,984.296,110.776
-72.956,982.588,109.068
-74.664,990.396,110.044
-68.564,984.784,114.68
-74.664,978.196,113.948
-82.228,986.004,109.312
-73.444,990.396,108.824
-74.176,979.904,116.876
-66.612,980.88,121.268
-57.096,989.664,123.708
-59.048,979.904,131.272
-63.196,968.192,131.76
-63.928,971.12,126.392
-53.68,1001.376,109.8
-58.072,993.568,113.704
-62.464,972.096,120.048
-55.876,986.492,125.66
-49.288,1005.768,122.488
-40.748,1015.284,126.88
-47.58,994.3,108.092
-106.14,954.772,105.896
-61.976,989.664,117.852
-65.636,969.412,122.976
-64.416,972.584,123.708
-60.512,977.952,124.684
-53.436,975.024,131.028
-54.412,969.168,135.42
-58.56,956.724,144.692
-48.8,962.336,145.18
-58.804,958.676,142.008
-69.784,972.34,128.832
-62.464,975.268,121.024
-68.808,979.416,114.924
-66.368,971.608,107.116
-53.192,971.364,109.556
-42.944,974.292,111.996
-23.424,987.224,111.02
-12.932,996.008,121.512
-25.132,974.048,118.096
-1.22,989.664,135.908
5.124,981.124,110.532
-4.148,983.564,115.656
-10.98,958.188,114.436
-5.612,973.56,123.22
-3.66,979.904,117.852
6.344,985.76,128.1
-14.64,986.004,134.444
-101.016,937.936,148.596
-251.808,901.092,131.272
-329.4,925.004,111.508
-241.072,874.984,4.392
158.844,711.992,-268.644
280.6,612.196,-289.384
-79.788,453.108,-132.492
-12.444,350.872,421.632
663.436,49.776,432.856
1077.26,-176.168,261.324
1029.924,-640.012,469.7
1013.82,-1194.38,1041.88
1357.128,-1039.44,738.588
1346.392,-666.608,189.1
1224.148,-625.86,353.556
1331.752,-592.92,310.124
1445.456,-502.884,234.484
1325.652,-373.32,120.536
1140.7,-433.832,222.528
1074.82,-482.876,273.768
1037.976,-428.22,249.124
1037.488,-405.284,212.036
919.392,-423.34,231.068
955.016,-447.496,326.96
1076.04,-450.424,375.76
1285.148,-480.924,415.776
1478.396,-574.376,460.184
1685.308,-673.928,477.508
1821.704,-692.472,456.768
1789.984,-669.048,477.264
1680.672,-631.228,473.604
1508.164,-587.796,457.744
1417.64,-536.068,388.936
1300.276,-551.684,371.124
1205.848,-616.588,362.828
1044.808,-601.704,347.456
883.524,-549.976,315.98
813.008,-498.98,257.664
679.54,-431.148,225.7
594.384,-351.116,194.956
525.576,-306.708,217.16
478.484,-283.528,143.716
413.824,-304.024,107.604
315.736,-294.996,77.348
163.724,-186.66,62.952
128.832,5.368,-48.556
280.844,152.988,-181.292
551.196,199.348,-294.996
845.704,186.904,-411.628
971.364,142.74,-377.956
1002.108,137.128,-366.0
1044.076,151.036,-397.964
1113.372,169.336,-412.36
1139.724,184.22,-399.916
1128.5,176.9,-348.676
1097.512,79.544,-231.312
1073.844,16.348,-175.924
979.416,-14.884,-131.272
896.212,-6.588,-72.712
767.38,8.784,-62.952
641.964,20.984,-28.304
525.332,44.408,47.58
434.076,79.788,101.504
352.092,73.932,140.3
230.824,33.428,265.96
239.364,0.0,371.856
273.524,13.664,421.876
332.084,-20.496,510.448
422.12,-87.84,557.296
502.64,-179.828,608.292
516.548,-273.28,723.46
490.44,-300.364,837.164
498.98,-415.776,1015.772
556.808,-514.596,1111.176
600.972,-628.544,1279.536
718.092,-741.272,1406.904
833.016,-796.66,1418.616
925.98,-834.48,1375.428
960.14,-860.344,1361.276
995.276,-830.82,1235.616
996.74,-803.736,1093.12
997.96,-814.716,1012.112
1026.264,-796.172,889.136
976.488,-760.304,818.864
1085.068,-764.452,722.728
1185.352,-776.896,585.112
1183.644,-784.216,484.828
1063.352,-777.628,443.836
1059.448,-775.676,357.704
1098.976,-722.484,200.08
1127.524,-632.204,46.848
1114.348,-550.952,-85.4
1120.692,-473.36,-241.072
1112.64,-347.212,-375.516
1103.124,-230.336,-447.252
1222.928,-106.628,-570.228
1282.708,-108.58,-581.696
1263.188,-155.184,-491.904
1169.004,-191.296,-316.468
1036.024,-208.132,-182.756
902.068,-264.496,18.544
848.388,-314.028,157.136
874.252,-300.852,244.976
1192.916,-207.644,318.42
1089.704,-227.652,433.588
1074.088,-131.028,322.08
1219.756,-52.704,272.548
925.736,-221.308,264.496
838.872,-83.204,303.048
1007.964,1278.072,-329.888
660.264,871.08,-168.116
263.52,906.948,101.748
86.864,742.248,311.344
28.792,681.98,369.66
-39.04,649.284,449.692
-153.964,710.04,346.236
-50.508,1008.696,254.492
-64.66,991.128,227.408
-114.68,922.808,243.268
-155.916,959.652,180.804
-204.228,1128.012,61.732
-202.52,1068.72,92.964
-207.888,961.848,158.112
-189.344,974.048,162.504
-181.048,951.844,156.648
-152.5,897.676,162.992
-133.712,959.896,152.256
-141.276,962.824,145.668
-124.196,959.408,137.372
-90.524,977.708,127.368
-77.348,937.692,154.452
-107.604,940.376,141.52
-138.104,988.2,103.944
-144.204,991.128,85.644
-98.332,1009.184,98.82
-124.44,965.508,118.096
-139.324,988.688,105.164
-148.108,968.924,99.064
-127.124,1012.356,75.884
-75.64,978.44,107.848
-64.66,956.724,138.104
-53.924,986.98,134.2
-52.948,984.052,129.32
-43.432,1000.644,124.196
-67.344,992.348,112.484
-73.444,1015.04,104.432
-88.816,991.128,115.412
-113.216,963.556,116.876
-102.968,968.68,100.772
-78.812,977.952,99.064
-68.076,956.48,122.244
-68.808,957.456,119.804
-71.248,972.584,119.072
-63.684,958.432,121.268
-50.02,978.928,118.828
-46.116,977.464,122.0
-57.096,974.78,123.464
-56.12,965.508,128.832
-44.408,959.896,136.64
-71.492,945.744,142.008
-92.964,935.252,135.42
-81.74,923.052,136.884
-87.352,895.968,131.028
6.588,1010.892,105.408
4.148,1027.484,186.904
-12.688,935.496,201.056
-114.436,833.992,45.872
-121.268,808.86,121.268
-96.624,810.324,121.268
-80.276,820.328,91.012
-72.956,838.384,62.952
-69.784,785.192,78.08
-20.74,809.592,99.308
-29.036,764.452,117.852
-55.632,766.16,131.76
-70.028,768.112,123.22
-79.788,783.484,108.58
-82.96,859.612,72.468
-92.232,881.328,62.22
-94.184,838.872,89.304
-60.268,882.548,101.748
-43.92,864.492,112.728
-64.66,862.296,127.856
-80.52,823.744,155.428
-71.004,783.728,197.152
21.228,792.512,233.264
79.788,774.944,227.408
101.748,741.272,205.692
36.6,723.704,203.252
64.172,731.756,189.588
161.284,782.996,209.108
315.004,849.12,228.384
355.752,958.676,190.564
311.1,1013.332,111.996
234.728,973.316,60.268
155.916,961.36,3.66
119.804,1079.7,-81.008
167.628,1150.216,-81.252
185.44,1152.412,-36.356
177.876,1188.036,14.64
114.192,1464.488,15.86
109.312,1628.7,37.088
147.864,1514.996,88.084
218.624,1423.74,201.3
210.816,1306.132,265.472
161.528,1328.336,265.228
151.28,1330.776,233.02
162.26,1278.804,219.112
205.692,1227.32,237.9
243.756,1094.828,240.096
238.144,1033.828,208.376
184.464,1032.852,179.34
117.12,1070.184,147.864
75.884,1043.832,134.444
60.756,1006.012,109.556
48.312,1011.868,87.352
18.544,1061.156,47.58
5.124,1091.9,24.4
15.372,1069.94,18.3
54.168,1013.576,27.084
120.536,954.528,71.98
134.2,967.704,73.932
115.412,986.492,56.852
96.868,955.748,51.484
94.916,945.012,54.412
82.228,959.896,37.82
89.06,975.512,39.528
110.776,985.272,65.392
91.988,971.364,66.856
84.424,987.468,67.1
88.572,974.78,76.616
82.472,977.22,71.492
81.74,1004.06,68.32
82.716,995.52,83.204
72.468,984.296,89.06
61.0,976.244,89.548
68.32,998.936,96.136
72.224,983.32,96.624
69.052,991.86,86.62
54.412,986.004,81.252
66.368,981.368,75.884
71.004,983.32,92.232
57.584,986.98,79.3
43.676,981.612,65.392
41.724,969.168,67.344
43.432,956.48,69.784
55.144,978.928,74.42
51.484,986.248,71.248
47.824,961.604,79.056
46.848,982.344,74.908
40.504,999.668,78.08
41.236,987.956,89.792
32.696,976.0,89.548
35.136,993.08,85.644
40.26,1011.136,83.448
32.94,1011.624,80.52
42.944,1006.5,94.184
40.26,984.296,96.624
43.188,972.34,93.208
47.336,966.24,98.82
46.604,960.14,93.94
46.604,991.372,85.644
48.312,974.048,92.476
43.188,970.632,92.232
29.28,973.804,78.568
36.112,988.932,79.788
42.212,987.224,83.936
53.68,995.764,100.284
51.972,970.144,100.772
44.652,978.196,87.108
45.628,986.248,83.448
43.92,982.344,82.472
39.284,998.692,81.984
39.528,990.884,80.276
46.604,992.592,93.452
43.92,1002.352,91.5
43.92,990.396,100.284
44.652,987.224,98.82
35.136,997.472,90.768
30.256,1005.28,81.984
27.572,993.324,78.08
40.016,973.804,84.912
43.92,988.444,77.104
34.16,997.228,65.636
38.552,975.756,75.152
38.308,987.468,75.152
37.332,984.54,76.86
41.236,983.808,82.96
30.012,983.076,80.276
28.548,979.416,79.3
31.232,993.324,81.74
30.744,988.2,88.816
31.964,991.372,86.864
29.768,1001.864,80.032
25.864,995.276,74.176
45.628,988.688,85.156
48.312,971.852,89.792
43.676,973.072,81.984
35.624,976.0,75.64
26.108,961.848,76.128
31.964,1001.132,62.952
56.608,1002.108,78.812
44.408,968.192,88.816
28.304,932.324,94.672
17.568,925.004,104.92
112.728,1018.456,64.66
153.232,1131.672,89.304
129.076,1088.24,96.38
51.728,989.664,118.096
-42.7,791.292,169.092
53.68,652.7,82.716
338.916,553.392,-62.22
610.488,275.72,-328.912
427.732,-138.592,-507.52
343.064,-628.788,-90.768
915.0,-620.98,667.34
1406.172,-936.472,697.108
1915.156,-877.668,-173.972
1367.62,-895.968,-116.876
1534.76,-1090.192,207.156
1611.62,-1124.596,311.832
1679.208,-1117.52,392.84
1911.008,-1037.732,321.104
2040.572,-1041.148,326.228
1984.208,-1107.76,408.7
1882.46,-1187.304,467.992
1758.264,-1209.752,457.256
1635.288,-1192.916,387.472
1513.532,-1160.464,351.604
1312.964,-1141.188,349.164
1080.676,-1087.508,330.864
875.716,-953.308,177.144
625.128,-814.716,106.628
497.272,-721.996,81.496
317.444,-622.2,41.48
229.116,-524.112,-79.3
167.628,-450.912,0.244
175.192,-421.876,40.748
114.192,-413.824,47.824
-5.856,-342.576,-15.372
-109.8,-223.016,-64.416
-130.784,-85.644,-145.912
-75.396,20.74,-215.208
122.244,60.024,-323.3
375.76,162.26,-465.064
586.576,370.392,-550.708
878.888,506.788,-623.176
1202.676,518.5,-742.248
1359.568,452.132,-742.98
1332.972,339.648,-673.684
1205.116,200.324,-578.28
1008.452,61.0,-475.312
829.356,-21.716,-318.176
685.884,-48.312,-185.684
634.156,-14.396,-93.452
641.476,16.104,-90.768
633.668,-20.984,-27.328
583.404,-74.42,47.336
498.736,-112.484,127.124
355.996,-137.616,225.456
213.744,-119.56,283.04
49.532,-111.02,396.744
-34.892,-101.016,549.244
-68.076,-117.364,682.956
-1.22,-167.872,841.312
97.112,-288.164,991.616
218.868,-430.904,1162.66
312.564,-605.852,1362.252
436.028,-777.384,1437.404
479.216,-871.324,1431.792
599.02,-935.984,1459.608
772.016,-942.084,1374.208
942.328,-929.884,1218.536
1095.072,-977.464,1183.156
1230.492,-1008.94,1109.468
1419.592,-1035.78,1013.82
1545.74,-1100.44,958.188
1629.676,-1129.232,875.716
1679.208,-1082.384,682.468
1742.404,-1014.308,504.836
1764.852,-921.588,334.28
1672.62,-852.048,231.068
1594.784,-805.688,115.656
1428.132,-701.5,-5.124
1334.192,-574.864,-142.984
1179.008,-436.76,-259.128
973.072,-328.668,-298.412
851.072,-231.8,-326.96
767.624,-148.84,-376.736
781.776,-100.528,-436.516
759.084,-108.824,-408.7
729.56,-139.324,-277.916
748.836,-168.116,-92.72
1066.768,-172.996,101.992
773.236,-244.732,132.004
668.804,-174.46,204.228
705.16,-239.12,85.156
527.04,142.984,-103.7
571.204,1416.176,-695.644
797.148,1149.484,-396.744
938.18,1262.456,169.336
503.372,991.372,34.892
211.304,861.076,114.924
33.916,634.156,223.26
-44.408,785.68,246.196
-64.66,1136.796,154.208
-290.848,1318.088,49.288
-344.04,907.924,143.716
-243.756,946.476,180.56
-284.016,1060.912,162.992
-373.076,1033.096,108.092
-340.868,965.752,124.44
-254.248,958.188,146.644
-214.72,999.668,132.98
-245.952,915.488,124.196
-257.42,925.736,91.012
-263.52,921.1,62.464
-180.56,922.32,183.0
-236.192,766.892,138.104
-287.92,702.232,153.964
-246.928,784.948,54.9
-166.408,888.648,61.976
-125.416,848.876,122.976
-108.58,902.312,200.568
-182.024,807.64,40.992
-336.232,795.44,-64.172
-276.94,754.692,-9.028
-164.944,762.744,67.832
-141.52,703.94,121.268
-145.424,665.388,95.648
-110.532,707.112,99.796
-49.044,669.292,127.124
0.976,679.54,137.86
-98.576,639.28,102.724
-140.788,728.828,57.34
-115.656,799.1,49.044
-54.9,831.552,77.592
-7.076,764.452,106.628
-33.428,725.9,111.264
-71.492,822.036,105.164
-19.52,899.14,102.236
38.796,921.588,137.128
44.164,996.252,141.52
16.592,1085.312,110.532
29.036,1141.92,71.98
-4.148,1128.988,69.784
-28.06,1096.536,53.192
-56.852,1125.328,21.96
-64.904,1260.016,-11.468
-31.476,1225.612,-26.596
-16.592,1149.728,-0.976
12.2,1171.2,18.3
15.372,1214.632,0.244
23.668,1286.856,-0.976
57.096,1413.492,22.692
72.224,1372.256,35.38
96.868,1350.052,70.516
131.516,1286.612,112.728
124.44,1223.416,110.288
114.924,1152.412,109.312
114.924,1154.852,106.872
97.112,1175.104,91.988
104.92,1154.12,85.644
125.416,1132.16,99.796
120.048,1112.152,97.356
114.68,1097.268,83.692
121.756,1080.432,90.036
115.168,1016.26,69.296
127.368,995.764,79.788
135.908,988.444,75.152
104.432,993.324,64.66
108.336,981.368,52.46
112.972,1010.892,51.24
107.116,1007.964,46.848
116.876,970.144,53.436
146.888,975.024,67.832
152.012,955.748,75.152
140.056,916.708,78.812
133.712,916.708,74.176
127.856,926.956,65.636
117.12,939.888,61.488
108.336,962.824,55.144
99.064,962.336,60.756
96.38,953.064,72.224
100.284,956.724,75.152
102.236,973.56,77.592
112.972,995.276,86.864
119.804,980.392,85.888
128.588,957.456,89.548
116.144,935.984,89.548
117.852,920.368,87.108
107.604,959.408,76.128
102.48,993.568,72.956
85.888,1002.596,71.492
61.244,1025.288,64.66
64.172,1013.82,65.148
65.88,1038.22,68.808
103.944,1056.52,90.036
123.708,1009.428,101.992
132.98,993.08,108.336
120.536,970.632,98.82
132.004,938.668,100.772
136.396,955.016,97.844
137.372,959.652,97.112
114.192,945.988,83.692
104.676,958.188,81.984
102.724,965.752,81.008
95.16,995.032,80.52
83.204,1010.404,78.08
76.372,995.276,72.712
72.712,1026.264,68.808
74.176,1040.416,73.688
82.228,1000.644,73.688
105.652,991.128,86.376
111.752,963.8,92.232
99.552,967.46,81.252
97.6,974.78,82.472
105.896,991.616,87.352
107.604,964.532,89.304
100.772,972.096,86.62
93.696,997.716,80.52
84.668,995.52,73.444
86.62,993.812,71.736
97.844,985.516,77.348
95.16,981.368,76.616
89.304,987.712,78.324
90.768,974.536,74.42
88.084,979.904,69.54
83.204,986.98,64.172
92.476,977.708,71.98
89.06,995.52,65.88
91.012,999.424,68.32
85.888,978.684,71.248
91.012,971.12,76.86
92.72,977.952,78.568
84.424,995.52,69.052
86.864,983.076,68.076
83.448,965.996,70.028
86.62,983.808,68.808
101.748,994.3,75.396
105.408,988.444,82.96
99.064,978.44,82.472
98.576,983.808,81.008
98.088,974.78,74.908
140.056,984.784,70.028
189.588,1002.84,79.056
233.02,948.916,111.996
264.008,953.552,145.424
276.94,989.908,208.376
261.324,962.58,151.28
205.204,857.66,153.964
226.188,570.472,-53.436
583.892,329.156,-458.72
733.952,155.672,-688.568
720.288,-365.024,-351.36
634.156,-783.24,401.868
1088.24,-957.944,1186.572
1004.304,-1205.36,531.188
1389.336,-956.724,-94.672
1462.78,-887.184,-171.044
1382.016,-957.944,-145.424
1383.236,-1035.536,78.324
1280.268,-1035.048,148.352
1248.548,-1011.136,183.732
1360.056,-1063.596,255.224
1607.96,-1177.544,246.196
1772.904,-1229.76,265.472
1788.032,-1250.5,248.392
1787.788,-1236.348,256.932
1674.084,-1209.508,223.504
1497.672,-1185.84,279.868
1264.408,-1135.332,300.364
1122.4,-1105.32,319.64
1085.068,-1047.98,232.288
1133.868,-961.604,91.988
986.248,-870.836,13.176
685.152,-780.068,-6.832
340.136,-668.316,-20.008
116.144,-561.688,-96.38
-133.468,-447.252,-89.792
-305.488,-347.212,-16.104
-416.752,-277.428,56.364
-418.46,-206.18,70.028
-255.712,-38.796,-47.58
-48.556,85.888,-130.54
162.26,192.028,-250.1
279.624,315.004,-349.652
353.556,478.728,-479.216
541.192,559.492,-650.992
692.472,544.608,-636.596
820.328,505.812,-568.032
950.624,399.672,-531.188
1076.772,290.36,-513.376
1176.08,230.824,-511.668
1192.428,185.928,-488.0
1120.448,117.852,-427.488
936.716,66.368,-351.116
681.736,25.132,-219.356
449.204,-15.372,-96.38
282.796,-24.888,41.48
184.464,-4.88,95.648
199.592,20.74,114.192
150.792,6.344,204.228
291.824,-9.76,233.02
378.444,-149.572,381.372
442.616,-241.316,550.952
500.2,-331.596,626.592
490.44,-482.876,838.872
567.3,-644.648,1028.46
628.056,-832.284,1125.084
740.784,-988.2,1169.492
889.624,-1081.408,1197.552
1002.108,-1111.664,1242.448
1162.66,-1082.384,1136.796
1315.404,-1077.504,1000.4
1335.9,-1133.136,1017.724
1320.772,-1091.168,972.828
1345.416,-992.592,827.404
1344.684,-963.312,693.448
1375.184,-957.7,561.932
1414.956,-899.628,383.568
1446.92,-803.248,262.3
1348.344,-704.672,124.44
1338.584,-669.78,8.296
1330.532,-664.9,-63.44
1266.116,-634.156,-120.536
1200.48,-612.684,-137.128
1140.944,-547.536,-183.244
1120.692,-452.864,-249.124
1096.292,-344.772,-351.36
1057.984,-214.476,-438.468
1054.08,-101.992,-535.336
1010.648,-14.152,-560.224
958.188,-2.684,-505.08
919.148,-50.996,-332.816
1171.2,-104.92,-160.796
837.652,-277.672,89.06
704.672,-220.332,105.652
769.088,0.732,-210.816
890.112,233.508,-574.864
834.724,787.144,-543.388
1180.716,1395.192,22.936
879.62,542.9,-76.86
-41.236,530.212,-45.628
-496.54,682.956,65.392
-423.828,816.912,249.856
-267.424,875.228,348.676
-239.364,1112.396,282.552
-352.092,844.972,184.708
-338.916,856.684,190.808
-242.292,895.968,183.976
-234.24,866.932,162.992
-226.676,956.236,121.756
-239.852,986.492,104.188
-194.712,985.272,136.152
-215.208,931.348,144.204
-182.512,972.828,111.264
-207.156,1029.192,95.404
-176.656,1007.964,123.464
-151.036,974.048,158.112
-139.324,985.516,132.248
-172.508,1000.888,124.684
-160.064,1016.992,119.072
-177.632,977.708,112.728
-191.296,935.496,112.484
-194.956,952.82,111.264
-174.704,975.512,112.972
-169.58,929.396,123.952
-143.228,940.864,121.512
-129.076,967.704,124.196
-123.464,980.636,124.44
-149.572,960.628,123.952
-174.46,957.7,118.584
-185.928,942.816,124.684
-210.084,896.456,135.42
-204.472,935.984,121.024
-196.42,956.724,101.748
-169.824,974.292,103.212
-168.36,977.464,127.612
-157.38,944.28,155.428
-178.12,934.52,149.816
-176.656,970.876,122.488
-150.792,996.496,130.052
-159.82,996.984,129.32
-165.188,954.284,149.816
-175.68,966.24,150.304
-186.904,963.8,141.52
-183.488,962.824,134.932
-131.76,999.668,148.596
-138.104,976.0,158.844
-159.088,932.812,164.456
-183.976,936.228,141.032
-175.68,993.568,119.804
-154.94,992.836,130.54
-153.964,951.844,147.132
-159.576,937.204,146.156
-165.92,961.848,134.2
-163.48,974.78,121.756
-150.06,968.436,130.784
-157.38,949.16,131.516
-163.724,940.864,120.048
-158.844,915.732,123.952
-145.18,895.968,122.976
-135.908,867.176,119.804
-126.88,829.844,128.344
-110.532,817.156,134.688
-148.108,811.3,121.268
-161.528,808.128,106.628
-155.184,771.528,94.428
-117.364,764.94,108.58
-114.436,752.252,113.216
-108.336,762.012,104.188
-103.7,788.608,125.904
-147.864,766.404,137.372
-179.584,728.584,78.568
-121.268,794.708,109.312
-65.148,864.98,119.072
-38.308,787.632,132.004
-97.6,703.696,112.484
-128.344,705.892,77.348
-116.876,710.04,71.004
-44.896,721.996,81.984
17.08,801.54,81.74
-12.688,801.54,71.98
-2.44,844.728,72.712
42.212,883.524,86.62
111.508,978.928,114.436
136.396,1028.948,97.6
106.14,1148.752,80.032
12.2,1077.992,35.868
38.552,1023.092,45.628
81.252,1057.74,35.38
93.208,1175.836,6.344
79.788,1234.396,-24.4
74.664,1216.828,-28.548
175.924,1180.716,32.208
186.904,1220.244,18.056
158.356,1300.764,0.488
217.404,1435.452,26.352
110.044,1438.38,-35.624
115.412,1430.572,-52.948
119.56,1410.564,-27.328
88.084,1325.164,-43.188
146.156,1395.192,189.588
58.804,1220.0,-12.688
41.48,1023.58,-100.772
101.504,1013.332,2.44
122.488,1034.316,38.552
151.768,1069.94,38.308
207.644,1160.952,108.092
116.388,1122.156,-28.06
92.964,1134.112,-0.488
91.5,1088.728,-4.636
143.472,1046.516,0.732
173.972,1024.556,47.824
162.26,947.208,32.452
175.924,938.18,12.932
269.376,886.94,-39.528
383.08,914.268,-107.604
380.884,1032.852,-145.424
291.58,1088.24,-201.056
198.128,1026.752,-253.516
167.14,933.788,-265.716
132.98,961.848,-211.548
116.632,1004.304,-170.8
172.752,979.66,-120.048
229.116,995.032,-77.592
208.62,1016.016,-45.14
151.524,994.056,-24.156
81.496,967.948,24.4
53.436,939.888,87.108
85.156,1025.532,150.06
201.544,1058.228,238.632
245.952,1064.328,275.72
162.26,1039.44,257.176
61.732,998.936,218.624
67.1,951.6,222.528
131.76,944.28,254.492
145.424,935.008,256.444
104.188,925.98,244.488
95.404,919.148,230.58
106.14,923.54,214.72
145.424,933.544,191.296
191.052,956.236,178.364
182.512,915.976,152.256
131.76,877.18,122.0
81.984,832.772,76.128
82.472,835.456,59.536
92.72,898.408,57.828
117.364,964.532,74.664
137.372,946.72,97.844
127.368,905.972,118.828
119.56,947.696,130.296
114.436,961.116,135.176
130.784,978.928,154.696
120.292,991.128,144.448
109.8,988.444,127.612
137.128,1032.608,132.248
137.128,1055.056,122.976
120.292,1039.928,109.8
100.772,1030.412,91.012
107.36,1047.004,83.936
114.436,1027.972,81.008
109.556,1012.6,79.788
85.4,1019.188,72.956
52.46,1049.444,71.736
15.616,1102.148,73.444
12.932,1222.684,96.136
19.52,1396.168,157.624
40.26,1552.572,209.596
53.192,1650.904,245.464
-35.624,1738.988,234.728
-76.616,1787.056,221.064
-14.884,1728.74,216.184
-6.832,1637.972,182.024
-11.468,1569.652,134.444
54.656,1498.892,108.092
117.12,1384.7,129.808
172.02,1260.016,142.74
258.152,1088.24,161.04
277.184,932.324,193.492
242.78,851.804,218.136
255.712,793.488,204.228
272.548,696.864,188.368
261.08,597.312,178.608
237.168,582.184,143.716
182.756,495.564,83.448
106.384,319.396,20.984
31.72,162.26,-16.592
42.456,105.896,-13.42
41.236,-56.12,17.568
11.468,-133.224,29.524
16.348,-74.176,33.916
-54.412,62.952,28.548
-186.172,228.872,-0.732
-212.28,343.064,20.496
-179.096,486.048,65.148
-233.264,560.468,73.688
-320.128,684.908,52.704
-300.608,787.632,62.22
-238.144,872.056,85.644
-168.848,855.952,127.856
-96.136,841.312,153.964
-88.816,859.124,157.38
-142.008,828.624,149.084
-150.792,956.48,167.14
-144.692,1006.5,159.576
-90.036,1017.236,156.892
-18.544,1002.84,189.588
-1.22,1029.192,207.156
-40.016,1109.224,197.64
-3.66,1183.644,210.816
62.22,1266.36,226.188
77.592,1270.752,244.732
55.876,1276.364,236.68
-17.812,1346.148,206.912
-42.7,1393.484,196.664
23.424,1411.052,225.944
83.692,1375.916,249.368
82.472,1289.784,252.052
76.616,1322.48,269.62
84.668,1314.184,265.472
76.616,1252.696,244.976
91.744,1206.824,233.02
82.228,1150.948,216.428
58.316,1119.228,205.936
72.956,1018.944,208.864
83.448,956.724,206.912
110.044,966.728,203.496
128.588,992.104,196.908
135.664,987.468,184.952
153.476,950.38,193.492
158.6,926.712,193.736
141.764,902.068,195.2
123.464,886.452,179.828
107.116,931.104,164.212
60.268,977.464,141.032
41.236,980.392,130.052
40.26,988.2,126.148
49.044,992.104,130.296
45.872,974.78,134.2
65.392,970.876,141.764
91.5,997.472,163.724
93.452,985.516,166.408
84.424,997.472,167.384
83.448,988.2,171.044
94.916,990.396,184.708
97.844,997.228,192.76
93.208,985.028,193.492
97.6,993.08,196.664
101.016,987.468,204.96
87.352,1005.768,204.228
78.812,985.028,201.3
81.984,968.924,199.836
86.864,948.428,195.932
76.616,954.772,181.048
72.468,959.164,172.508
82.716,962.824,171.044
78.812,949.16,165.188
78.568,965.996,171.776
68.076,961.848,167.872
61.488,945.5,166.896
58.316,957.212,168.604
53.68,982.588,163.724
60.512,986.736,170.556
64.172,960.872,175.436
65.88,983.076,177.388
82.472,966.24,187.148
91.5,982.832,190.32
75.152,986.736,184.22
71.98,982.832,184.464
81.984,985.028,192.516
73.932,959.408,190.564
65.636,958.676,183.0
92.232,974.78,189.832
83.936,974.536,186.904
77.592,960.872,183.488
76.616,971.608,186.904
84.424,975.024,188.124
88.572,978.196,188.856
74.176,969.9,184.708
72.712,960.14,183.976
65.392,985.272,180.072
61.732,983.564,172.508
57.584,996.984,167.384
67.344,996.008,169.58
72.956,1001.132,178.364
63.44,994.056,176.9
55.632,962.336,170.556
54.412,969.412,173.484
50.508,969.412,175.436
43.188,939.156,171.288
52.704,946.964,178.12
56.608,975.024,177.876
63.928,980.148,176.412
71.492,970.876,179.34
78.568,977.22,181.536
84.668,960.384,179.584
92.72,959.652,179.096
83.204,970.388,173.728
71.248,982.344,162.992
64.66,986.248,164.212
50.02,980.636,159.82
58.56,990.152,166.652
58.072,979.416,175.436
56.852,968.436,174.46
65.392,996.496,181.292
62.22,995.52,180.56
57.34,999.18,174.46
57.096,1009.184,177.144
64.66,1008.94,183.0
72.468,982.1,186.172
69.54,980.636,187.148
54.168,971.12,175.436
57.828,975.512,171.776
54.412,973.804,162.504
71.98,974.78,166.164
68.076,970.876,162.016
63.684,965.752,162.016
53.924,962.58,161.284
51.484,956.48,162.26
50.996,956.724,165.188
50.508,965.264,169.092
58.072,965.752,171.532
76.616,981.612,183.244
72.468,984.54,187.636
72.468,988.688,192.516
61.732,980.88,190.564
58.316,986.004,190.564
63.196,993.812,191.54
54.9,975.268,185.928
60.268,967.704,183.0
58.804,965.996,176.656
61.488,975.756,174.216
62.708,986.98,172.752
53.192,982.832,165.92
55.632,972.34,166.652
48.8,965.996,165.188
52.704,960.384,166.408
50.752,978.928,166.652
33.184,980.88,159.332
25.62,976.488,154.696
34.404,982.588,161.772
40.26,987.468,170.068
32.696,997.472,164.944
23.668,1006.256,155.916
20.74,995.52,163.724
-4.88,982.344,160.064
-15.86,959.164,163.48
-11.956,968.436,162.504
0.732,1030.9,157.868
21.228,1060.18,146.644
35.868,1007.232,147.62
44.896,1012.112,156.892
31.964,994.3,163.48
12.932,977.464,165.92
-13.664,940.62,157.868
-22.448,926.224,150.06
-26.84,928.908,141.032
-7.32,931.348,137.86
21.228,941.596,147.864
18.544,951.356,148.596
19.276,970.876,155.672
9.028,961.848,162.016
-16.104,961.36,157.136
-36.844,989.908,150.06
-42.944,1007.72,145.18
-49.532,1009.428,140.544
-42.944,1009.916,139.812
-32.208,1002.352,142.496
-25.864,977.22,143.228
-18.544,968.924,148.596
-12.932,963.312,156.404
-15.372,960.14,157.136
-17.324,954.528,159.82
-14.152,967.216,161.04
-14.152,979.416,160.552
-15.616,995.52,159.82
-22.448,986.736,155.672
-21.472,959.896,152.988
-26.108,967.704,150.304
-27.572,972.828,144.692
-20.008,982.588,147.376
-20.74,985.516,146.888
-16.348,980.392,148.84
-13.908,963.312,146.4
-8.54,983.32,142.74
-5.856,996.008,139.568
13.908,1021.872,142.496
35.136,1009.672,157.868
59.048,996.252,164.7
-46.36,949.404,178.608
-270.352,818.376,114.68
-104.188,901.824,-143.228
-74.908,856.928,-511.912
-50.02,627.812,-830.82
-454.816,-618.54,-638.06
-67.1,-1544.52,603.9
1116.056,-1146.068,1683.6
1356.884,-1262.7,494.344
1723.128,-793.244,-378.444
1868.308,-702.964,-428.952
2128.168,-869.372,-183.488
2089.128,-1058.96,208.62
1806.82,-1079.7,416.02
1709.464,-1049.2,384.544
1653.1,-1114.836,420.656
1667.008,-1222.196,492.636
1762.168,-1304.18,500.444
1860.988,-1290.76,457.744
1895.88,-1259.284,349.652
1885.144,-1205.36,301.096
1752.408,-1128.988,193.98
1471.32,-1055.544,94.672
1161.196,-1015.772,41.968
799.832,-987.956,33.916
464.088,-913.292,17.324
119.804,-821.548,-40.26
-180.56,-711.504,21.228
-345.748,-538.508,106.872
-331.596,-340.624,59.048
-273.768,-206.668,-9.76
-98.82,-142.984,-106.14
-45.14,-40.992,-244.976
60.512,29.036,-294.996
136.396,78.324,-393.084
319.64,169.58,-514.596
576.572,328.668,-711.748
835.212,494.1,-810.812
1000.888,539.484,-839.116
1064.572,522.404,-887.428
1021.384,398.696,-809.348
907.436,210.084,-602.192
726.876,57.828,-391.376
592.188,-40.016,-223.26
451.644,-81.008,-101.504
390.4,-60.512,-12.932
274.012,-56.608,86.132
142.008,-80.764,206.912
50.752,-128.1,333.792
27.328,-202.032,479.948
115.656,-285.968,573.888
213.5,-412.36,738.1
300.608,-535.092,947.208
460.672,-664.168,1100.684
573.888,-736.392,1221.464
613.172,-764.94,1346.636
708.088,-763.476,1373.232
857.904,-773.48,1308.816
947.452,-873.52,1306.132
1008.208,-931.836,1276.364
1011.868,-901.824,1196.576
995.764,-857.66,1065.792
1037.976,-870.104,1003.572
1152.168,-872.056,922.808
1250.744,-886.452,763.476
1327.604,-944.28,639.768
1493.036,-996.496,514.596
1557.94,-961.36,362.096
1572.824,-936.716,259.372
1576.484,-928.664,152.012
1580.876,-919.88,28.304
1523.78,-827.892,-142.496
1434.232,-691.984,-310.368
1330.288,-487.756,-447.008
1397.144,-286.944,-481.656
1002.352,-230.336,-448.472
651.724,-140.056,-178.364
507.276,-128.344,-185.196
449.692,-187.88,-438.224
754.204,697.352,-1166.076
568.764,846.192,-963.312
707.844,1165.588,-288.408
579.012,1184.864,-211.548
78.568,656.116,21.96
-233.752,571.204,77.592
-46.36,655.384,186.172
-80.032,823.988,185.928
-209.352,1118.984,158.112
-222.04,1003.084,174.948
-151.036,942.572,232.532
-255.224,993.812,181.292
-277.672,918.172,170.068
-291.336,811.3,144.936
-271.084,940.132,108.58
-270.596,1057.008,55.876
-214.72,1019.676,61.244
-200.324,931.592,64.66
-226.676,976.244,36.844
-238.388,938.668,15.372
-231.068,914.512,14.884
-142.496,1028.46,101.748
-124.928,954.284,100.772
-156.648,973.072,192.028
-274.256,841.068,-31.72
-295.24,881.328,48.312
-249.368,935.008,72.224
-216.916,976.732,69.54
-232.532,984.784,96.868
-280.6,1003.572,46.36
-237.9,1003.328,64.416
-161.528,1009.672,120.78
-191.784,1006.5,103.944
-222.528,962.336,85.644
-215.94,947.208,85.156
-191.296,989.908,89.06
-175.68,987.468,74.42
-162.504,982.832,72.468
-171.288,950.868,81.74
-186.172,961.848,76.616
-184.22,979.66,71.736
-163.236,987.468,68.32
-156.648,982.1,60.756
-158.6,996.252,61.244
-170.312,974.292,61.244
-153.232,939.156,73.444
-131.76,945.012,84.912
-133.224,969.412,79.544
-119.804,1001.132,59.292
-148.352,985.76,53.924
-132.004,942.816,71.98
-97.844,960.384,95.16
-109.556,973.56,94.916
-135.664,964.044,86.62
-138.104,1024.8,81.008
-125.416,1028.948,90.524
-139.568,974.78,95.648
-154.696,982.588,88.084
-147.376,983.076,73.2
-128.588,993.08,81.984
-145.18,955.992,77.104
-149.816,952.332,76.616
-136.396,962.824,76.616
-130.784,952.576,69.784
-114.68,1033.34,141.764
-89.06,947.208,45.628
-135.42,958.92,94.672
-115.656,944.036,91.256
-113.704,971.852,100.772
-112.972,989.908,83.448
-100.772,994.788,90.768
-85.644,963.068,102.724
-95.16,958.188,103.944
-106.872,951.112,89.792
-96.868,932.324,103.456
-98.332,968.436,100.284
-106.628,975.268,91.012
-89.304,969.656,94.184
-83.692,951.844,111.02
-89.792,953.308,109.556
-75.884,972.34,104.188
-75.152,971.608,102.724
-81.252,961.604,107.848
-88.816,985.272,100.528
-91.744,987.712,97.6
-77.348,970.632,104.188
-84.18,943.06,102.724
-77.348,948.428,96.136
-77.592,948.916,88.572
-76.128,932.08,85.644
-66.856,904.508,94.672
-62.952,845.704,93.452
-75.152,812.276,82.96
-81.984,801.052,64.904
-65.636,751.276,63.44
-48.556,725.9,62.952
-67.588,686.616,39.772
-103.944,703.696,20.252
-86.132,685.152,36.112
-41.48,684.664,54.412
-20.74,737.612,59.048
-26.84,797.88,50.264
-19.276,828.624,72.712
-34.648,904.996,59.292
-42.212,963.8,59.536
-68.076,970.388,61.488
-84.424,952.82,44.408
-60.512,966.972,44.408
-20.252,1047.248,46.116
-66.612,1105.32,64.904
-72.956,1071.892,36.844
-19.764,1052.86,44.652
-3.416,1083.36,66.856
-22.204,1144.116,52.46
-21.96,1216.584,50.996
-12.2,1183.156,72.468
-16.348,1106.54,59.78
-42.212,1075.308,57.096
-25.376,1114.592,45.628
0.732,1125.572,53.192
26.84,1206.336,74.908
46.36,1302.472,91.256
39.284,1311.012,89.06
83.204,1241.716,127.124
84.18,1270.996,120.048
59.292,1248.304,131.272
31.476,1195.356,102.48
15.128,1099.464,73.688
12.932,1026.264,50.02
1.708,984.54,32.208
21.716,896.944,33.916
54.412,784.216,12.932
26.352,816.912,16.104
50.264,949.648,13.908
24.156,1014.552,9.272
41.724,1056.276,15.128
61.0,1088.484,53.924
42.944,1097.512,74.908
35.38,1113.86,98.088
46.848,1087.264,91.744
39.528,1114.592,103.944
39.04,1158.512,96.136
18.056,1119.228,78.324
9.76,1049.444,62.708
25.864,1041.148,79.788
38.308,994.3,81.252
59.048,951.112,82.472
61.732,933.056,78.812
50.752,904.752,61.732
50.752,911.828,58.56
68.808,933.788,58.804
73.932,951.356,65.88
63.928,938.424,63.44
71.248,936.96,69.296
61.244,948.184,73.688
37.82,964.288,69.784
41.48,968.436,74.664
40.748,976.488,79.3
34.648,976.732,76.86
24.888,985.028,67.344
32.696,996.74,67.588
29.524,995.52,66.612
18.788,998.692,68.32
29.524,986.004,69.052
34.16,973.072,68.076
20.252,1001.864,69.296
16.348,1040.904,69.54
40.504,1033.096,76.128
30.256,1010.404,75.884
16.836,992.104,64.416
25.864,987.956,72.224
37.82,984.296,76.616
34.892,971.12,78.08
37.332,967.216,72.956
54.656,982.832,80.764
49.776,985.76,80.032
36.356,980.392,71.98
38.796,994.3,74.908
46.36,988.2,80.276
30.744,978.196,73.444
28.548,982.1,72.468
38.064,989.42,78.568
39.04,998.692,77.836
47.092,1000.156,85.644
42.944,986.98,86.864
37.332,981.368,80.276
50.752,980.148,86.132
49.044,1000.644,85.156
52.216,1001.864,82.96
46.848,1008.208,75.64
45.628,996.74,77.592
48.556,974.048,77.104
39.772,965.264,76.128
40.26,965.02,69.052
50.996,1001.62,59.78
61.244,1008.208,65.392
74.42,987.468,63.44
99.064,991.128,72.956
189.832,1018.7,107.604
121.756,993.568,63.928
119.804,976.976,70.76
96.868,1005.524,51.24
21.716,933.056,56.852
11.956,777.14,61.488
230.58,685.884,-84.668
496.784,576.328,-176.168
773.968,271.328,-393.572
599.996,-353.8,-566.568
415.044,-1014.796,-179.584
669.536,-1023.336,713.944
897.432,-604.876,896.944
1074.332,-976.976,70.272
1547.448,-737.856,-195.2
1354.2,-838.872,-205.448
1289.296,-1109.712,192.516
1499.38,-1233.664,311.832
1587.22,-1280.024,311.1
1680.184,-1252.94,295.24
1821.948,-1335.9,277.184
2071.804,-1511.58,357.216
2135.732,-1628.212,435.052
1998.848,-1605.52,374.54
1832.928,-1502.308,229.848
1631.628,-1447.652,169.58
1419.104,-1405.928,154.94
1189.256,-1347.368,118.584
1015.772,-1301.984,88.328
836.92,-1226.344,43.188
632.692,-1140.456,74.42
420.412,-993.812,-3.904
152.988,-847.656,-82.96
-189.344,-712.724,-84.424
-536.556,-518.744,-84.18
-755.912,-309.636,-96.868
-833.748,-109.8,-125.66
-715.408,34.16,-224.968
-434.32,113.46,-353.556
-41.236,207.4,-513.132
306.22,398.696,-701.5
649.528,574.62,-965.996
980.392,656.848,-1156.072
1115.324,610.976,-1168.028
981.124,435.296,-997.472
821.548,294.996,-800.32
613.904,143.472,-581.696
508.984,30.744,-392.596
405.528,-50.264,-195.932
308.172,-56.364,-75.396
201.788,-20.74,14.884
106.14,35.624,64.172
51.24,1.952,157.868
16.592,-179.828,416.996
84.18,-397.232,778.848
119.56,-503.86,978.196
243.024,-559.736,1141.92
461.16,-628.3,1326.384
649.528,-680.028,1401.048
864.98,-667.096,1356.64
910.608,-745.908,1423.74
910.364,-864.248,1469.856
968.68,-1017.968,1461.804
1144.116,-1142.164,1373.72
1332.972,-1176.568,1249.036
1311.744,-1219.756,1190.964
1333.704,-1184.376,1079.7
1431.548,-1095.56,823.5
1471.076,-1053.592,631.228
1443.016,-1034.804,485.316
1373.72,-1016.748,366.244
1260.016,-1005.28,274.256
1111.176,-977.464,211.304
1120.448,-904.752,26.596
1147.288,-801.296,-177.144
1080.676,-659.044,-350.628
1085.556,-410.896,-618.052
1114.348,-217.16,-875.96
1138.992,-47.824,-975.512
1152.168,61.488,-1030.9
1404.952,92.964,-972.096
1320.04,35.624,-568.52
968.924,94.428,-203.008
665.632,-63.684,-285.724
890.844,255.712,-636.84
1119.96,1473.272,-294.996
997.96,644.892,-210.816
294.996,1211.948,70.272
-216.184,583.404,-56.12
-230.336,396.988,270.596
-68.32,670.268,304.024
-210.328,697.84,195.688
-341.844,567.544,126.392
-478.484,848.388,161.284
-233.508,1111.908,149.572
-266.204,1085.8,125.416
-346.968,1009.184,63.684
-390.644,923.784,19.032
-297.924,947.452,44.164
-319.152,958.92,55.876
-330.376,903.776,57.34
-222.772,887.184,85.644
-172.752,959.164,101.504
-168.36,950.868,94.428
-182.756,926.468,73.688
-212.036,921.588,60.512
-285.48,926.956,35.136
-276.94,1010.404,11.956
-284.016,1007.964,10.004
-290.848,950.136,2.44
-281.576,976.244,5.856
-270.596,1012.112,0.976
-263.032,974.536,-2.196
-245.952,955.992,13.664
-219.844,946.476,23.424
-222.528,978.928,16.592
-224.724,983.076,17.324
-227.164,992.592,23.668
-226.676,982.1,30.5
-249.124,959.652,32.94
-247.66,953.308,35.38
-231.556,951.112,38.308
-236.436,957.7,36.112
-228.14,943.06,38.308
-226.188,946.72,34.16
-215.696,993.568,36.356
-203.008,961.848,32.208
-214.72,934.764,34.648
-238.876,944.768,36.844
-226.676,965.02,38.552
-200.08,966.972,42.7
-212.768,939.4,49.776
-233.264,927.932,51.972
-234.484,956.236,56.852
-213.744,964.044,59.536
-208.376,955.992,55.876
-204.716,973.316,64.416
-213.988,965.752,58.56
-214.232,971.12,59.536
-221.796,972.584,62.708
-225.7,952.82,59.292
-214.232,962.092,52.704
-213.5,975.024,53.68
-218.38,978.928,58.072
-218.38,958.188,56.364
-228.14,944.768,54.168
-220.82,962.336,60.756
-198.372,963.556,63.44
-206.668,952.088,60.024
-198.86,978.928,53.924
-199.348,969.656,55.632
-207.156,962.824,51.972
-227.896,959.408,52.216
-231.068,944.524,53.192
-221.308,969.168,51.24
-202.764,991.86,48.312
-204.472,979.66,53.192
-221.796,955.26,56.364
-227.164,948.916,60.024
-224.236,943.792,59.292
-205.692,942.328,67.344
-200.324,975.756,66.368
-199.104,959.408,63.928
-198.86,959.896,64.904
-203.74,982.1,56.852
-220.576,970.632,60.024
-207.888,954.772,56.852
-209.84,971.12,56.608
-204.472,955.016,64.416
-191.784,960.384,71.248
-189.344,967.704,66.124
-206.912,949.892,61.488
-210.816,957.944,58.316
-221.796,962.092,55.144
-231.556,951.356,58.804
-221.308,937.936,66.124
-216.672,939.644,70.272
-210.816,948.428,64.904
-195.688,958.676,66.124
-197.64,956.48,69.784
-213.5,938.668,66.612
-220.332,955.016,55.632
-216.672,964.044,51.728
-204.716,947.696,59.292
-199.592,941.108,64.904
-205.692,942.084,63.684
-203.008,936.96,60.268
-199.104,945.256,52.216
-199.348,938.424,41.724
-194.224,919.392,37.576
-185.928,884.744,38.064
-172.508,861.076,50.508
-161.284,830.088,65.392
-143.716,772.748,83.204
-132.248,783.484,81.74
-145.18,800.564,70.272
-145.424,798.856,67.1
-124.928,800.808,68.076
-93.696,783.484,68.808
-104.676,747.372,62.464
-95.16,716.628,48.556
-73.2,655.14,37.82
-42.7,602.192,35.38
-33.184,587.308,28.548
-66.368,610.244,16.348
-81.74,626.592,24.888
-44.652,741.516,44.652
73.444,835.944,54.9
137.86,798.368,100.284
31.964,798.612,87.84
-52.948,894.748,44.164
-45.384,1028.46,35.38
-26.352,1146.8,44.164
-6.344,1190.232,43.92
80.52,1132.16,80.032
157.136,1130.696,115.168
75.396,1208.532,64.66
93.452,1251.72,40.016
127.856,1276.608,28.304
109.556,1237.08,1.22
70.516,1232.2,-42.944
57.096,1198.772,-73.932
69.54,1281.976,-89.06
27.572,1422.276,-99.552
42.7,1434.964,-115.412
89.06,1399.096,-94.184
91.012,1379.088,-68.076
106.872,1345.66,-60.756
136.152,1300.764,-47.824
161.772,1234.884,-36.6
149.328,1174.86,-33.184
145.18,1102.148,-38.308
147.864,1054.812,-49.532
121.024,1039.44,-67.344
105.896,1023.824,-87.108
98.088,1028.46,-91.256
81.496,1000.888,-98.82
74.664,942.816,-100.04
72.712,924.272,-93.208
95.16,930.372,-90.28
86.132,918.66,-98.82
78.812,943.792,-104.188
82.472,963.556,-99.064
90.036,982.588,-107.36
80.032,1002.596,-103.212
69.296,982.1,-97.112
74.176,951.356,-94.672
78.08,944.768,-90.524
82.228,972.584,-89.548
93.94,996.008,-87.352
93.452,982.1,-90.768
81.984,988.444,-96.38
74.42,989.176,-101.748
74.664,967.704,-95.404
85.644,973.072,-92.476
85.644,984.784,-88.572
96.38,1002.596,-78.568
79.056,991.86,-74.176
53.924,978.196,-72.224
51.24,954.04,-69.296
47.336,934.52,-65.636
51.972,966.728,-76.616
66.368,997.96,-77.836
77.104,988.688,-80.276
89.548,999.912,-69.54
90.768,989.176,-67.588
83.692,987.468,-67.344
77.836,987.468,-77.348
68.076,1006.5,-89.304
71.736,1003.816,-86.376
66.612,980.392,-84.912
74.42,978.928,-84.912
78.08,991.86,-84.424
86.132,988.932,-81.984
74.908,985.028,-80.764
71.492,977.708,-89.304
73.2,983.808,-83.936
62.22,978.928,-85.644
68.32,974.048,-85.644
89.304,986.736,-76.616
94.428,996.74,-68.564
80.032,1002.84,-79.3
67.1,1003.572,-77.836
62.22,971.852,-78.08
61.976,970.632,-74.176
73.2,978.684,-68.076
82.96,1004.304,-70.76
94.916,1026.02,-64.172
79.056,1002.596,-72.956
70.272,990.64,-71.736
65.636,982.1,-70.516
74.42,985.516,-73.444
70.76,976.976,-75.396
57.34,987.712,-82.716
71.98,998.936,-85.644
75.884,985.76,-77.348
77.104,961.848,-78.08
67.344,967.216,-81.252
72.224,966.728,-81.008
69.296,976.0,-82.716
78.324,997.716,-77.592
117.852,1030.9,-44.408
193.248,1134.112,-15.372
214.476,1304.912,122.976
155.672,1100.196,-34.16
167.384,815.936,30.5
174.46,638.06,14.884
190.32,379.176,-247.416
591.212,246.44,-335.012
683.2,407.968,-482.876
554.612,-103.212,-386.008
701.012,-491.416,-88.328
934.52,-704.184,263.52
1252.696,-1055.056,224.968
1449.604,-1135.82,260.348
1335.9,-996.252,116.388
1307.108,-892.064,-95.892
1663.104,-850.34,-231.068
1750.212,-965.508,-191.052
1611.864,-1093.364,13.42
1512.556,-1230.004,171.532
1732.888,-1245.132,125.416
2013.732,-1396.656,101.504
2039.352,-1485.716,111.752
1860.256,-1383.236,33.916
1755.824,-1245.864,-24.888
1724.348,-1202.432,-55.388
1635.288,-1248.548,-24.4
1405.44,-1228.052,-29.28
1078.968,-1080.188,-83.692
782.752,-911.584,-168.116
506.3,-758.596,-215.208
172.508,-557.54,-219.112
-89.548,-437.98,-116.876
-223.26,-481.9,26.352
-287.188,-473.116,75.396
-378.2,-427.244,143.716
-438.956,-284.26,162.016
-406.504,-124.44,117.608
-296.948,83.936,-54.9
-46.848,254.736,-309.392
190.808,345.992,-526.064
354.288,480.436,-704.184
460.672,698.572,-891.576
536.8,774.212,-958.432
624.152,713.7,-947.94
752.74,583.404,-896.944
852.78,407.968,-833.016
885.72,251.808,-727.852
944.036,125.416,-618.54
881.328,-17.812,-465.796
748.836,-74.908,-338.428
622.688,-22.448,-277.916
456.768,16.836,-199.592
350.384,83.204,-165.676
264.252,83.936,-100.04
80.276,-148.596,207.644
-64.416,-324.032,547.78
27.084,-341.6,689.544
213.5,-382.348,809.104
414.312,-496.54,940.864
611.708,-659.532,1023.336
747.128,-837.896,1148.996
825.94,-912.072,1201.456
899.872,-909.144,1213.9
1033.096,-954.772,1154.364
1184.376,-1025.532,1060.912
1146.8,-1136.308,1048.224
1203.408,-1238.3,984.54
1251.476,-1206.58,854.732
1213.656,-1069.94,694.912
1198.528,-1026.02,601.216
1264.652,-1044.076,495.808
1365.424,-1032.12,344.772
1394.46,-1076.04,283.528
1509.14,-1089.704,213.256
1671.644,-962.092,42.456
1695.312,-889.868,-65.636
1631.384,-890.356,-151.28
1631.628,-783.484,-261.812
1511.824,-665.632,-401.624
1417.64,-533.384,-480.436
1229.76,-407.724,-568.764
1125.572,-268.888,-602.436
981.856,-188.856,-573.4
808.372,-72.468,-465.064
709.064,82.472,-450.912
613.416,338.428,-604.388
390.4,390.156,-843.264
102.724,294.508,-727.608
576.328,623.176,-590.968
382.592,786.168,-22.204
46.848,776.408,-76.128
-270.596,1142.652,4.636
-460.184,628.056,8.784
-509.716,769.82,84.424
-501.42,1239.276,34.648
-528.016,1209.752,58.56
-432.368,978.928,121.512
-298.412,956.724,158.112
-324.52,957.7,101.26
-293.776,877.424,58.804
-247.66,878.4,42.944
-254.492,867.176,37.576
-252.052,875.716,24.156
-208.132,927.932,28.06
-196.176,911.34,41.236
-206.18,986.736,28.304
-235.948,1002.84,27.816
-264.496,950.38,29.036
-251.076,984.54,34.648
-243.268,1043.832,20.496
-271.816,1033.34,5.368
-278.892,1036.756,-6.1
-290.116,1015.772,-15.128
-268.4,991.616,3.904
-258.64,1006.256,3.66
-262.056,983.32,6.344
-263.276,962.092,14.64
-241.804,944.524,24.4
-220.576,914.756,38.552
-205.936,930.128,39.04
-217.404,970.876,30.5
-232.532,983.808,19.52
-223.504,944.768,35.624
-222.772,918.416,42.456
-226.188,910.12,45.14
-213.988,946.72,36.844
-198.128,956.236,45.384
-228.14,908.9,61.0
-213.256,921.1,70.272
-201.056,944.036,70.028
-190.808,905.972,82.228
-186.904,932.812,76.128
-201.544,944.28,72.224
-207.156,945.5,69.052
-196.664,950.868,67.344
-189.588,980.148,54.9
-171.532,990.64,56.364
-183.488,972.828,58.316
-196.908,983.808,54.168
-195.2,958.676,61.488
-173.24,952.088,70.272
-152.256,973.316,77.348
-140.544,1002.108,77.836
-143.716,1008.696,74.908
-150.06,1011.868,62.464
-165.676,1004.06,60.024
-177.632,998.936,59.292
-183.244,980.636,63.196
-162.016,978.684,65.88
-139.08,979.904,69.784
-133.956,987.712,61.976
-131.516,992.104,60.756
-116.388,985.76,74.908
-130.54,971.12,73.688
-140.788,968.436,72.468
-127.612,967.46,74.42
-99.308,982.588,84.668
-110.044,979.904,83.936
-112.972,972.828,87.84
-120.048,972.096,82.472
-127.124,980.392,75.884
-129.32,986.004,77.348
-121.512,969.412,81.008
-121.512,982.1,77.348
-120.536,972.828,81.008
-109.556,985.76,81.984
-109.312,986.492,78.568
-107.848,997.472,71.736
-109.068,992.104,72.712
-121.512,962.824,82.96
-124.928,958.676,80.764
-132.98,955.016,75.152
-137.128,941.352,75.884
-137.128,955.504,71.736
-121.268,960.14,77.836
-126.392,948.428,82.716
-122.732,971.852,81.74
-112.484,980.636,77.104
-102.236,981.124,77.592
-108.092,975.756,77.592
-119.56,949.404,83.936
-124.928,925.248,88.816
-119.56,915.0,87.108
-96.38,914.512,87.352
-84.18,879.62,90.28
-88.328,842.288,91.744
-111.508,822.768,85.156
-97.112,799.344,67.588
-78.812,774.212,53.192
-59.536,747.128,37.576
-48.312,673.684,42.7
-66.368,596.58,49.044
-79.3,558.516,64.904
-77.104,587.064,73.2
-39.284,691.74,53.68
-61.0,809.104,-8.296
-67.344,924.516,12.932
-126.392,862.052,-18.056
-161.04,825.94,9.516
-138.348,825.696,30.988
-118.584,867.908,55.876
-68.076,874.984,63.44
-35.624,913.536,76.616
-58.316,979.416,73.444
-70.76,1012.112,66.124
-56.12,1030.9,68.564
-63.196,1074.576,67.832
-76.616,1121.912,77.348
-77.836,1076.772,61.732
-67.1,1038.708,63.684
-68.32,1094.34,47.092
-94.184,1248.548,22.204
-108.58,1263.432,-10.736
-67.832,1172.176,-30.256
-39.528,1149.972,-6.1
-29.036,1088.972,-22.204
-8.784,1110.444,-34.892
37.088,1212.192,-32.452
88.084,1262.7,-17.324
136.152,1216.828,-4.636
142.008,1174.128,-15.128
130.784,1224.88,-19.032
130.052,1254.648,-40.016
90.768,1242.936,-50.996
47.824,1216.584,-79.788
41.724,1211.704,-81.496
41.48,1153.876,-92.964
56.12,1071.16,-98.332
60.268,1030.168,-107.604
44.408,1007.476,-97.356
44.408,953.064,-114.192
52.704,967.948,-107.36
27.816,987.956,-113.46
23.424,986.736,-123.708
31.232,998.204,-114.924
52.216,1048.712,-94.916
71.004,1047.736,-86.376
63.928,998.204,-88.084
48.556,1038.22,-68.564
49.288,1048.224,-56.608
51.484,1033.584,-66.124
59.536,1037.244,-65.148
78.812,1027.24,-63.928
81.008,997.96,-67.832
82.96,989.908,-57.828
90.524,973.072,-51.728
79.788,958.92,-52.216
77.348,956.724,-52.948
74.176,980.636,-48.312
77.592,992.348,-43.92
72.224,989.908,-40.992
68.564,975.268,-44.652
75.152,1001.62,-41.968
61.488,1019.188,-37.82
61.244,996.74,-49.288
70.76,999.912,-42.7
62.464,994.544,-50.752
72.224,1009.428,-52.216
83.204,998.936,-45.628
82.716,969.168,-40.748
54.9,958.188,-47.824
54.412,967.216,-57.828
57.828,991.86,-54.9
48.8,987.712,-66.124
40.26,989.908,-67.832
33.184,967.216,-73.688
43.188,968.192,-71.98
47.824,972.828,-73.444
55.632,968.924,-78.568
53.192,966.24,-88.816
84.668,1030.168,-67.588
81.984,1045.296,-55.876
64.904,1020.896,-66.368
63.684,987.956,-65.148
54.9,955.992,-63.196
61.976,934.52,-57.34
94.672,1020.652,-29.524
150.792,1135.576,-56.364
206.912,1267.092,-18.544
241.316,1302.228,-6.588
155.672,1152.9,4.392
32.452,979.66,146.888
-2.196,744.444,-132.004
189.588,306.708,-220.332
365.268,105.896,-257.176
429.684,-451.888,-423.34
625.86,-921.344,-187.392
1022.36,-1183.4,65.392
1020.408,-1279.292,108.58
1188.28,-1033.584,-24.888
1348.1,-752.252,-276.208
1194.624,-759.572,-335.012
1308.328,-980.392,-179.828
1462.536,-1160.708,-115.168
1604.544,-1224.636,-87.596
1713.612,-1304.424,-98.332
2010.316,-1444.236,-88.816
2100.352,-1504.26,-104.676
1935.408,-1418.128,-88.572
1824.632,-1398.608,-67.588
1708.0,-1472.784,-48.068
1569.164,-1396.412,-118.828
1475.712,-1237.324,-241.56
1136.552,-1167.296,-185.684
875.716,-976.732,-205.448
719.8,-824.964,-263.764
393.084,-645.136,-223.26
201.788,-597.8,-135.176
78.324,-624.152,-30.744
-59.536,-582.672,24.156
-287.188,-556.564,108.092
-325.984,-431.148,201.788
-277.916,-372.588,222.772
-268.156,-223.26,87.108
-109.556,21.472,-165.432
44.408,186.172,-410.652
189.1,226.188,-608.048
322.812,443.836,-913.78
488.0,656.604,-1136.796
550.464,712.968,-1142.896
548.268,617.564,-1037.488
669.78,534.36,-986.736
646.844,471.896,-914.268
640.5,401.38,-793.976
593.652,198.86,-606.828
498.248,-25.864,-353.8
306.708,-161.04,-114.436
165.188,-177.388,33.916
102.48,-111.264,93.94
119.56,-67.1,111.02
134.932,-77.104,251.076
154.452,-197.64,454.816
319.396,-344.284,651.968
380.64,-487.024,863.272
542.656,-609.024,1076.772
683.688,-682.468,1190.964
886.452,-757.376,1237.08
1002.596,-791.292,1276.852
1047.248,-832.528,1327.36
1134.844,-867.176,1322.968
1248.304,-919.88,1239.032
1433.256,-1004.548,1108.492
1471.076,-947.94,961.848
1417.152,-919.636,914.512
1412.028,-923.296,852.292
1497.672,-1008.696,715.164
1744.112,-1023.58,454.816
1699.46,-951.844,299.876
1413.492,-899.628,261.324
1267.092,-845.704,186.66
1160.952,-878.4,93.208
1106.296,-887.428,55.632
1059.936,-852.292,-4.636
1076.284,-761.768,-158.844
1135.82,-645.868,-365.024
1162.172,-467.992,-576.084
1168.516,-312.808,-702.232
1085.068,-233.02,-712.724
965.02,-238.388,-639.768
949.648,-224.968,-567.056
975.268,-247.66,-461.404
1073.844,-283.772,-306.952
987.224,-370.88,-190.076
833.504,-450.668,54.412
752.74,-306.22,246.928
760.792,-181.048,162.992
867.908,-87.596,55.876
952.332,623.176,259.128
590.236,430.904,-51.728
219.356,1005.036,-346.236
-157.38,857.904,25.864
-281.088,1006.744,-75.884
-484.096,1066.036,-65.148
-487.268,1116.788,-7.808
-413.336,1288.564,48.312
-399.916,1108.98,18.788
-405.772,1030.412,14.396
-405.04,1044.808,27.816
-290.36,837.652,25.132
-182.512,634.888,55.144
-230.336,855.708,118.096
-232.288,1093.852,90.28
-204.96,1039.684,83.448
-162.504,840.092,61.732
-172.264,799.1,81.008
-241.56,879.132,85.4
-239.12,1013.332,84.18
-218.624,907.436,68.076
-237.9,878.156,63.44
-241.316,977.22,36.356
-228.628,1044.076,9.028
-218.868,1070.672,31.232
-212.768,1003.572,33.916
-217.16,942.328,40.504
-211.548,959.896,39.772
-215.94,963.556,29.036
-162.016,995.764,49.776
-131.028,978.44,54.168
-137.128,956.724,52.46
-135.42,941.108,54.9
-148.352,967.704,52.46
-153.476,985.028,47.092
-165.432,960.628,45.384
-160.552,943.548,48.556
-170.312,967.704,45.384
-211.792,1001.62,36.112
-177.144,996.984,43.92
-129.32,984.052,71.004
-114.192,968.436,90.28
-148.596,1009.916,90.524
-131.272,1031.632,83.936
-86.376,1015.528,83.448
-108.336,983.076,88.572
-119.316,945.5,73.688
-143.472,973.804,56.852
-177.876,963.556,40.992
-170.556,998.936,51.484
-122.488,986.98,49.776
-132.492,946.476,50.02
-152.988,951.112,44.652
-128.588,998.936,47.336
-121.024,988.444,50.508
-126.636,949.892,55.388
-126.148,964.288,67.344
-130.784,955.748,75.64
-134.444,965.996,66.612
-147.864,968.436,62.464
-149.816,961.116,63.928
-132.98,969.656,71.004
-128.1,983.32,69.784
-114.68,977.708,74.42
-103.7,973.56,81.496
-106.14,963.312,81.984
-106.872,960.14,79.056
-128.344,972.34,77.104
-134.688,966.972,67.344
-125.416,947.208,63.684
-109.8,910.12,71.736
-107.604,872.544,81.74
-105.896,847.412,85.888
-91.256,821.792,93.452
-52.46,792.268,92.476
-44.896,753.716,92.476
-55.388,722.484,78.568
-93.696,703.696,55.632
-122.488,703.94,38.796
-105.896,761.036,33.672
-62.708,774.212,58.56
-28.548,748.836,82.228
-28.548,750.3,87.108
-55.388,777.384,84.668
-78.324,831.796,68.808
-76.616,925.248,60.024
-39.528,950.136,67.344
20.984,875.716,96.136
68.076,798.856,115.656
81.496,822.768,126.636
46.36,905.728,119.072
13.42,992.592,103.944
73.688,1013.332,111.264
105.896,996.496,126.88
123.952,946.964,121.512
119.316,939.156,122.244
118.828,993.324,118.828
140.056,1070.184,106.872
110.532,1087.02,76.372
91.988,1089.216,53.192
103.7,1047.736,45.14
153.476,1055.056,38.552
171.288,1126.548,51.728
151.036,1200.48,36.6
150.06,1245.132,42.7
199.592,1206.824,51.24
221.308,1219.512,43.432
185.44,1297.348,59.048
169.336,1310.28,63.44
161.04,1300.764,80.764
191.784,1249.036,92.72
203.984,1214.144,85.156
185.928,1208.288,67.344
189.344,1190.964,65.392
183.0,1182.912,68.076
171.776,1148.264,49.776
164.212,1095.804,15.128
151.768,1069.208,8.54
152.256,1060.18,-13.664
142.252,1061.644,-24.156
152.988,1031.876,-26.84
146.644,1002.596,-31.72
132.98,987.956,-35.38
154.696,972.584,-27.084
221.796,959.408,-2.44
229.36,1004.792,25.62
217.648,1002.596,23.912
194.956,962.336,18.056
185.928,954.04,20.496
185.928,943.06,22.448
172.508,941.84,23.668
167.384,954.04,15.128
158.844,956.968,7.32
153.476,951.356,0.488
136.396,944.524,-7.32
143.472,935.984,-7.32
163.724,936.472,-0.244
177.144,944.768,10.248
184.952,963.312,15.128
187.636,976.244,19.276
172.508,978.44,15.372
164.456,969.412,10.004
167.14,990.64,21.96
168.36,986.004,22.936
169.824,980.392,27.328
164.944,990.64,23.424
169.092,998.692,30.012
159.088,977.22,28.06
148.84,969.656,19.764
149.328,978.196,19.764
144.692,989.664,19.52
144.692,991.616,25.132
153.476,964.044,18.788
166.164,974.78,30.256
156.404,990.884,27.572
148.108,987.956,17.08
151.768,994.544,21.472
157.868,989.664,24.156
162.748,1000.4,30.256
160.064,989.908,29.28
153.72,988.932,25.864
147.132,997.228,22.204
150.304,987.712,14.64
155.672,965.264,21.228
156.16,949.404,26.352
160.064,965.508,25.376
160.064,995.764,25.864
175.192,1007.232,25.62
174.948,1020.896,36.6
147.864,956.968,29.768
165.432,904.508,19.276
217.648,952.332,41.968
299.388,1077.016,83.936
356.484,1213.412,155.916
266.936,1067.5,87.84
244.732,776.408,4.636
243.512,656.116,-64.416
537.044,432.368,-206.424
838.14,344.528,-356.24
863.272,149.816,-409.188
586.088,-366.244,-191.296
711.748,-560.712,1.708
1023.58,-895.236,363.56
1154.608,-1027.24,366.0
1357.372,-810.812,-50.752
1511.336,-637.084,-248.392
1413.98,-662.46,-213.5
1550.132,-783.972,-121.268
1790.472,-1021.384,28.548
1827.804,-1217.072,154.696
1992.26,-1332.972,165.676
2171.844,-1476.2,174.704
2222.352,-1455.216,170.312
1980.304,-1501.088,193.004
1831.22,-1455.46,176.412
1654.076,-1423.74,122.732
1403.488,-1372.256,111.264
1049.2,-1200.968,60.268
828.868,-931.104,-32.208
627.568,-773.724,-86.62
440.176,-599.996,-96.136
278.892,-661.484,-53.924
101.504,-518.012,-46.36
-41.236,-305.976,-111.508
-96.624,-259.616,-44.408
-240.34,-241.316,107.848
-254.248,-184.22,109.8
-307.44,-151.036,65.636
-346.236,-47.824,1.952
-323.544,151.28,-205.936
-249.612,273.524,-357.46
-10.492,333.792,-532.652
406.26,467.504,-833.504
710.284,659.288,-1019.188
802.272,713.456,-1078.724
950.868,688.568,-1143.872
977.464,530.7,-1059.692
928.176,369.172,-937.448
815.692,222.04,-769.088
698.816,149.084,-601.46
539.972,64.904,-432.368
533.384,31.72,-320.372
585.112,28.548,-268.4
556.32,-49.288,-143.228
558.76,-83.448,-76.128
399.916,-206.912,103.212
370.636,-285.724,261.812
416.752,-274.5,333.304
330.132,-318.908,540.216
273.768,-377.468,730.292
363.316,-487.024,893.04
384.788,-630.984,1068.964
449.936,-684.176,1122.888
654.164,-743.224,1148.996
754.204,-752.252,1173.64
701.256,-658.556,1156.316
692.472,-678.32,1199.26
788.364,-788.852,1240.496
963.312,-1015.528,1274.412
1154.364,-1221.22,1225.368
1240.008,-1237.568,1136.308
1366.4,-1148.996,965.02
1457.168,-1091.9,767.38
1564.772,-1149.728,613.416
1729.472,-1105.808,374.784
1809.748,-1035.536,166.896
1773.392,-1066.036,54.168
1711.904,-1006.256,-56.852
1641.144,-855.22,-210.816
1448.14,-731.024,-335.012
1352.492,-667.096,-386.008
1384.7,-525.088,-542.168
1367.132,-414.556,-650.26
1020.652,-349.652,-652.7
765.184,-187.88,-640.256
643.184,-8.784,-685.884
792.024,130.784,-614.392
710.04,95.892,-471.408
547.536,59.536,-401.868
471.652,221.796,-412.36
637.328,841.312,-239.852
706.624,951.356,-23.668
429.196,563.396,-111.264
90.28,720.776,-13.176
-175.436,993.568,131.516
-356.972,1107.76,208.864
-413.824,1020.652,121.756
-484.584,1164.124,90.524
-463.844,1113.372,68.808
-447.008,1019.432,54.9
-362.34,888.16,42.7
-336.964,887.428,43.92
-328.668,1006.012,46.604
-258.396,1016.26,66.124
-254.004,917.684,74.908
-299.876,938.668,61.0
-304.756,982.344,55.144
-193.736,982.832,77.348
-124.928,976.0,108.092
-157.136,1006.5,105.652
-170.068,994.3,100.284
-194.956,958.432,97.356
-213.744,974.292,98.576
-203.496,931.836,89.304
-228.872,910.364,81.984
-260.836,940.132,56.12
-243.268,948.916,63.196
-215.696,957.944,58.56
-222.04,935.984,57.34
-253.76,942.572,36.844
-246.196,977.464,42.456
-204.228,1010.648,57.584
-179.828,952.576,57.584
-192.272,921.588,59.048
-223.016,941.108,50.508
-228.628,935.008,42.944
-211.548,925.736,45.872
-208.62,935.008,56.364
-229.604,936.96,49.288
-224.236,971.364,49.532
-217.892,1000.888,51.24
-196.908,1000.888,64.66
-183.488,980.636,73.2
-186.172,986.004,86.132
-189.1,991.86,86.62
-204.228,943.548,78.324
-210.328,944.768,70.272
-197.396,971.852,74.176
-185.196,967.46,71.004
-192.516,924.028,68.32
-202.032,932.812,66.856
-208.864,957.456,64.904
-182.024,935.008,59.292
-178.12,936.716,60.512
-200.324,937.936,56.12
-216.916,944.768,52.216
-221.552,963.068,48.312
-199.592,994.544,57.096
-200.324,965.508,60.268
-201.3,946.72,65.636
-196.664,943.304,63.928
-190.564,956.968,58.316
-182.268,953.064,53.924
-160.796,918.416,61.732
-139.812,887.184,62.464
-122.488,841.8,62.952
-108.092,792.756,64.172
-80.276,787.876,66.124
-68.564,766.16,71.492
-78.568,718.824,62.22
-100.528,717.848,58.804
-103.944,752.74,59.292
-84.424,778.116,68.808
-100.772,802.76,72.224
-109.556,799.588,60.024
-102.48,771.772,45.14
-96.624,759.328,27.328
-122.488,788.364,17.08
-145.18,811.056,14.64
-142.252,826.916,-1.464
-91.988,851.56,-7.076
-51.484,836.432,-10.492
-45.872,896.7,-17.812
-70.028,961.36,-22.936
-78.08,1014.552,-31.964
-52.216,1064.084,-28.548
-4.148,1066.036,-8.052
16.836,1042.612,-1.464
14.884,1091.9,-2.44
12.2,1184.376,-2.928
57.096,1192.916,9.516
103.456,1141.676,-0.488
94.184,1118.984,-1.22
52.948,1121.18,-22.204
35.136,1128.5,-47.336
59.048,1159.732,-64.416
99.064,1178.52,-66.368
115.656,1148.752,-80.032
86.376,1116.788,-110.776
71.004,1130.696,-119.072
71.98,1160.22,-123.464
62.22,1169.248,-139.08
69.54,1151.924,-147.864
101.992,1137.284,-137.86
134.932,1145.336,-115.9
169.092,1158.024,-105.408
184.464,1155.828,-98.82
169.092,1150.704,-107.848
130.54,1157.292,-118.828
108.58,1152.656,-122.976
87.84,1130.452,-124.44
98.82,1116.3,-120.048
109.312,1080.676,-103.456
100.772,1052.616,-101.26
111.02,1020.652,-102.48
127.612,997.228,-100.284
126.148,986.98,-92.72
127.124,969.9,-91.012
131.028,941.352,-91.744
133.224,962.092,-82.96
128.832,970.144,-79.056
127.368,936.228,-88.572
137.372,925.248,-78.324
116.876,927.2,-83.448
125.172,941.108,-81.496
123.464,957.944,-80.764
126.392,978.928,-77.836
123.22,975.512,-74.176
110.776,951.112,-78.568
121.024,948.916,-71.736
128.1,970.144,-64.66
115.656,993.568,-71.98
113.948,1001.62,-75.152
108.092,998.448,-79.3
115.656,993.568,-71.004
117.852,993.568,-67.344
123.22,998.448,-67.832
112.484,996.252,-66.856
101.504,974.536,-73.688
106.384,973.56,-78.08
110.776,982.588,-73.2
101.748,979.172,-78.812
92.72,988.932,-79.3
98.576,986.492,-80.52
95.892,971.852,-77.104
95.892,959.408,-83.936
95.16,971.364,-84.912
101.016,978.928,-88.572
99.064,984.784,-90.036
97.356,965.264,-100.528
101.992,975.756,-92.72
166.164,1070.428,-67.1
283.528,1184.376,-43.92
356.728,1317.844,18.056
308.66,1315.404,18.544
82.716,866.932,8.296
191.54,485.072,-91.744
488.0,71.736,-274.744
728.584,-60.024,-360.632
818.864,-198.372,-363.316
1144.36,-208.864,-361.364
961.36,-559.492,-259.128
991.372,-692.228,34.648
869.128,-761.28,110.532
889.624,-814.228,-135.176
1061.644,-895.48,-131.028
1200.968,-1045.784,-106.872
1273.192,-1091.168,-8.296
1180.716,-1190.72,18.056
1247.084,-1132.404,55.632
1463.756,-1132.16,24.644
1626.016,-1259.772,22.448
1629.92,-1311.012,96.38
1641.388,-1251.476,97.6
1701.168,-1180.716,26.596
1576.728,-1153.876,-31.964
1390.8,-1096.048,-7.564
1123.864,-984.052,38.552
990.396,-858.88,19.276
891.576,-839.36,21.716
948.916,-883.524,49.288
988.932,-958.188,29.768
870.592,-871.324,18.788
693.448,-740.54,33.184
577.06,-659.288,40.992
508.74,-581.94,-22.936
469.212,-534.604,-71.98
253.516,-601.704,37.82
-43.92,-561.688,155.184
-233.264,-347.944,162.504
-204.228,-140.056,8.54
29.768,-5.856,-283.284
328.424,40.26,-577.792
435.296,111.752,-722.24
407.236,206.18,-718.824
380.396,277.428,-689.3
512.888,427.0,-752.496
611.952,475.556,-784.948
715.652,407.968,-738.588
818.864,268.156,-685.884
819.84,107.604,-554.368
759.572,18.3,-433.1
754.936,-21.228,-352.092
709.552,-40.992,-305.488
593.164,10.98,-221.064
437.98,-13.908,-74.908
302.072,-0.488,44.652
210.084,91.988,112.484
183.488,55.632,202.032
188.612,68.32,276.208
217.16,72.468,379.908
203.496,70.272,573.888
272.548,50.996,729.316
391.62,-82.716,813.74
471.164,-278.892,966.484
428.22,-474.58,1216.828
387.96,-670.512,1355.908
510.204,-782.508,1342.488
715.408,-738.832,1242.448
870.348,-644.648,1117.764
942.084,-754.692,1128.256
1087.02,-913.536,1144.36
1252.696,-1161.684,1130.94
1405.196,-1282.464,1085.312
1525.732,-1294.908,1011.624
1560.136,-1300.764,878.888
1560.136,-1331.752,753.96
1650.416,-1369.572,564.86
1594.54,-1332.728,386.74
1450.58,-1264.896,245.952
1351.028,-1161.44,74.42
1240.496,-1041.636,-56.852
1085.8,-853.512,-216.184
1006.012,-737.124,-371.856
950.136,-549.0,-532.408
904.264,-401.38,-654.652
820.328,-229.604,-711.504
760.548,-179.34,-721.508
716.384,-139.324,-682.468
835.212,-96.624,-588.04
1031.144,-64.904,-524.6
900.116,-15.616,-478.728
634.888,4.392,-317.932
488.976,201.056,-249.368
673.196,1099.708,-119.072
919.88,415.776,-186.172
353.068,178.608,-59.292
336.964,1191.94,-110.044
111.996,1374.696,-59.78
-88.572,1187.304,28.548
-276.696,881.084,-36.356
-325.74,996.252,63.44
-301.34,1240.984,43.92
-355.996,1047.248,4.636
-458.476,845.948,-17.08
-398.452,837.164,9.76
-258.64,830.82,54.656
-226.92,822.524,81.252
-237.9,898.408,72.712
-239.852,936.96,75.396
-245.708,927.444,73.2
-193.004,941.352,90.768
-181.536,1014.064,87.84
-196.664,1029.924,76.616
-191.052,1015.04,68.076
-237.656,1005.036,52.216
-228.384,1016.016,54.656
-214.964,986.98,55.388
-219.356,930.128,56.12
-214.72,894.504,51.24
-201.3,958.92,63.196
-183.488,975.268,63.684
-162.748,917.196,72.224
-153.476,938.424,80.032
-148.108,939.644,70.76
-199.104,939.888,50.996
-248.392,923.052,15.128
-246.44,983.076,9.516
-239.608,1018.7,16.104
-236.436,995.52,35.868
-219.356,972.096,42.7
-230.336,978.684,37.576
-188.856,1014.552,41.236
-159.82,1012.844,65.636
-169.824,948.184,72.468
-183.0,938.912,66.368
-193.736,963.312,69.052
-188.124,1003.572,57.584
-191.052,1004.792,44.896
-202.276,997.228,33.672
-198.128,995.032,42.212
-194.468,965.996,45.384
-182.756,915.976,52.948
-154.696,924.272,54.412
-135.42,943.304,58.56
-152.5,947.452,50.752
-183.488,897.676,46.36
-193.004,852.292,47.092
-194.956,873.52,48.556
-173.484,905.972,38.552
-152.744,923.784,40.016
-147.376,877.424,47.092
-134.932,828.38,56.364
-126.88,812.032,53.192
-112.484,801.54,45.14
-90.524,768.112,46.116
-105.164,737.856,38.064
-117.12,729.56,33.428
-117.364,742.98,31.964
-85.156,734.44,42.212
-38.308,772.504,61.488
-55.144,786.9,56.852
-80.764,824.72,46.604
-96.136,848.144,51.972
-93.94,828.136,57.34
-29.28,840.336,78.812
20.74,865.712,90.768
-0.976,877.912,81.252
-32.208,918.416,74.176
-48.556,956.236,56.12
-63.928,997.228,43.92
-56.608,1030.9,38.796
4.148,1055.544,63.928
38.064,1088.24,100.772
34.892,1119.472,110.044
53.436,1086.044,98.82
60.268,1086.532,81.984
93.696,1093.608,70.76
111.752,1119.96,32.696
119.56,1178.52,0.244
111.508,1136.796,-2.44
80.52,995.52,-29.036
87.596,973.56,-30.988
111.752,1013.576,-37.576
125.904,1098.976,-46.36
130.54,1128.012,-44.164
149.084,1114.592,-46.604
193.248,1116.056,-26.596
224.724,1114.104,19.276
269.864,1082.14,58.804
242.78,1073.112,76.616
158.844,1186.084,39.772
105.164,1296.372,37.576
96.868,1342.244,41.724
96.624,1301.496,45.628
92.476,1223.904,39.528
98.332,1169.98,23.18
125.66,1140.212,27.328
128.832,1092.632,21.228
117.608,1050.664,10.736
117.364,1022.848,9.76
86.62,961.36,-12.932
78.324,922.808,-21.228
85.644,959.408,-20.252
70.028,992.836,-25.376
78.812,1017.724,-16.592
70.272,982.1,-24.644
71.004,980.88,-25.864
113.704,1021.14,7.808
138.592,1007.964,13.908
142.74,997.472,15.128
134.2,984.54,16.836
128.588,966.972,11.712
140.056,969.9,20.74
159.576,997.716,37.82
154.696,982.832,37.576
140.056,965.752,27.084
124.44,977.22,25.132
114.436,976.488,20.984
119.316,988.688,31.476
133.956,995.032,36.6
132.248,997.228,38.796
125.66,997.716,37.576
113.948,981.124,33.672
107.116,976.244,40.016
107.604,962.58,31.72
109.8,975.756,23.912
106.384,1001.376,24.156
97.844,987.224,9.76
106.384,972.584,16.104
115.656,964.288,22.448
115.9,949.892,22.692
106.872,942.084,11.224
98.332,958.676,2.196
96.38,975.024,-1.952
98.576,977.464,2.684
101.504,1007.964,13.42
136.396,982.1,26.108
137.372,949.892,14.152
126.148,959.408,-4.392
142.008,962.58,-10.98
177.388,1005.768,-10.98
187.88,1014.552,10.736
157.136,1004.548,24.156
143.472,1004.06,34.892
193.98,952.576,43.92
216.428,866.688,-45.14
445.788,733.952,-396.012
614.148,590.968,-471.408
680.028,144.692,-497.76
710.284,-261.324,-345.504
1016.748,-701.988,-172.752
1105.076,-1320.04,455.304
876.692,-1179.74,652.7
1334.192,-1087.752,51.728
1737.768,-749.08,-235.704
1731.668,-774.944,-311.832
1634.8,-1130.94,96.38
1662.128,-1398.12,259.86
1985.916,-1502.796,228.628
2309.216,-1593.076,171.044
2400.96,-1642.364,67.832
2012.512,-1707.024,94.184
1478.152,-1655.54,167.628
992.592,-1450.824,182.268
745.908,-1250.256,127.856
636.352,-1205.116,79.3
577.792,-1013.82,-1.708
444.812,-838.384,-127.612
238.876,-645.868,-211.792
108.58,-523.38,-241.56
-60.024,-491.172,-245.464
-278.16,-480.924,-153.964
-410.408,-354.776,-128.1
-285.724,-202.276,-228.872
-29.768,-163.236,-366.488
28.792,-88.084,-485.804
229.36,42.7,-650.26
534.116,266.692,-928.176
757.376,458.964,-1090.192
798.612,496.296,-1082.384
796.172,443.836,-1026.752
800.32,325.74,-929.396
783.484,134.932,-743.956
691.74,-36.356,-550.708
540.704,-131.516,-354.776
508.984,-66.368,-262.544
475.312,1.464,-200.324
305.732,-39.284,-26.352
-6.832,-44.652,149.816
-248.88,40.992,328.912
-300.608,107.116,450.668
-201.3,143.716,570.472
-166.896,-50.02,821.06
-63.196,-340.38,1064.084
214.476,-518.744,1217.804
490.928,-511.424,1229.516
578.768,-463.356,1263.188
663.436,-562.176,1343.952
624.64,-737.368,1439.356
737.856,-930.128,1499.38
998.692,-1106.296,1486.692
1147.532,-1217.804,1412.272
1300.032,-1344.928,1285.636
1552.816,-1426.668,1127.768
1758.264,-1393.484,893.04
1786.08,-1302.716,660.508
1733.864,-1220.732,504.348
1685.064,-1223.904,339.648
1544.764,-1129.964,150.548
1354.2,-1033.096,32.696
1209.264,-969.9,-36.356
1122.4,-891.82,-95.404
1042.856,-780.556,-232.044
968.192,-664.168,-332.816
933.544,-564.372,-415.044
1016.992,-502.396,-492.88
1050.42,-371.368,-577.06
1019.92,-248.636,-620.98
1086.776,-109.312,-637.084
1072.624,-60.756,-625.616
1066.768,-56.852,-532.408
1183.644,14.884,-451.156
1164.856,-154.696,-185.684
920.856,-432.368,129.076
720.044,-485.316,201.788
701.988,-265.716,77.836
643.672,-44.896,-44.408
709.796,1000.888,12.932
782.752,1113.616,-44.408
575.352,794.22,45.14
409.188,1034.56,8.052
203.74,1285.636,240.34
-51.484,1022.848,239.12
-224.48,733.708,157.136
-240.34,785.924,89.548
-240.584,922.076,151.036
-234.24,1132.648,169.58
-256.688,1128.256,124.44
-302.804,1015.04,52.948
-345.748,946.72,5.124
-266.204,942.816,37.088
-203.252,931.592,79.3
-233.996,1006.256,63.928
-245.464,1010.16,39.284
-239.608,955.504,29.28
-210.328,895.968,49.288
-224.48,936.472,58.072
-244.244,979.416,36.6
-253.516,964.288,28.548
-255.956,961.116,22.448
-268.888,951.844,24.644
-275.964,935.496,31.72
-216.184,925.98,35.868
-166.896,982.1,54.168
-167.872,994.056,54.656
-212.036,977.708,49.044
-210.572,933.788,44.652
-221.796,905.484,37.82
-229.604,953.308,30.988
-230.092,968.68,23.424
-220.332,999.18,28.792
-210.328,971.608,43.676
-231.068,930.128,44.164
-247.904,980.392,51.484
-246.684,975.756,50.264
-226.676,937.448,50.508
-217.648,960.872,55.632
-221.064,977.22,49.532
-196.176,986.004,59.292
-176.9,961.604,83.936
-169.336,952.82,81.008
-190.32,946.964,78.08
-206.424,944.28,66.124
-196.664,958.432,69.54
-188.368,958.92,67.588
-202.52,959.652,70.516
-205.936,959.896,60.024
-196.664,957.7,73.444
-181.536,929.64,75.64
-177.388,923.296,75.884
-175.436,936.716,68.32
-197.152,927.444,55.144
-202.032,908.9,46.116
-193.492,894.016,49.044
-178.12,861.564,54.168
-159.332,845.46,58.804
-148.596,825.452,54.9
-136.64,815.448,46.604
-101.504,821.06,49.044
-95.16,823.5,50.752
-117.364,795.928,50.752
-124.196,753.228,43.432
-98.576,727.852,43.92
-75.396,726.876,41.724
-61.244,715.408,22.204
-97.844,748.592,-1.708
-133.224,811.3,-32.94
-122.488,886.452,-46.604
-87.596,923.784,-54.412
-87.596,948.672,-83.204
-123.464,974.536,-150.548
-180.316,1074.088,-196.664
-226.432,1199.992,-200.812
-208.376,1178.52,-206.424
-171.288,1088.728,-207.888
-110.288,1036.756,-204.716
-74.664,1002.596,-200.324
-105.164,999.18,-171.288
-168.116,966.728,-142.252
-164.456,884.012,-130.296
-72.224,948.428,-101.992
-10.98,1135.82,-82.228
-29.28,1258.552,-62.464
-67.344,1218.78,-57.584
-91.744,1120.692,-52.704
-78.568,1098.0,-27.572
-72.468,1121.18,4.88
-98.82,1145.336,39.284
-128.832,1107.76,59.048
-140.788,1069.452,80.276
-152.988,1091.412,85.888
-138.104,1110.932,77.836
-125.66,1143.872,69.54
-125.904,1180.716,68.32
-82.472,1200.724,99.308
-6.1,1172.908,147.864
43.676,1062.62,176.656
-19.764,970.632,140.788
-111.02,1001.864,92.476
-152.256,1080.432,66.368
-169.824,1109.956,60.268
-162.26,1097.756,52.704
-132.004,1064.572,55.144
-68.076,985.272,57.34
-27.816,951.6,58.804
-23.912,959.896,51.24
-12.2,974.292,43.676
-16.592,999.424,35.136
-2.684,1012.6,38.552
-0.488,1011.136,27.328
8.052,1070.428,10.98
34.404,1168.76,6.588
45.384,1257.332,24.156
28.548,1261.48,15.616
-9.516,1197.064,-0.732
-9.516,1138.26,-14.64
-0.976,1188.524,-2.44
12.444,1243.668,-1.708
39.528,1241.96,0.976
40.992,1232.444,-4.392
14.884,1214.876,-7.076
-20.008,1147.044,-22.936
-30.012,1061.4,-28.548
-4.88,1049.932,-25.132
-9.516,1111.176,-25.864
-11.224,1115.324,-27.816
-2.44,1115.812,-19.032
-12.444,1090.436,-15.616
35.624,1054.568,10.736
65.392,1038.708,37.82
47.092,1011.868,37.82
20.984,1003.084,22.692
4.392,961.604,17.812
15.128,924.516,15.616
26.108,918.904,-3.416
35.136,959.896,-19.764
37.332,1012.356,-38.796
1.22,1045.296,-59.78
-48.556,1027.972,-71.248
-75.884,978.928,-73.444
-81.496,959.652,-69.784
-56.608,939.644,-50.264
-25.376,929.884,-25.864
-15.616,929.152,-6.344
-28.548,913.536,-11.468
-32.94,896.944,-13.908
-20.984,864.248,-8.784
-12.444,852.536,-11.956
-13.42,859.368,-14.884
-27.084,876.448,-13.908
-48.068,874.252,-19.764
-64.66,853.024,-14.396
-76.128,863.76,-2.196
-71.492,872.056,-5.124
-62.22,873.276,-5.612
-54.9,903.776,-11.956
-33.916,896.7,-16.836
-2.928,889.624,-0.976
19.276,884.256,6.1
9.028,890.356,-0.244
-20.252,905.24,-16.104
-41.236,907.192,-27.816
-55.144,892.552,-20.984
-60.756,868.884,-1.952
-66.612,858.88,11.224
-79.788,860.344,20.74
-85.644,917.928,33.428
-72.224,964.044,47.58
-49.532,972.34,71.492
-17.812,932.812,96.624
9.028,918.66,121.268
30.256,924.272,144.692
