acc_x[mg],acc_y[mg],acc_z[mg]
-26.84,989.908,54.412
-27.816,996.252,50.752
-25.132,995.032,52.704
-26.596,982.588,58.804
-26.108,982.1,59.292
-19.032,994.788,58.072
-14.152,1000.156,58.072
-11.956,998.692,62.952
-13.42,991.372,64.416
-22.448,990.396,64.416
-21.96,986.248,64.416
-21.96,975.024,70.272
-19.764,981.856,69.052
-21.228,979.416,70.272
-17.324,981.856,71.492
-21.228,978.44,71.248
-13.664,988.444,71.736
-16.592,986.004,67.344
-16.836,988.932,66.124
-20.984,988.444,64.416
-26.108,984.54,68.32
-25.62,989.664,63.928
-26.352,998.448,58.56
-30.5,998.448,58.316
-28.304,1007.964,55.876
-28.548,1012.844,55.632
-30.988,1012.6,56.364
-36.356,1002.84,54.9
-38.064,986.736,60.024
-31.476,976.0,67.344
-30.988,975.512,68.808
-23.912,984.54,72.468
-22.448,984.784,73.688
-24.644,987.224,70.272
-20.008,985.028,69.784
-10.492,984.54,73.2
-9.272,981.368,76.372
-18.3,970.388,75.152
-32.94,953.796,69.784
-37.088,955.992,62.708
-28.304,969.412,59.536
-21.716,979.172,61.732
-19.276,976.976,69.784
-21.716,980.636,73.2
-23.912,980.88,73.2
-21.716,979.416,75.152
-21.96,985.028,74.176
-20.008,987.712,74.176
-20.496,992.104,69.296
-30.988,979.66,66.368
-34.16,972.096,70.272
-30.988,988.688,66.612
-26.352,1005.524,58.072
-22.692,1019.432,52.46
-12.444,1028.704,55.876
-10.004,1033.584,57.584
-18.056,1027.728,60.756
-23.18,1017.724,61.244
-27.084,1002.352,67.1
-25.376,990.152,71.004
-14.884,988.444,71.98
-16.348,982.832,69.052
-13.908,977.22,70.272
-14.396,971.364,69.296
-14.152,974.292,67.832
-14.396,976.976,64.66
-13.908,974.292,66.124
-15.86,976.0,63.684
-18.056,982.588,61.732
-25.132,982.588,61.0
-23.424,1000.888,56.12
-25.864,1003.816,55.388
-30.012,988.932,61.732
-27.328,993.568,62.708
-19.032,993.324,68.808
-3.172,998.692,71.492
9.516,1009.916,68.32
40.26,1045.296,63.196
-12.688,1000.4,70.76
-4.88,993.08,103.7
-13.176,968.192,122.732
-28.548,931.348,139.08
-15.86,914.756,159.82
-22.448,930.86,144.692
-30.012,950.136,121.512
-29.768,992.836,91.988
-48.8,1001.132,73.444
-64.66,1011.624,58.316
-71.248,1012.112,50.752
-75.396,994.056,54.656
-68.32,979.416,60.512
-64.416,1001.132,54.168
-65.148,984.052,69.784
-44.652,982.344,82.228
-30.5,975.268,97.6
-22.936,975.024,96.868
-9.272,1001.132,92.232
0.0,1015.528,75.152
-16.104,996.74,78.812
-17.324,1000.888,82.228
-12.932,1008.94,83.448
-22.448,1015.284,81.496
-66.368,989.176,87.108
-47.336,1085.8,73.688
2.928,1262.456,31.72
-115.412,1109.224,-16.104
-86.132,673.684,-78.568
35.38,325.496,-20.74
-184.952,96.38,90.036
-84.912,-15.86,338.916
43.676,-369.416,404.064
871.08,-613.66,73.2
1382.748,-951.356,-5.612
1337.608,-1015.528,8.54
1400.804,-1148.508,164.212
1435.208,-1133.624,264.252
1591.124,-902.556,168.604
1672.864,-569.008,-62.708
1547.448,-465.796,3.416
1556.476,-589.748,131.76
1650.904,-612.196,179.828
1670.668,-658.068,253.272
1901.004,-740.296,204.228
1934.676,-819.84,156.16
1824.632,-836.432,201.788
1709.708,-901.092,226.188
1519.388,-925.492,288.652
1261.48,-900.604,289.384
1108.492,-732.732,214.964
988.444,-620.004,144.936
854.976,-510.936,140.3
708.82,-411.628,90.036
623.664,-331.596,-13.908
576.572,-336.964,-28.06
413.58,-450.424,39.772
290.116,-460.672,60.024
165.432,-397.476,60.512
146.888,-228.14,-1.708
193.492,-78.324,-60.756
297.192,-102.724,-39.772
514.352,-61.732,-121.512
733.952,37.82,-271.572
1024.556,172.264,-453.84
1119.716,261.324,-511.424
1140.944,283.772,-524.356
1120.936,325.496,-551.196
1012.356,300.608,-537.044
866.444,242.292,-451.644
757.62,204.472,-375.272
612.44,105.164,-231.556
454.084,8.052,-65.636
344.772,-57.096,84.18
326.228,-63.928,175.436
353.8,-72.468,250.832
329.644,-63.684,326.716
291.824,-132.248,429.196
309.148,-190.32,530.456
291.58,-280.6,679.54
396.256,-333.304,758.108
481.656,-488.0,851.072
563.396,-603.9,914.024
647.332,-635.376,937.692
734.684,-596.092,944.524
856.44,-598.288,914.756
907.192,-609.756,877.424
889.136,-662.46,915.244
860.832,-789.584,996.008
916.22,-906.216,974.292
977.708,-903.288,860.1
1107.028,-834.236,741.516
1223.66,-806.42,633.18
1369.084,-868.396,565.592
1421.3,-979.416,514.108
1415.932,-1069.208,409.92
1389.58,-1092.876,274.5
1397.632,-1047.004,164.944
1381.04,-865.468,7.076
1422.52,-677.832,-159.088
1444.968,-551.928,-287.432
1363.716,-488.488,-342.332
1228.784,-422.12,-359.412
1119.228,-279.38,-431.636
1036.024,-155.428,-455.548
922.808,-111.02,-444.324
906.216,-94.184,-340.624
928.664,-108.092,-228.872
1038.952,-140.3,-130.784
1089.704,-189.588,1.464
811.056,-435.784,296.948
620.004,-599.752,516.792
728.096,-511.424,525.332
906.704,-219.844,435.784
902.068,134.688,198.372
820.084,402.356,17.812
749.812,995.52,-10.736
582.916,1059.936,-36.844
225.212,1151.436,98.088
58.316,1155.828,49.288
-134.932,840.092,89.792
-142.496,860.344,65.88
-178.852,953.064,73.932
-192.272,950.38,62.952
-162.26,948.672,83.448
-125.172,1049.444,43.676
-149.084,925.004,33.672
-160.064,846.68,48.312
-146.156,951.844,15.86
-127.124,983.808,8.784
-107.36,927.932,35.136
-96.624,923.296,37.82
-103.7,1029.68,10.98
-105.164,984.784,26.108
-79.3,919.88,51.24
-40.992,905.972,78.08
-69.296,984.296,51.972
-77.592,1024.312,29.524
-136.152,970.144,22.692
-137.372,995.032,25.132
-104.676,1022.848,35.38
-111.752,984.296,35.38
-114.68,1029.924,14.64
-108.336,1032.608,10.736
-97.844,991.86,27.328
-98.088,983.32,35.868
-90.524,997.96,28.548
-92.476,1025.776,14.884
-106.872,975.268,16.592
-106.14,948.184,25.62
-97.112,945.256,30.5
-85.888,954.04,27.328
-70.272,984.052,18.056
-78.812,944.036,33.428
-47.58,934.276,59.78
-9.028,967.46,68.564
-43.676,957.456,61.244
-74.42,990.152,38.796
-100.04,952.82,33.916
-81.008,971.364,36.356
-57.096,965.508,45.14
-57.34,965.996,52.704
-62.708,965.752,47.824
-72.468,943.06,47.58
-70.028,901.092,62.464
-62.708,891.576,69.54
-38.308,938.912,59.536
-30.5,938.668,57.096
-30.256,899.14,66.124
-20.496,872.788,76.372
-33.916,813.008,83.204
-46.36,769.82,93.94
-24.644,779.336,94.184
-18.544,798.368,87.108
-22.692,813.984,82.228
-15.616,815.936,82.472
-0.976,829.844,82.716
5.124,826.428,97.112
-4.88,840.336,93.452
-16.348,887.916,80.032
-46.604,945.744,60.756
-91.012,997.228,32.696
-100.04,1045.784,18.056
-73.688,1061.888,27.572
-69.54,1033.34,42.7
-67.344,944.036,51.484
-55.876,882.792,58.56
-54.168,898.408,38.308
-55.632,904.508,14.64
-63.928,901.58,-6.588
-28.548,829.356,6.1
-16.348,811.788,27.816
-33.916,829.356,18.056
-62.952,949.16,-10.248
-120.292,1079.944,-53.436
-131.028,1189.5,-72.224
-115.412,1204.384,-71.492
-103.7,1193.892,-63.928
-93.696,1197.064,-55.144
-62.464,1202.676,-44.164
-47.824,1211.216,-42.212
-62.708,1203.652,-41.724
-82.472,1179.252,-50.996
-80.764,1187.548,-48.556
-87.596,1251.476,-46.116
-66.612,1307.352,-22.204
-50.264,1304.424,-1.952
-33.184,1270.752,10.736
-14.884,1239.032,28.304
-31.232,1168.76,18.544
-43.676,1137.284,13.664
-36.844,1087.996,17.568
-25.132,1048.712,23.668
-18.544,1001.376,19.52
20.008,992.836,30.988
21.228,977.464,34.892
20.74,938.424,38.308
22.692,917.684,39.772
17.568,930.616,33.916
5.856,937.448,26.352
5.856,930.128,30.256
30.012,962.336,40.992
25.376,969.412,47.58
11.956,951.6,38.064
13.176,958.188,34.404
10.248,945.256,47.58
17.812,973.316,52.216
22.448,971.852,54.168
27.572,963.068,48.068
0.244,1009.672,29.524
-17.812,1025.044,21.96
-6.344,1036.756,22.692
-11.224,1005.768,26.108
-27.816,1010.16,20.496
-25.132,996.496,23.18
-23.18,990.884,22.204
7.32,981.124,28.792
19.52,986.004,38.064
6.344,965.996,30.988
2.44,975.756,21.228
23.18,984.052,30.5
19.276,965.752,33.428
32.94,1016.748,36.356
99.064,1164.612,55.144
54.168,1171.444,40.504
-50.02,1052.128,38.796
68.076,859.368,-9.272
274.988,536.556,-105.652
462.38,107.604,-14.64
527.284,-329.156,139.08
631.228,-345.504,118.096
786.412,-430.416,172.264
1147.044,-510.448,41.724
1700.192,-279.38,-111.996
1367.376,-286.944,-193.248
1233.42,-402.844,-76.372
1089.704,-704.184,135.664
1202.432,-689.544,89.548
1360.544,-601.704,-16.348
1454.24,-600.972,-16.104
1553.548,-741.028,14.396
1681.404,-697.596,20.74
1834.392,-604.876,65.636
1862.94,-621.712,117.364
1900.028,-694.18,163.724
1919.792,-809.592,176.412
1857.084,-849.12,176.656
1650.172,-864.004,183.488
1403.0,-873.52,247.416
1118.008,-915.488,336.476
984.784,-942.084,369.904
869.128,-930.86,320.86
759.816,-827.16,281.088
701.256,-614.392,139.08
668.316,-422.608,15.86
508.008,-420.9,5.856
332.572,-416.264,-51.24
179.584,-346.724,-124.44
87.596,-256.932,-143.96
159.088,-223.26,-206.18
308.904,-166.896,-334.768
441.396,-90.28,-454.816
520.94,95.892,-560.956
477.02,274.988,-624.884
570.228,421.144,-675.636
693.936,395.28,-662.704
791.048,271.816,-599.02
740.784,153.476,-463.6
757.864,62.708,-352.824
794.952,14.884,-274.988
764.94,-76.616,-151.28
743.468,-138.592,-65.88
691.496,-110.532,-15.616
600.972,-59.78,53.924
480.436,-71.492,173.728
304.512,-127.856,312.564
145.424,-187.88,458.964
63.44,-251.564,598.044
89.06,-241.56,712.48
224.236,-278.892,791.78
361.608,-368.928,861.808
506.3,-496.54,913.292
691.496,-500.2,895.48
899.872,-376.248,854.0
932.568,-373.564,929.396
913.536,-550.708,1032.12
1015.284,-733.464,1108.98
978.928,-833.504,1193.892
917.44,-748.836,1180.96
917.684,-678.076,1137.528
960.872,-780.556,1145.092
1095.56,-902.8,1116.056
1202.432,-908.656,975.756
1259.284,-893.528,838.384
1273.436,-908.9,751.52
1245.864,-886.696,671.244
1298.812,-806.42,536.068
1362.74,-786.656,400.892
1313.208,-799.832,297.68
1328.58,-769.576,132.004
1415.932,-674.172,-75.64
1422.764,-544.364,-247.172
1329.312,-524.112,-328.424
1256.112,-439.444,-355.752
1230.492,-365.512,-286.944
902.8,-272.304,-238.144
605.608,-184.708,-199.592
550.952,-37.576,-333.548
569.496,186.66,-319.884
602.192,472.14,-264.984
619.272,525.332,-225.456
456.524,824.232,-250.588
210.816,1029.192,7.564
-96.624,997.96,63.196
-227.652,1013.332,45.872
-239.852,1036.024,103.7
-254.492,1141.92,110.776
-246.196,1247.328,112.972
-241.316,1251.72,117.364
-272.548,1136.308,113.46
-255.224,964.044,102.48
-180.56,878.4,123.708
-113.46,953.552,138.592
-99.552,976.732,142.74
-90.768,1017.236,144.936
-108.58,1075.552,147.62
-134.688,984.784,134.444
-154.208,928.42,125.904
-143.228,1002.84,117.364
-81.74,1026.996,131.028
-69.784,985.272,136.64
-130.784,953.552,107.604
-170.556,987.956,73.688
-116.144,1037.976,86.864
-62.708,1034.804,112.972
-56.364,988.2,133.224
-99.552,885.72,124.196
-125.66,916.708,99.796
-131.516,968.192,90.28
-100.284,966.484,84.424
-53.436,948.428,109.8
-30.744,961.604,132.98
-45.384,997.228,120.536
-60.756,990.64,124.196
-68.32,941.352,119.56
-40.504,956.48,131.272
-23.424,1015.772,144.936
-63.928,1014.552,132.98
-83.204,960.872,122.976
-79.544,966.484,121.756
-64.172,975.756,120.292
-49.776,1005.28,117.852
-30.012,1018.456,118.584
-15.86,1034.316,131.272
-30.012,988.444,139.324
-34.404,980.636,146.644
-32.94,968.192,146.156
-41.968,943.304,141.764
-65.636,920.856,127.856
-81.984,900.848,114.924
-86.864,891.82,101.26
-41.236,858.148,99.552
21.472,846.192,109.312
54.168,799.344,123.952
40.748,700.28,156.404
11.956,586.82,166.408
-25.376,479.948,161.284
-36.356,454.816,126.392
6.344,530.7,128.1
30.5,589.992,120.048
26.352,658.068,97.112
41.968,758.84,83.692
31.964,752.008,55.876
10.736,734.684,-3.66
-1.708,816.668,-47.092
-42.7,944.036,-82.96
-44.408,1077.748,-95.892
-10.492,1152.9,-85.644
37.332,1168.028,-96.868
46.604,1197.308,-97.844
99.308,1169.248,-111.508
160.064,1179.74,-100.04
199.104,1255.136,-52.704
251.564,1292.224,-20.252
330.376,1270.02,16.592
376.736,1307.84,65.392
367.708,1374.94,95.648
355.996,1386.408,141.276
350.872,1302.472,178.608
332.572,1284.172,203.984
302.56,1309.06,219.6
222.528,1256.6,208.376
116.876,1215.364,193.248
51.484,1222.928,155.916
22.204,1194.136,147.132
5.856,1128.012,109.068
-22.204,1123.132,71.492
-5.856,1072.868,58.316
-4.636,1020.652,37.576
33.672,976.732,21.228
95.892,968.192,37.82
107.36,935.984,41.724
129.076,909.632,53.436
121.268,910.364,63.196
139.08,879.864,76.616
149.572,852.78,83.936
151.036,853.512,87.596
135.176,902.556,74.664
113.704,919.392,60.268
118.096,929.396,61.976
111.02,965.508,66.612
112.728,955.992,78.812
97.6,937.936,76.128
80.276,977.22,64.416
87.352,1006.744,65.636
102.48,998.448,72.956
105.164,971.364,74.176
83.448,987.956,61.488
69.296,1031.632,62.708
98.088,1026.02,67.1
86.376,995.764,66.124
81.496,961.36,53.436
82.228,1012.356,52.704
66.124,1081.164,45.872
79.056,1069.452,49.776
87.84,988.932,59.78
94.916,906.948,61.244
99.796,924.516,68.076
97.356,990.64,65.148
104.92,997.716,69.052
101.504,966.24,60.512
97.356,972.34,54.9
84.18,955.26,48.8
72.956,926.956,35.868
73.2,939.4,31.72
86.864,975.756,20.008
81.008,984.784,6.588
62.22,940.62,-30.5
78.324,915.488,36.844
105.896,836.676,72.712
104.676,804.712,54.656
296.216,810.568,-58.804
579.988,830.82,-183.244
696.132,549.732,-255.468
855.952,172.264,-310.856
744.444,-193.492,-152.5
614.392,-523.868,148.352
697.84,-814.228,592.188
910.852,-925.736,622.444
1367.376,-538.02,64.172
1531.1,-285.48,-317.932
1414.224,-293.776,-261.812
1217.316,-432.612,-174.216
1250.256,-530.7,-56.852
1331.996,-570.96,22.204
1417.396,-576.572,-23.912
1501.82,-651.236,-21.716
1597.224,-695.644,6.1
1605.52,-708.82,7.076
1606.74,-685.884,56.608
1713.124,-690.764,50.02
1765.096,-773.236,25.132
1839.516,-777.872,45.628
1825.12,-826.916,43.676
1773.148,-757.132,40.992
1702.632,-787.876,0.976
1560.38,-833.26,54.656
1318.332,-847.168,146.156
1085.556,-755.668,172.996
833.016,-835.7,178.852
661.24,-624.152,151.036
607.56,-451.156,71.492
564.616,-347.212,37.332
484.096,-308.66,50.508
404.552,-417.728,59.292
287.676,-366.0,101.992
284.26,-315.492,95.892
268.4,-233.752,31.72
197.884,-202.52,-37.576
20.984,-228.872,-25.864
-78.08,-164.7,-30.5
-18.788,-54.656,-134.444
222.528,27.572,-291.824
535.824,158.6,-462.136
780.312,223.504,-540.46
986.492,315.492,-607.316
1179.496,407.724,-703.208
1225.368,359.9,-678.076
1128.744,235.46,-521.428
1006.256,142.008,-386.008
979.416,146.644,-346.968
849.12,84.424,-245.464
720.776,29.036,-104.92
610.244,20.984,2.928
500.444,42.456,102.236
452.62,41.724,203.008
347.944,-36.844,326.716
279.868,-169.824,453.352
340.136,-211.548,495.808
339.16,-214.72,566.08
230.092,-231.312,668.316
194.468,-253.028,731.512
366.976,-263.276,741.028
432.612,-316.468,834.236
371.856,-386.252,983.564
439.2,-504.348,1143.628
624.884,-683.932,1262.7
767.624,-871.324,1358.348
839.604,-860.588,1350.296
904.996,-794.22,1288.076
1118.496,-814.472,1228.54
1199.748,-845.704,1183.4
1150.704,-870.592,1089.46
1221.708,-822.28,911.34
1254.648,-913.292,812.52
1286.368,-945.256,661.972
1355.42,-903.532,404.064
1533.296,-778.848,102.236
1710.928,-604.876,-232.288
1776.564,-371.856,-490.44
1728.984,-311.1,-562.664
1578.436,-267.668,-610.976
1417.396,-145.912,-662.216
1132.16,-76.128,-631.228
998.448,-60.268,-596.092
965.752,-27.572,-568.032
921.1,-7.32,-481.168
994.056,-12.932,-371.368
926.712,-61.976,-144.204
704.428,-151.768,45.14
697.108,-209.84,147.376
820.816,-186.172,225.212
1089.704,226.92,217.892
836.188,-156.892,-66.124
644.16,761.768,119.56
480.192,927.444,-21.96
251.076,803.736,-263.52
75.396,1266.604,-5.124
40.748,1250.5,90.036
-37.576,1201.456,103.456
-208.376,1057.008,75.396
-376.004,920.612,47.824
-272.06,859.612,90.768
-193.004,926.712,141.032
-221.796,1054.568,131.516
-213.256,1058.472,127.856
-216.428,895.724,117.12
-273.28,874.984,64.66
-288.652,948.428,14.64
-218.38,989.908,25.864
-188.368,920.124,47.092
-221.308,906.216,26.84
-263.276,992.836,2.684
-222.772,955.016,20.252
-197.152,986.248,39.04
-203.496,938.912,40.016
-230.824,944.036,26.84
-217.404,1031.144,21.228
-198.372,1024.556,21.472
-185.928,987.712,28.792
-186.172,934.276,37.82
-160.796,966.24,46.36
-162.26,976.488,42.7
-217.648,961.848,17.812
-223.748,990.396,0.732
-175.436,982.344,21.472
-182.024,958.92,19.032
-179.34,991.128,22.448
-203.496,972.828,16.836
-225.944,972.584,12.932
-203.984,962.092,19.276
-209.352,965.996,12.444
-222.528,978.44,11.712
-206.18,973.072,19.032
-188.612,927.444,32.208
-178.12,921.1,38.796
-195.932,953.796,43.92
-170.068,961.848,38.796
-164.944,917.44,35.38
-170.556,973.804,27.328
-165.92,961.36,27.084
-164.212,928.176,30.744
-161.528,902.312,34.404
-162.992,894.016,33.672
-177.876,886.94,15.86
-158.844,896.944,3.66
-123.22,874.252,-1.464
-111.264,843.02,-9.028
-129.076,809.104,-13.908
-145.912,770.552,-16.592
-122.0,722.24,2.196
-55.876,681.004,38.308
14.152,673.196,77.104
27.328,691.252,88.328
18.544,748.592,74.908
-45.14,773.968,53.68
-93.208,763.232,30.988
-103.456,800.564,15.616
-83.936,901.336,6.832
-48.068,960.14,-12.444
-41.968,975.756,-27.084
-93.94,926.712,-31.964
-153.964,882.06,-46.848
-139.324,890.6,-38.064
-67.1,982.832,-22.204
15.86,1096.292,-14.64
27.816,1135.576,8.296
13.42,1022.36,29.524
23.424,1024.068,43.432
57.584,1021.14,62.952
45.384,1035.048,46.848
23.424,1039.44,16.836
-4.88,1118.252,-12.932
-28.548,1143.872,-25.62
-24.888,1166.076,-30.744
12.688,1143.384,-24.888
100.772,1123.132,14.152
130.784,1150.948,16.104
153.72,1175.592,11.956
158.6,1251.476,12.2
159.576,1304.424,1.22
169.824,1249.524,-7.564
199.348,1183.4,1.22
189.1,1205.36,14.152
125.66,1230.492,-8.052
78.812,1247.572,-27.328
77.348,1226.1,-34.892
62.952,1185.596,-46.848
36.6,1114.592,-57.34
44.408,1089.216,-50.996
53.436,1058.472,-59.536
59.048,993.08,-74.664
87.84,994.544,-80.764
107.116,1001.62,-71.492
113.216,999.18,-70.028
121.024,956.968,-59.78
107.848,922.32,-54.9
105.896,921.1,-66.368
118.34,934.032,-49.288
139.568,968.436,-34.404
143.96,955.748,-25.132
131.516,951.356,-27.572
133.224,978.928,-34.16
134.444,969.656,-27.084
143.716,982.832,-19.764
135.42,974.536,-15.616
126.148,961.848,-25.132
107.848,968.68,-32.696
105.896,970.388,-35.136
122.0,984.296,-30.988
119.56,985.028,-38.308
103.7,962.58,-50.996
111.752,951.112,-51.972
113.948,914.756,-64.172
112.484,903.532,-71.736
124.928,904.996,-70.76
154.696,915.732,-101.748
165.188,867.42,-107.116
211.06,869.86,-63.196
87.108,723.948,-25.376
61.976,523.38,-109.8
372.344,281.576,-92.476
825.696,186.172,-250.344
1054.568,-62.464,-338.184
1175.104,-325.74,-242.292
1305.644,-512.644,-15.372
1346.148,-563.884,223.016
1494.744,-527.772,-9.516
1410.808,-441.396,-225.944
1510.36,-597.068,-183.976
1546.96,-671.976,-181.536
1454.728,-670.268,-158.356
1272.704,-837.896,-42.7
1443.016,-894.992,41.968
1568.432,-925.248,-5.856
1726.056,-943.06,-78.08
1823.168,-921.832,-169.092
1880.264,-878.4,-248.88
1861.964,-908.412,-156.404
1808.04,-986.004,-129.808
1715.32,-1009.184,-108.092
1454.728,-961.604,-84.18
1218.048,-881.816,-20.496
1038.464,-890.844,97.112
921.344,-825.452,181.536
880.84,-751.764,168.604
813.252,-738.832,124.684
768.356,-596.58,66.124
730.78,-506.788,-34.404
561.932,-500.444,-46.848
342.088,-529.236,-23.668
163.968,-570.716,35.624
-9.516,-582.428,138.348
-46.36,-482.632,102.236
-25.864,-321.104,-5.124
38.552,-113.46,-157.38
130.296,59.292,-277.672
185.196,129.076,-376.248
321.348,244.244,-501.664
505.568,368.684,-611.464
709.552,414.312,-666.608
880.84,432.368,-709.308
907.192,388.448,-691.008
845.948,354.532,-614.88
791.78,355.996,-543.388
758.108,344.284,-493.856
720.532,259.372,-406.748
626.836,112.24,-275.964
557.296,37.82,-160.308
465.308,-12.2,-55.632
355.508,-56.852,57.34
256.932,-13.664,137.86
142.252,-42.212,287.676
186.66,-0.488,392.352
287.188,28.792,485.072
233.264,-95.892,737.612
247.66,-291.58,986.98
374.296,-470.188,1155.34
412.848,-613.66,1291.248
476.044,-673.196,1366.4
570.228,-625.128,1397.632
713.456,-620.248,1400.316
929.64,-712.236,1385.432
1190.72,-786.656,1319.796
1243.912,-894.26,1314.672
1260.748,-986.736,1295.396
1242.692,-984.784,1158.756
1224.636,-890.6,989.42
1207.556,-836.432,854.0
1228.54,-826.428,679.54
1373.964,-844.972,518.5
1527.928,-813.74,325.252
1567.212,-751.276,152.256
1565.016,-714.676,40.26
1585.512,-603.656,-84.18
1429.596,-513.132,-133.224
1220.0,-520.94,-111.02
1156.804,-492.88,-205.448
1160.952,-367.22,-367.708
1106.54,-261.812,-450.668
971.852,-156.648,-480.68
886.696,-45.628,-487.512
855.22,44.408,-469.944
977.952,39.772,-339.16
983.076,11.224,-151.28
800.076,-51.728,-63.44
761.036,-136.152,-125.416
789.828,353.068,-114.68
791.78,944.28,-129.808
811.3,979.66,-47.824
458.964,723.46,16.592
47.092,1020.652,-133.224
70.272,1269.776,-99.796
-88.816,1046.028,21.228
-352.336,864.004,80.276
-422.12,833.992,93.696
-398.94,956.236,84.668
-330.864,1090.436,137.616
-362.34,1078.236,96.38
-371.368,925.248,35.136
-377.712,804.468,36.844
-370.88,907.436,19.52
-278.16,949.404,42.212
-248.88,891.332,65.392
-289.14,906.704,26.84
-318.664,936.472,-4.392
-282.796,950.624,0.0
-238.876,983.564,16.348
-269.864,1043.1,6.1
-290.116,991.372,-21.716
-335.988,983.32,-42.212
-286.944,971.364,-14.884
-244.244,919.392,23.668
-274.744,859.612,28.548
-306.464,904.02,1.708
-284.992,966.972,-11.956
-268.888,968.924,-3.66
-246.928,940.62,1.464
-261.324,889.136,-0.976
-254.98,924.028,-9.76
-246.44,960.872,-19.276
-258.396,944.768,-20.496
-301.096,932.324,-40.504
-278.16,991.86,-35.136
-260.592,998.448,-20.74
-253.516,981.856,-20.252
-259.128,974.536,-14.64
-267.424,964.288,-31.232
-271.084,959.408,-29.036
-265.96,933.3,-25.376
-259.616,939.644,-22.692
-248.88,953.308,-29.768
-234.484,941.84,-24.888
-228.628,926.712,-16.348
-237.168,910.608,-7.808
-238.144,904.02,-10.248
-236.68,918.66,-24.4
-200.324,948.916,-30.988
-132.004,935.496,-3.66
-111.752,883.524,18.3
-108.824,850.34,17.812
-115.9,820.328,5.856
-143.228,791.78,-14.884
-168.848,772.992,-21.716
-178.12,727.608,-2.928
-160.796,673.196,14.884
-122.0,665.388,20.496
-95.404,721.508,13.664
-78.568,749.812,9.028
-76.128,743.956,21.716
-85.644,727.364,29.036
-80.764,734.196,15.86
-60.756,791.78,-6.1
-85.888,878.888,-28.548
-137.128,868.884,-57.584
-137.616,860.1,-78.812
-117.364,951.6,-99.552
-78.812,1036.756,-114.436
-128.1,1016.504,-129.32
-153.72,898.408,-131.272
-108.58,809.348,-101.992
-27.328,825.452,-67.344
43.92,994.056,-32.94
62.22,1226.832,-36.356
119.804,1328.824,-12.2
173.24,1268.068,31.476
190.076,1197.308,45.872
170.8,1161.44,44.164
116.632,1132.16,1.464
61.732,1112.64,-33.428
42.212,1172.908,-54.168
74.42,1196.088,-36.844
85.156,1225.368,-13.176
31.72,1218.78,-21.228
7.32,1304.912,1.22
15.86,1390.068,14.64
-1.708,1391.288,32.94
-12.932,1304.668,28.06
-26.84,1226.1,23.668
-38.796,1166.564,14.884
-22.204,1121.424,0.732
-25.62,1111.42,-15.128
-35.38,1075.552,-38.308
-10.248,1040.904,-40.504
43.92,1024.312,-23.18
67.344,982.344,-16.104
67.344,974.292,-14.152
55.632,974.292,-22.204
40.504,956.236,-36.356
50.752,956.236,-32.94
69.54,945.5,-15.616
79.3,965.752,-7.32
65.392,948.916,-5.856
44.164,945.744,-2.684
21.96,925.98,-22.204
46.848,937.448,-20.74
47.58,954.528,-3.172
33.184,991.616,-10.004
36.112,999.668,-10.004
35.38,974.78,-10.248
58.804,962.092,-5.612
54.656,981.124,1.22
27.328,966.484,-16.348
9.028,952.088,-36.356
24.888,973.804,-36.844
54.168,988.2,-41.236
81.496,972.096,-23.912
94.184,985.028,30.988
98.576,913.048,-1.708
94.184,816.424,-39.04
163.236,789.34,-63.44
315.736,665.144,-107.604
578.28,409.92,-264.496
729.072,327.692,-243.268
795.44,314.76,-279.136
937.936,187.392,-313.296
728.096,-72.468,-202.764
733.952,-431.88,-12.932
1032.12,-645.38,18.544
1510.116,-583.404,-272.548
1597.224,-514.108,-411.628
1533.296,-636.352,-373.076
1446.676,-705.404,-351.848
1585.756,-648.796,-348.92
1681.16,-617.564,-304.268
1655.296,-616.588,-228.384
1736.548,-628.056,-180.804
1928.82,-711.016,-233.996
2181.36,-622.688,-365.756
2296.04,-529.48,-489.464
2168.428,-594.384,-407.236
2029.348,-843.996,-242.292
1795.352,-1044.564,-97.112
1561.356,-1091.656,-21.716
1398.852,-1091.412,-62.464
1370.792,-965.752,-74.176
1153.144,-1009.916,-40.748
873.032,-973.804,-19.52
626.592,-714.432,-42.456
387.716,-475.068,-79.788
292.312,-413.336,-160.796
153.476,-380.396,-231.8
-91.256,-416.264,-226.676
-363.316,-426.512,-102.968
-412.604,-258.396,-50.508
-243.024,-94.672,-149.816
-5.612,54.168,-289.872
212.28,91.5,-431.88
445.3,162.016,-585.6
578.28,346.48,-683.2
626.104,513.376,-723.948
715.164,610.244,-752.984
728.096,569.496,-697.596
759.328,448.228,-596.336
732.244,326.96,-475.556
675.148,253.028,-381.616
628.056,188.124,-302.56
566.812,108.336,-198.128
511.424,31.232,-101.992
411.872,-16.836,1.22
313.54,-36.6,90.036
181.536,-52.948,191.296
118.584,-73.2,315.492
52.46,-138.592,464.82
94.916,-246.196,630.496
231.068,-309.392,735.416
435.296,-328.424,837.408
583.16,-420.168,929.884
706.136,-576.572,1041.148
833.748,-693.936,1160.708
824.964,-844.484,1279.78
875.228,-909.876,1283.684
970.388,-872.3,1243.912
953.552,-818.376,1226.1
1129.72,-803.492,1115.324
1294.176,-749.812,969.9
1355.908,-784.704,880.352
1459.608,-858.392,747.616
1428.864,-851.072,641.964
1285.392,-929.884,617.076
1308.084,-994.056,512.888
1323.944,-979.904,330.376
1439.6,-899.384,134.932
1472.052,-805.688,-16.104
1444.236,-740.784,-117.364
1429.596,-673.44,-226.188
1417.64,-604.144,-340.136
1368.108,-495.076,-438.468
1303.692,-420.412,-502.152
1199.992,-330.132,-542.168
1100.44,-261.08,-536.068
1060.912,-200.324,-558.272
1012.356,-92.964,-566.324
925.248,24.4,-557.052
834.236,37.576,-480.68
771.04,14.396,-359.9
843.264,-42.944,-191.052
1180.96,-29.28,-39.284
1041.636,44.408,-58.072
897.432,151.524,-135.908
725.412,209.108,-183.0
513.62,500.932,-80.52
352.58,657.824,31.964
255.956,1062.132,-74.176
146.156,1210.972,41.724
53.436,1357.616,11.956
-77.592,1407.148,106.628
-160.308,1028.704,95.892
-182.756,878.4,104.432
-159.576,1015.284,107.116
-158.112,1019.676,99.552
-139.812,901.824,96.38
-132.98,914.024,88.084
-175.436,1005.036,61.0
-191.052,1033.34,25.376
-134.2,959.408,48.068
-100.528,949.16,87.84
-131.76,952.576,81.984
-166.652,995.032,71.492
-204.472,984.54,42.456
-185.44,996.496,41.48
-134.2,974.292,65.148
-93.452,945.744,82.716
-103.944,917.928,80.764
-233.02,966.972,11.712
-305.732,919.148,-43.92
-235.704,913.78,-13.908
-149.328,1001.62,41.968
-134.444,964.044,52.704
-204.96,1009.184,13.176
-230.58,979.416,-5.124
-203.984,963.068,9.028
-179.828,976.488,34.16
-171.776,961.36,42.456
-193.736,1025.044,24.156
-188.612,990.884,11.712
-146.4,949.648,35.624
-134.444,957.456,50.02
-141.276,918.66,44.896
-166.896,906.216,21.228
-174.704,868.884,-1.22
-149.328,869.86,-7.32
-119.316,869.128,-21.716
-76.86,846.436,-39.772
-44.164,789.34,-44.652
-30.988,722.972,-30.744
-0.976,653.188,-6.588
25.62,537.044,33.184
10.492,528.26,26.84
6.1,607.316,28.548
-4.392,660.02,12.444
-44.408,665.144,9.516
-141.032,617.808,-4.88
-131.76,663.192,39.772
-90.28,740.296,46.116
-4.392,792.024,73.688
7.32,868.152,17.08
-74.908,1009.184,-94.916
-162.016,1015.772,-133.224
-208.376,970.144,-145.18
-170.312,990.396,-151.524
-145.912,1008.208,-180.316
-123.22,1057.252,-269.864
-42.456,1248.06,-295.972
23.668,1382.748,-255.956
43.188,1301.74,-251.076
107.36,1213.656,-215.696
172.264,1219.512,-175.436
245.22,1224.88,-137.128
286.212,1216.34,-132.004
286.456,1208.532,-127.368
265.472,1223.416,-73.2
258.396,1239.276,1.22
249.856,1281.244,42.7
216.672,1330.044,54.656
147.62,1389.336,31.476
112.24,1388.116,10.004
138.592,1348.344,9.028
185.44,1275.388,34.404
187.148,1210.728,31.476
167.384,1133.624,0.0
135.664,1057.74,-39.04
107.116,1052.128,-55.388
123.708,1014.064,-34.16
148.108,962.58,-4.88
124.196,950.38,-6.1
66.124,982.1,-42.7
71.004,970.876,-35.868
64.66,942.328,-31.232
46.604,913.536,-36.356
27.816,870.348,-46.604
53.68,837.408,-35.624
63.196,897.92,-42.212
44.408,980.636,-64.416
64.904,967.46,-66.124
131.272,968.924,-38.064
132.492,971.852,-40.748
82.472,1020.408,-72.956
75.152,985.272,-80.764
108.336,982.1,-71.736
120.78,971.12,-63.196
119.56,935.252,-55.144
114.924,935.496,-56.852
96.136,979.66,-70.272
93.696,947.452,-69.784
114.192,975.512,-64.66
113.216,1001.864,-75.396
80.276,971.608,-68.32
96.868,938.424,-62.464
183.244,928.42,-23.912
151.768,920.368,-3.172
251.32,890.6,-117.608
525.332,799.344,-120.536
616.588,541.436,-160.552
547.78,349.896,-285.236
425.536,159.82,-305.0
441.64,21.716,-253.76
659.044,-139.812,-173.484
1039.44,-556.076,-87.596
1394.948,-636.108,-81.74
1257.576,-340.624,-376.98
1031.876,-433.1,-305.976
1185.84,-657.336,-217.892
1396.9,-874.496,-213.744
1504.016,-1103.612,-175.68
1522.316,-1076.772,-91.988
1499.38,-1064.816,-123.464
1780.712,-957.212,-221.552
1819.996,-899.14,-287.92
1715.32,-933.544,-175.192
1779.004,-1036.268,-152.988
1934.676,-1141.188,-214.72
2007.144,-1232.2,-240.828
1941.264,-1290.272,-215.208
1795.596,-1212.924,-209.596
1609.424,-1161.928,-169.58
1264.896,-1110.932,-65.148
977.952,-975.268,-3.416
737.856,-800.32,2.684
570.716,-630.496,10.736
464.576,-497.516,17.08
404.308,-501.908,64.416
316.712,-514.108,63.44
365.024,-424.804,-39.04
306.952,-435.296,-67.588
137.86,-543.388,26.352
-36.356,-564.372,82.472
-160.308,-381.372,79.788
-230.336,-256.2,16.104
-186.904,-175.436,-106.384
45.872,33.672,-375.76
331.84,292.8,-668.56
420.656,495.808,-794.708
485.56,660.264,-883.036
564.128,782.02,-981.124
549.976,726.144,-891.088
442.128,586.088,-712.724
445.3,444.812,-576.572
404.552,275.476,-397.232
354.532,127.124,-194.468
379.908,22.936,-65.636
287.432,-57.34,87.352
189.344,-98.332,216.428
211.06,-83.692,300.852
245.952,-63.684,447.74
200.568,-195.688,684.908
219.6,-409.676,917.44
359.168,-631.96,1089.704
530.212,-712.48,1167.784
685.64,-740.54,1182.668
862.052,-765.916,1148.508
1045.784,-794.22,1102.148
1093.608,-796.172,1074.82
1125.572,-810.324,1032.608
1246.352,-812.276,906.704
1387.14,-829.6,785.924
1391.776,-898.652,738.588
1378.356,-955.016,654.164
1495.232,-892.064,505.568
1570.14,-804.468,359.168
1587.22,-795.196,292.8
1696.532,-836.676,214.964
1817.068,-910.364,94.184
1795.352,-895.236,-35.136
1699.46,-768.356,-147.132
1579.412,-644.404,-268.4
1507.92,-516.792,-412.848
1327.116,-446.52,-486.292
1139.968,-305.732,-496.296
902.068,-255.712,-462.624
764.452,-211.792,-443.592
658.068,-144.204,-415.532
553.392,-150.304,-284.016
604.144,-171.532,-134.688
844.972,-90.28,-52.948
747.616,-66.856,-96.868
744.688,95.404,-193.98
735.66,356.972,-230.336
589.748,647.332,-136.884
589.992,666.364,-67.1
416.752,891.088,-2.928
188.368,1124.352,-154.208
79.544,1355.664,6.832
-24.4,1206.336,94.184
-144.936,926.468,73.2
-191.296,845.948,60.268
-247.66,1077.748,59.78
-289.628,1232.2,74.42
-306.708,1087.264,9.272
-266.204,924.028,0.0
-244.732,947.452,11.468
-224.48,894.26,16.836
-237.656,882.548,14.64
-243.512,984.54,18.056
-217.892,1034.804,30.744
-191.54,935.496,44.896
-225.7,922.32,18.056
-258.884,975.512,-8.052
-225.7,976.488,0.244
-189.1,993.08,11.468
-193.98,973.072,18.544
-256.932,915.732,-10.248
-297.436,912.072,-46.36
-269.864,974.78,-42.212
-211.06,991.616,-19.032
-198.372,1007.72,-7.076
-231.068,963.556,-14.152
-249.856,935.984,-22.448
-242.292,961.604,-24.888
-217.648,976.244,-20.984
-202.52,972.34,-9.272
-218.624,942.328,-11.712
-218.136,945.988,-11.224
-225.7,958.92,-12.932
-208.132,983.564,-15.616
-194.224,983.076,-9.76
-201.788,934.032,-8.052
-212.036,900.36,-16.836
-219.6,903.044,-22.936
-213.5,923.052,-35.868
-201.544,945.012,-38.552
-187.148,919.148,-41.724
-175.192,870.592,-40.504
-164.7,804.224,-39.284
-155.184,774.944,-44.408
-149.816,769.576,-50.752
-142.496,751.764,-46.116
-136.152,730.292,-40.016
-122.244,700.524,-35.624
-100.772,693.204,-26.108
-64.416,694.912,-19.032
-46.848,690.276,-4.636
-52.948,697.84,5.124
-47.092,694.18,11.224
-54.168,702.964,8.296
-65.148,775.188,-13.42
-68.076,854.732,-26.352
-86.132,875.96,-19.52
-108.336,873.52,-19.52
-124.44,901.58,-28.06
-112.728,927.688,-32.94
-72.224,977.708,-35.624
-32.696,1111.176,-34.892
10.492,1175.348,-18.788
32.696,1098.976,-13.176
40.992,1036.024,-6.832
59.78,1083.848,5.612
89.304,1145.824,17.568
99.796,1140.944,12.932
96.624,1141.92,-4.392
62.708,1140.212,-45.14
48.556,1201.456,-85.888
79.788,1252.452,-66.612
116.388,1240.984,-53.924
94.916,1238.056,-76.128
69.784,1214.876,-90.524
69.784,1186.572,-98.82
54.656,1186.572,-110.288
31.964,1201.456,-111.508
16.592,1224.636,-101.504
-24.156,1238.544,-116.632
-32.94,1231.712,-127.124
-18.788,1210.972,-119.804
-4.636,1218.536,-114.192
20.008,1176.568,-100.284
12.932,1098.244,-120.536
9.76,1063.108,-133.956
15.128,1053.836,-146.156
20.252,1070.428,-153.72
48.8,1062.132,-140.544
75.152,1020.896,-123.22
70.76,974.292,-119.316
94.184,940.62,-112.972
122.244,984.052,-76.128
110.044,928.176,-82.472
83.692,904.02,-94.672
66.124,902.068,-103.944
62.464,902.556,-108.092
71.736,949.16,-113.216
68.076,988.932,-111.264
61.488,964.532,-114.192
60.756,908.656,-110.776
92.964,827.404,-101.26
144.936,821.304,-76.372
218.624,888.16,-74.176
233.752,957.212,-48.556
311.1,962.824,-39.772
399.428,981.368,24.4
367.708,967.704,-68.076
346.724,758.84,-240.34
533.384,473.604,-373.32
610.976,44.652,-484.828
665.388,-123.464,-333.06
951.112,-232.776,-119.316
1221.952,-612.196,-10.736
1123.62,-712.968,-24.888
1208.044,-495.564,-257.42
1309.548,-528.016,-313.784
1346.148,-686.372,-297.192
1378.844,-785.436,-250.588
1243.912,-828.38,-176.656
1278.072,-951.6,-120.292
1448.872,-879.62,-150.792
1663.592,-928.908,-170.068
1826.34,-1026.752,-220.088
1937.116,-1118.984,-249.612
2001.044,-1169.736,-237.412
1871.48,-1239.764,-130.54
1737.036,-1309.304,-75.64
1664.324,-1307.352,-68.564
1417.396,-1311.744,-21.96
1105.076,-1314.428,86.62
898.652,-1259.772,149.328
718.58,-1085.068,85.644
481.656,-932.568,113.948
388.448,-734.684,80.52
420.412,-554.124,2.684
328.912,-516.548,0.244
176.168,-474.58,22.936
98.088,-411.628,-11.224
-8.784,-360.388,-23.18
10.736,-270.108,-80.032
23.668,-242.292,-155.428
161.284,-174.704,-277.184
376.248,-28.304,-468.968
518.988,153.232,-606.584
603.656,336.232,-733.952
712.968,423.096,-819.352
727.852,402.844,-789.096
728.34,347.456,-694.424
697.596,262.056,-589.748
599.996,200.568,-462.38
500.444,223.26,-351.604
482.632,233.508,-298.412
472.628,223.504,-251.076
453.84,171.532,-168.36
410.896,57.34,-34.404
368.928,29.768,66.612
252.784,18.3,189.832
168.36,74.176,315.98
133.712,69.54,398.696
167.14,-26.352,492.148
174.216,-103.7,633.18
275.232,-126.636,721.996
433.1,-194.956,758.596
566.812,-325.496,842.532
671.732,-376.248,929.152
727.608,-470.188,1001.132
833.748,-519.964,1008.452
915.488,-521.672,1006.012
950.38,-595.604,1063.596
955.748,-625.128,1090.436
1037.0,-638.06,1076.04
1169.248,-747.86,1034.804
1268.068,-881.328,1030.9
1308.816,-975.756,1010.648
1240.252,-967.216,965.264
1319.064,-1029.192,846.436
1492.304,-1042.612,668.56
1618.94,-1031.876,471.408
1627.724,-972.828,324.764
1540.128,-867.908,225.212
1352.004,-842.044,145.912
1222.684,-810.08,85.644
1222.684,-793.732,-0.488
1105.808,-796.172,-27.328
1024.556,-706.624,-111.752
1071.404,-544.608,-280.6
1067.256,-403.332,-400.404
1007.964,-336.476,-441.64
1019.432,-270.108,-493.856
1006.5,-104.92,-550.464
968.924,5.124,-530.944
1013.332,75.884,-441.396
1023.58,101.26,-290.604
765.184,-61.244,-96.38
624.396,-105.408,-64.172
636.84,122.244,-117.364
648.796,563.152,-78.568
778.604,1147.532,-119.804
691.496,966.728,4.148
179.34,400.404,-226.188
-389.668,872.544,-203.252
-522.648,1435.208,-171.532
-516.304,1312.232,-75.884
-420.168,987.712,-20.008
-478.972,824.476,-0.732
-451.644,1008.452,31.964
-356.24,1053.836,109.556
-279.136,812.52,137.616
-312.564,719.8,115.168
-307.196,821.304,121.756
-356.24,913.292,77.104
-361.852,826.428,35.624
-322.08,838.628,51.484
-325.74,931.592,62.952
-346.724,1033.584,44.164
-372.344,1031.144,20.74
-384.544,936.96,4.636
-358.924,900.848,21.96
-318.908,948.916,52.948
-309.636,952.82,51.728
-315.248,919.88,35.38
-317.688,909.144,24.888
-297.436,890.844,25.376
-274.5,891.332,38.796
-251.32,889.136,43.92
-261.08,939.4,33.672
-306.708,940.864,10.248
-320.616,890.844,2.928
-264.496,937.936,36.844
-240.096,986.248,52.216
-278.892,945.5,31.232
-327.448,936.472,10.248
-368.928,918.416,-15.616
-378.688,933.3,-26.108
-337.208,976.0,-13.176
-299.144,966.484,-5.124
-295.24,963.556,2.684
-306.22,968.192,4.148
-290.604,960.872,15.86
-259.372,925.736,31.476
-249.124,967.216,41.236
-268.4,953.796,33.428
-297.68,934.52,11.224
-303.78,943.304,5.856
-298.656,956.236,8.784
-280.844,969.656,22.204
-295.24,966.728,16.836
-295.484,982.832,9.272
-286.7,968.924,19.032
-290.848,925.248,16.104
-264.496,936.472,32.696
-255.224,957.7,33.428
-268.156,951.356,23.424
-265.716,921.832,24.644
-277.428,908.9,27.084
-262.544,910.852,29.768
-266.936,911.584,24.644
-266.204,937.204,20.008
-247.172,950.38,23.912
-254.98,916.464,22.204
-260.836,901.58,18.544
-239.364,904.508,20.008
-213.988,888.404,17.08
-189.832,848.144,11.956
-172.752,786.656,-2.44
-149.816,720.288,-8.784
-114.192,626.836,-5.124
-132.004,546.316,1.22
-162.504,543.388,-9.76
-167.872,556.564,-17.324
-179.584,554.368,-31.476
-180.316,667.584,-41.48
-154.208,742.004,-35.136
-106.14,749.324,-13.908
-115.656,761.28,-5.368
-136.64,793.976,-6.832
-147.864,850.096,2.44
-128.344,857.66,0.488
-132.98,884.256,-6.1
-152.988,960.384,-18.056
-149.816,1007.72,-28.548
-144.692,1058.228,-30.5
-121.512,1096.536,-30.5
-70.272,1095.56,-1.464
-124.44,1074.576,3.904
-246.684,1094.828,-38.796
-289.872,1131.428,-92.72
-199.348,1221.708,-78.08
-109.8,1293.688,-29.768
-66.612,1257.82,-30.256
-66.124,1231.224,-50.02
-43.188,1227.076,-73.444
-18.544,1219.756,-85.644
-29.28,1156.316,-104.432
-68.32,1076.284,-149.328
-79.056,1034.316,-166.164
-90.524,1105.808,-156.648
-110.776,1173.884,-154.208
-151.768,1199.992,-178.12
-174.948,1184.62,-178.364
-172.264,1169.004,-155.916
-177.388,1180.96,-144.448
-211.548,1214.876,-157.38
-258.64,1227.32,-191.784
-277.672,1211.216,-223.26
-264.496,1163.148,-235.216
-211.06,1129.964,-218.38
-139.324,1094.34,-180.804
-80.52,1033.096,-155.672
-63.928,991.128,-162.992
-16.592,932.08,-138.836
13.42,942.328,-118.584
4.88,928.908,-112.728
17.812,930.86,-110.288
70.516,930.616,-99.064
145.912,949.648,-49.776
162.26,947.452,9.028
81.008,839.848,-26.84
104.92,756.644,-127.368
300.852,662.46,-254.492
460.428,586.576,-378.2
695.4,533.628,-397.476
753.228,422.608,-406.504
829.844,203.496,-367.464
970.388,-53.924,-273.768
1090.68,-401.868,-100.528
973.316,-609.756,-3.172
792.756,-605.12,-75.884
899.14,-695.4,-109.312
1193.648,-698.328,-138.836
1255.38,-713.456,-168.36
1198.04,-847.9,-136.152
999.424,-1002.352,-22.936
996.252,-917.684,44.164
1016.748,-1017.968,26.108
1200.724,-1051.884,45.14
1355.176,-1092.388,33.428
1443.016,-1255.868,31.72
1496.696,-1230.98,89.548
1660.42,-1297.836,62.464
1763.388,-1389.336,46.116
1717.028,-1459.364,50.752
1643.34,-1407.88,30.256
1451.8,-1298.08,25.376
1256.356,-1227.076,67.1
1039.684,-1168.516,109.8
881.816,-1086.776,83.204
838.872,-950.868,3.172
652.212,-846.924,-33.916
461.404,-736.392,-26.108
327.204,-599.508,-22.936
198.128,-459.696,-31.476
43.188,-355.752,11.468
-55.632,-353.312,17.812
-10.736,-361.364,8.54
79.056,-322.08,-94.184
133.224,-241.804,-180.316
222.04,-140.544,-287.676
254.492,-32.208,-397.476
328.18,176.9,-518.012
553.636,396.012,-728.828
754.692,575.596,-891.332
770.796,611.708,-905.972
719.068,526.796,-803.98
760.792,385.032,-704.672
693.936,284.748,-563.64
630.496,219.844,-422.852
534.116,123.464,-290.604
391.62,71.248,-158.6
331.596,121.756,-110.532
252.54,130.052,-48.8
145.424,125.904,22.204
77.348,99.064,111.508
251.076,48.312,188.612
321.348,-36.6,281.088
44.408,-148.108,578.768
-51.728,-239.12,789.096
202.764,-341.356,829.844
501.176,-476.532,866.932
644.16,-584.136,951.112
671.976,-597.068,1052.616
772.504,-614.148,1048.712
1037.244,-600.728,967.46
1144.36,-650.504,991.86
1040.416,-763.964,1119.472
1037.732,-902.068,1209.02
1143.628,-1011.136,1163.636
1324.188,-948.672,1018.944
1393.484,-912.56,973.316
1359.324,-998.692,950.38
1382.992,-1010.404,880.84
1304.668,-1017.48,783.24
1386.652,-1145.092,645.868
1557.208,-1134.844,401.38
1563.308,-963.556,162.26
1516.216,-830.82,-31.964
1524.024,-767.624,-192.76
1439.356,-730.292,-275.232
1383.724,-591.944,-425.78
1266.604,-437.248,-574.132
1202.676,-298.656,-654.652
1173.152,-159.332,-656.116
1107.028,-123.464,-671.488
838.14,-56.364,-690.032
732.976,142.252,-608.78
683.688,259.86,-465.552
563.884,193.492,-294.508
535.092,313.784,-278.648
419.68,386.74,-354.044
470.92,191.54,-283.04
345.992,723.216,-87.108
47.336,1188.28,-284.992
-445.544,1334.924,-124.928
-610.488,1066.524,-119.804
-543.876,740.296,-138.348
-566.812,905.972,-68.564
-597.556,1255.136,-46.848
-529.724,1266.604,-24.888
-447.984,1032.608,0.244
-413.824,863.516,-0.244
-328.668,868.64,24.4
-290.116,878.4,50.752
-248.148,844.484,70.272
-192.516,840.58,95.648
-179.096,878.888,94.916
-192.028,993.812,87.108
-220.332,1009.916,66.612
-219.112,908.168,49.776
-222.04,848.144,49.532
-253.76,819.108,29.768
-263.52,930.616,13.42
-287.432,985.516,7.076
-284.016,909.876,13.664
-274.012,866.2,27.572
-264.74,900.604,45.628
-294.752,992.348,35.868
-296.704,1040.416,23.424
-284.748,1040.66,25.62
-272.792,981.368,31.232
-290.36,998.692,28.792
-301.34,1018.7,22.692
-315.98,1005.28,6.832
-273.768,972.584,11.712
-293.532,952.332,9.516
-312.076,968.436,-6.588
-299.388,971.852,2.44
-272.548,936.472,18.056
-262.788,929.884,27.084
-257.908,915.244,23.18
-247.416,938.18,40.26
-247.904,949.16,44.164
-236.68,938.668,35.38
-250.1,913.536,36.6
-295.972,893.528,10.248
-306.952,922.076,9.272
-298.168,953.796,4.88
-278.892,969.9,13.176
-263.52,963.312,22.204
-274.744,963.068,20.496
-288.652,977.708,16.836
-275.964,958.188,26.108
-265.96,936.472,32.452
-269.132,920.856,35.38
-259.616,938.912,34.16
-260.348,963.068,24.888
-256.688,964.532,24.644
-259.372,935.984,23.18
-261.324,907.192,29.524
-257.908,921.1,35.136
-248.88,921.832,38.064
-249.368,898.408,38.064
-253.76,886.452,34.648
-247.172,892.552,30.988
-228.628,905.972,35.868
-217.16,870.104,37.332
-199.348,810.324,47.58
-157.624,735.66,58.56
-91.988,665.876,73.444
-73.688,655.628,60.756
-92.964,657.336,27.816
-106.628,642.452,3.416
-141.764,615.368,-20.496
-155.184,609.268,-42.456
-171.532,676.612,-57.096
-163.968,738.344,-69.296
-155.428,730.292,-84.424
-137.86,687.348,-99.308
-115.412,738.344,-97.6
-136.64,824.232,-94.184
-122.0,863.516,-104.432
-66.612,897.188,-85.888
-44.408,992.104,-61.488
-16.592,1066.768,-60.268
8.784,1115.08,-54.168
-9.272,1184.62,-56.608
-66.612,1216.34,-52.704
-122.244,1226.344,-61.732
-137.128,1220.488,-76.86
-107.604,1166.076,-77.348
-90.28,1118.008,-93.94
-111.02,1156.804,-92.476
-122.732,1269.288,-75.152
-107.848,1275.144,-65.392
-96.868,1165.1,-85.4
-77.104,1114.348,-77.592
-69.784,1127.524,-57.096
-108.58,1227.564,-49.532
-130.052,1283.684,-55.632
-144.204,1280.756,-64.904
-147.376,1241.228,-74.176
-159.332,1208.288,-95.648
-162.992,1178.52,-95.648
-152.012,1124.352,-85.4
-161.284,1106.052,-87.84
-185.44,1099.708,-102.48
-186.66,1093.852,-109.556
-158.6,1094.096,-86.132
-139.812,1024.312,-97.844
-146.4,968.68,-121.024
-122.732,1033.828,-93.94
-102.724,1011.38,-63.196
-88.084,965.264,-68.808
-82.472,939.644,-72.224
-83.204,934.032,-68.076
-108.58,981.124,-68.564
-131.76,980.636,-84.18
-117.852,986.248,-70.028
-113.704,975.024,-68.564
-112.972,950.136,-86.62
-105.164,938.668,-92.232
-65.392,957.456,-76.372
4.88,1016.504,-36.6
88.572,1040.172,-16.592
134.688,1031.388,-49.288
120.292,1021.14,-87.108
175.68,943.304,-106.872
203.496,835.212,-120.048
273.28,680.516,-89.06
234.24,568.032,-171.288
321.348,366.0,-268.888
566.324,90.524,-400.404
701.012,-56.364,-340.38
723.704,-264.252,-270.84
900.604,-420.168,-266.448
1149.484,-652.944,-282.552
1072.868,-865.712,-193.736
960.872,-742.736,-205.692
1120.936,-693.936,-323.788
1232.2,-780.312,-369.416
1215.364,-908.412,-309.636
1133.624,-1142.652,-221.064
938.18,-1285.392,-69.54
1009.916,-1090.924,-62.952
1152.9,-1013.332,-209.596
1310.036,-1020.896,-265.716
1521.584,-1068.964,-286.944
1634.068,-1154.608,-254.004
1672.62,-1172.908,-227.896
1654.808,-1205.36,-205.936
1657.98,-1213.656,-194.468
1588.44,-1236.836,-177.632
1538.664,-1259.528,-144.204
1467.172,-1284.66,-132.736
1328.824,-1247.816,-127.612
1245.864,-1197.308,-108.092
1105.808,-1162.172,-93.696
889.136,-1152.9,-54.656
697.596,-1022.848,-50.752
499.956,-776.164,-91.744
320.372,-536.556,-146.888
80.032,-430.66,-95.892
-148.596,-413.092,29.28
-178.852,-470.432,98.576
-148.596,-428.22,61.976
-9.028,-256.688,-91.012
102.236,-179.828,-225.212
246.196,-33.916,-406.992
334.524,89.304,-536.312
424.072,140.056,-604.632
496.54,230.58,-658.068
579.988,381.128,-736.392
661.24,536.8,-819.596
647.576,561.2,-770.552
571.936,509.96,-647.088
574.132,406.504,-521.184
552.66,273.28,-386.984
464.82,163.724,-246.44
370.88,95.648,-101.992
274.988,121.268,3.416
264.008,231.312,58.316
406.26,326.716,36.844
342.332,211.06,159.82
112.728,18.544,405.284
-107.604,-111.752,673.196
-64.172,-190.808,762.744
193.004,-213.012,690.032
426.268,-252.54,632.448
462.38,-284.748,691.252
525.332,-290.604,741.272
757.864,-353.068,773.236
1027.24,-519.232,804.224
1164.368,-810.812,947.208
1162.904,-1112.396,1200.48
1291.492,-1193.648,1263.676
1410.076,-1149.728,1165.1
1392.752,-1133.38,1080.432
1391.044,-1094.584,953.552
1404.708,-1032.12,780.556
1308.572,-949.892,647.82
1344.928,-937.204,492.636
1442.04,-891.82,256.444
1509.872,-861.564,91.988
1491.328,-793.732,-31.476
1514.264,-714.92,-188.856
1477.42,-683.2,-302.56
1431.304,-639.524,-354.776
1386.164,-585.844,-433.588
1364.936,-539.728,-488.0
1328.58,-426.512,-587.796
1269.532,-297.68,-674.904
1212.192,-175.192,-706.136
1144.116,-62.952,-641.964
1204.628,29.524,-547.048
869.372,-51.484,-379.176
633.18,43.432,-345.26
461.648,413.092,-418.948
389.424,1002.108,-472.628
426.268,985.76,-492.392
508.252,604.632,-395.28
458.476,973.56,-80.52
340.38,1406.172,47.58
-107.116,1199.504,-89.792
-393.084,981.612,-133.712
-306.952,970.388,-80.764
-160.308,1002.596,-6.344
-124.684,955.504,9.272
-157.136,944.768,-20.74
-160.064,1073.6,-69.54
-150.792,1076.04,-86.376
-98.088,1010.404,-27.572
-88.328,923.54,2.928
-114.68,1026.508,-15.86
-138.592,978.684,-10.736
-151.524,911.096,32.696
-71.492,986.004,57.34
-19.276,1039.44,61.0
-18.056,1020.652,68.564
-50.996,961.604,89.304
-121.512,846.436,95.404
-121.024,863.76,71.736
-54.9,965.508,58.56
-39.528,1010.892,47.58
-54.656,959.652,50.752
-45.628,997.472,56.12
-49.288,969.412,59.536
-63.684,957.7,63.44
-47.824,1002.352,69.784
-65.392,990.884,58.56
-92.476,984.54,48.8
-103.944,1013.332,23.18
-107.848,1011.136,25.132
-90.28,992.592,39.04
-89.304,972.584,43.92
-124.684,983.808,33.672
-118.828,963.312,29.524
-110.288,976.732,34.892
-93.452,999.424,34.648
-109.068,1039.44,27.084
-91.256,1029.192,29.768
-87.108,990.152,50.752
-103.212,968.192,53.924
-76.616,991.128,49.288
-105.164,992.836,34.404
-96.868,998.692,39.772
-101.748,977.464,51.484
-95.648,977.952,59.78
-75.64,1008.452,54.9
-66.612,1000.888,52.948
-96.136,985.76,46.848
-80.764,990.152,41.968
-68.32,997.716,47.092
-74.664,990.152,46.848
-92.72,987.468,40.26
-90.036,988.444,42.944
-115.168,966.484,44.896
-97.6,959.164,49.532
-71.248,973.316,50.02
-63.196,977.464,47.092
-71.248,949.404,44.164
-73.932,931.104,40.992
-72.956,879.132,40.748
-58.56,828.624,48.312
-51.484,800.808,35.136
-36.356,786.656,25.62
-37.82,741.272,21.96
-25.376,650.992,28.304
-18.3,579.988,43.432
-16.592,574.62,44.164
-16.348,612.196,36.6
23.18,678.076,27.084
37.82,720.288,15.86
19.276,698.328,2.196
12.932,654.652,8.052
34.16,598.288,38.308
73.688,580.72,42.212
100.04,707.112,35.38
115.412,923.052,-17.812
92.72,1048.468,-66.856
29.036,947.94,-74.42
54.168,916.952,-46.604
101.016,1011.136,-43.676
77.104,1190.72,-53.436
-0.976,1296.616,-97.112
-44.408,1296.372,-118.096
-30.012,1369.572,-100.04
-6.344,1384.7,-57.34
-32.452,1346.392,-46.604
-83.448,1321.504,-64.904
-101.748,1340.292,-56.364
-119.072,1364.936,-34.892
-157.136,1365.668,-36.112
-186.904,1291.736,-22.692
-180.072,1273.924,-12.2
-162.26,1250.256,8.54
-152.988,1216.096,14.884
-178.364,1240.984,-14.884
-207.4,1237.324,-45.384
-208.864,1211.948,-65.636
-185.44,1193.16,-83.692
-150.304,1137.284,-74.908
-111.02,1089.216,-75.396
-48.8,1043.1,-62.708
-14.152,999.668,-65.148
-3.416,964.288,-80.276
6.344,948.672,-79.788
15.616,916.464,-63.684
5.124,898.164,-59.292
-20.252,914.756,-73.2
-44.896,934.276,-85.4
-16.592,940.864,-62.708
-8.784,920.612,-35.868
-31.476,907.68,-40.504
-47.092,929.64,-47.58
-51.972,962.336,-49.776
-64.904,985.76,-55.388
-82.96,963.068,-58.804
-64.904,961.116,-55.388
-58.072,964.044,-60.512
-55.144,939.156,-65.392
-46.116,962.336,-65.88
-47.824,963.068,-69.052
-40.748,977.464,-58.072
-35.38,946.232,-60.756
-7.076,918.66,-62.22
93.94,936.716,-28.548
101.26,872.544,5.124
83.692,730.536,-75.396
197.396,786.9,-239.364
346.48,691.252,-278.16
479.704,433.1,-216.672
569.984,251.808,-238.876
596.336,76.128,-297.68
644.404,-81.252,-378.2
816.424,-358.924,-345.26
1072.136,-819.596,-225.944
995.032,-1313.94,38.308
1057.252,-770.308,-47.336
948.916,-758.84,-172.996
1006.5,-804.224,-145.424
1110.2,-885.476,-146.888
1062.132,-1262.944,-31.72
1013.576,-1389.092,184.22
1085.312,-1424.96,291.824
940.864,-1630.652,228.14
1117.764,-1579.168,204.228
1093.852,-1529.88,137.372
1041.636,-1496.452,126.392
1050.908,-1428.132,110.776
1146.8,-1377.38,89.304
1249.036,-1323.944,-0.976
1430.816,-1254.16,-127.368
1337.608,-1287.1,-102.48
1219.268,-1302.96,-12.932
1181.692,-1269.288,62.22
1090.924,-1255.868,149.816
1194.624,-1210.484,174.46
1334.436,-1146.068,122.488
1242.448,-1037.976,89.06
1040.172,-956.968,73.2
865.712,-830.088,-28.06
521.428,-816.18,-14.884
67.1,-872.056,66.612
-253.516,-718.58,11.712
-381.372,-422.364,-151.28
-345.016,-252.784,-267.424
-255.468,-60.268,-436.76
-82.96,80.52,-619.516
46.36,134.2,-724.68
142.984,287.188,-802.76
217.892,410.408,-859.368
315.004,481.9,-858.392
384.544,532.652,-844.728
312.808,487.268,-705.16
291.824,424.072,-584.624
336.476,394.06,-538.996
305.488,264.496,-421.876
231.312,101.504,-230.58
43.92,-7.32,-18.056
-80.764,24.156,151.28
-108.336,-6.1,327.448
-108.336,-99.796,518.744
-61.976,-203.252,725.168
133.956,-220.82,881.328
284.26,-320.372,1035.78
476.532,-544.852,1180.228
558.272,-690.52,1350.54
557.296,-831.796,1431.304
874.74,-851.56,1284.172
1166.32,-881.572,1161.684
1182.424,-929.64,1137.284
1237.324,-992.592,1097.512
1264.408,-1012.6,985.028
1458.144,-1008.696,778.848
1608.936,-961.36,613.416
1503.528,-1015.04,574.864
1483.52,-1110.932,504.348
1573.068,-1102.148,357.948
1528.66,-1014.308,203.984
1563.308,-950.38,52.216
1578.68,-917.44,-101.016
1490.596,-839.848,-214.72
1418.128,-743.468,-302.804
1294.42,-681.248,-367.464
1209.996,-601.46,-401.624
1051.396,-481.656,-444.568
887.184,-289.872,-470.188
849.364,-175.436,-515.816
856.684,-56.364,-557.784
894.992,13.42,-621.956
996.008,98.332,-596.092
1201.212,84.424,-457.744
1104.832,40.016,-228.14
848.876,-39.772,-133.224
908.9,16.348,-182.024
849.364,63.196,-191.296
690.276,408.7,-165.676
325.984,454.084,-89.792
-20.984,748.836,141.032
197.884,963.556,-41.968
212.524,1166.808,-14.884
80.764,1491.084,97.112
-134.688,1221.952,136.64
-303.292,831.796,93.208
-437.736,983.564,94.184
-383.08,1229.272,75.396
-315.98,1138.016,84.912
-336.72,924.516,79.544
-355.996,976.976,50.02
-354.044,1067.5,-1.952
-321.592,984.784,-5.612
-284.26,862.296,8.052
-251.32,886.208,24.4
-184.952,986.736,29.28
-179.584,1018.7,0.976
-191.296,995.032,-2.196
-177.632,911.584,21.228
-156.892,953.552,34.892
-167.628,944.28,32.208
-268.4,948.672,-7.076
-217.892,929.396,-5.856
-210.084,945.012,4.636
-223.992,934.032,7.32
-189.832,965.508,4.88
-197.152,986.492,-12.2
-253.028,1036.756,-32.452
-212.768,1000.888,-24.644
-189.832,958.188,-8.296
-209.84,947.94,5.612
-229.116,956.48,0.488
-197.396,968.924,-9.516
-188.856,980.636,-5.124
-198.372,913.048,5.612
-167.384,926.956,28.792
-167.872,947.452,15.128
-186.416,928.176,11.468
-184.22,945.012,4.636
-203.252,983.808,-4.392
-201.544,990.152,-8.784
-196.664,966.728,-5.124
-185.196,931.104,19.52
-175.436,921.344,27.572
-197.396,952.088,18.788
-215.94,988.444,-1.22
-189.344,1023.336,8.052
-167.628,991.128,25.62
-198.128,959.408,28.548
-176.656,968.924,25.376
-172.996,1000.644,24.888
-180.072,997.716,21.716
-173.24,983.564,24.156
-165.92,975.024,33.184
-166.896,955.748,32.94
-167.384,983.32,35.624
-176.412,973.56,30.988
-171.532,957.456,29.036
-177.876,954.772,35.136
-181.048,951.844,30.744
-170.068,970.876,28.06
