acc_x[mg],acc_y[mg],acc_z[mg]
-36.356,960.628,72.712
-44.164,955.992,64.172
-7.076,963.8,64.416
0.0,977.464,75.884
22.204,985.272,59.78
5.612,993.568,50.508
5.368,1006.988,54.168
40.992,1011.136,37.332
42.944,1007.476,44.164
21.96,993.324,43.432
3.172,982.1,51.484
-7.808,978.44,44.896
-13.176,983.808,33.428
12.932,996.252,20.496
15.616,997.716,24.156
20.984,999.18,26.596
40.26,1001.132,28.06
40.748,998.936,24.644
33.916,984.296,32.208
18.3,975.512,40.504
44.164,974.536,26.596
40.748,984.784,25.132
29.28,991.616,29.28
19.032,994.788,19.52
13.176,1000.4,13.42
12.932,1000.4,19.032
14.884,1002.596,20.496
15.86,1000.888,29.524
10.492,1000.4,31.72
-1.22,996.496,26.352
22.692,996.496,15.372
37.088,1005.524,7.32
35.868,1008.452,23.424
40.748,1003.816,29.28
40.016,993.08,15.616
17.08,983.076,18.056
15.616,980.88,16.348
29.524,980.88,11.224
29.28,978.928,15.372
24.4,976.244,22.936
29.768,974.536,17.812
46.848,981.856,13.664
44.652,986.736,12.932
32.696,992.592,15.372
32.452,989.42,16.836
30.5,993.08,19.032
35.38,1000.644,25.132
44.408,1006.5,30.012
56.364,1018.944,17.812
44.896,1037.732,27.328
21.716,1044.564,30.256
10.492,1032.608,25.864
-25.376,1029.192,44.408
-18.788,1037.0,26.84
8.052,1043.344,-0.244
27.084,1041.392,-23.424
40.016,1048.712,-37.332
42.456,1040.66,-40.504
26.84,1029.924,-32.696
-10.248,1028.46,-20.496
-3.904,1013.088,-12.2
-7.808,997.96,-5.368
-16.104,997.96,-14.64
18.788,998.692,-23.424
23.18,990.396,20.252
10.492,983.808,34.892
1.464,973.316,22.204
4.88,953.552,15.616
-9.76,943.792,37.332
12.932,945.744,41.968
27.572,953.552,44.408
40.748,955.748,45.872
29.768,945.988,41.968
-7.808,935.496,49.288
-36.112,918.904,77.592
-36.6,925.492,92.476
-5.612,951.356,75.396
31.964,972.584,67.832
78.324,990.396,37.088
50.996,999.424,29.28
24.4,1001.62,48.068
3.416,986.248,61.0
19.276,984.296,55.876
70.516,998.448,21.228
108.58,1018.944,-10.492
104.92,1022.604,-12.932
50.264,993.812,18.544
62.464,948.672,9.028
75.884,918.416,20.008
64.904,907.924,77.104
77.104,904.02,91.744
66.368,915.488,69.54
12.2,909.144,76.128
16.836,908.656,57.34
83.204,938.668,4.88
98.332,976.732,17.324
58.56,1020.652,68.808
69.296,1030.656,71.736
25.864,1010.404,66.612
-21.96,975.512,96.136
80.52,939.156,58.316
104.676,982.832,11.956
82.96,1054.324,-9.272
131.028,1090.192,-35.38
179.34,1078.968,-43.432
132.004,1025.044,-15.616
13.176,955.992,14.396
19.764,903.776,12.688
0.488,835.7,16.104
3.172,766.648,-13.42
-124.684,674.416,42.212
-192.272,675.88,124.684
-71.248,787.876,95.648
150.548,817.644,13.664
226.92,813.252,40.504
134.932,784.216,115.656
57.584,764.452,130.54
112.728,816.912,30.256
133.956,927.932,-16.104
84.18,1033.584,-37.088
33.672,1172.42,-71.248
5.124,1254.892,-69.296
32.208,1256.844,-12.444
5.124,1223.416,35.38
-69.54,1131.428,64.904
-190.564,1037.244,46.36
-155.916,1039.44,3.904
-129.808,1103.856,-3.416
3.904,1184.376,-11.468
87.108,1287.344,38.308
86.132,1280.024,16.836
88.328,1269.532,-4.88
90.524,1233.664,-8.296
57.34,1195.356,16.104
48.8,1172.176,18.056
41.236,1146.312,6.1
6.1,1113.616,-56.608
-33.916,1041.88,-66.368
-97.112,956.236,-12.2
-71.004,919.636,2.196
-82.96,933.3,35.38
-34.404,959.652,29.28
30.012,962.336,40.992
114.924,947.208,43.92
89.792,915.488,90.768
98.332,893.772,103.944
107.848,889.136,82.96
147.376,898.408,71.248
141.276,916.464,78.324
145.668,906.46,80.276
89.548,884.256,85.4
76.372,873.032,53.436
61.0,892.796,12.444
41.724,928.908,-23.424
31.476,965.508,-50.752
45.628,1021.384,-94.916
67.588,1088.484,-126.392
43.432,1108.736,-126.148
0.488,1072.624,-129.564
-40.26,1011.136,-90.28
-108.824,955.016,-37.82
-129.32,942.084,-24.156
-155.184,981.612,-40.26
-123.952,1026.508,-54.168
-86.376,1061.4,-46.848
-72.468,1059.448,-21.96
-71.492,1046.272,-17.08
-106.14,1032.364,-32.452
-132.98,1019.188,-27.084
-87.352,1006.256,-24.4
-71.98,983.564,1.22
-79.3,964.776,24.4
-80.764,970.876,0.976
-89.792,977.464,-12.444
-104.432,977.464,12.444
-97.6,981.856,10.004
-117.12,982.1,-9.028
-133.468,993.08,-23.424
-155.916,1005.036,-12.688
-142.252,1020.896,-11.224
-197.152,1025.288,-34.16
-297.924,1003.816,-28.792
-464.088,978.44,53.192
-635.62,883.036,57.096
-621.956,768.6,-7.564
-436.516,643.184,-94.428
-236.192,527.04,-116.388
56.12,323.056,-185.928
104.92,212.28,-51.728
16.348,126.88,-0.244
220.576,-17.568,-14.152
1007.476,-361.12,241.316
809.592,-1164.856,655.872
1576.728,-1301.984,520.696
2103.28,-1094.828,352.58
1551.108,-771.284,676.124
868.64,-762.5,561.444
1111.176,-873.276,402.844
1384.212,-890.844,426.024
1749.724,-698.816,397.232
1668.96,-479.216,421.632
1653.588,-358.192,417.972
1985.184,-460.184,441.884
2247.484,-520.696,592.92
2371.192,-439.932,586.332
2409.012,-389.668,475.312
2310.68,-424.072,421.876
2135.732,-633.424,650.504
1935.896,-799.588,777.14
1708.976,-796.904,621.712
1505.48,-822.768,460.672
1123.62,-785.192,359.656
701.988,-713.456,317.444
539.484,-671.488,280.6
444.568,-598.288,154.696
344.772,-503.616,-18.544
-93.696,-299.632,20.008
-149.084,-183.732,97.112
145.424,-164.212,-56.608
22.936,-127.368,-206.668
-245.952,46.116,-304.756
-138.104,283.04,-453.352
450.18,457.5,-618.296
874.984,524.6,-835.7
868.884,467.748,-886.94
901.58,419.68,-896.944
853.268,419.68,-899.384
885.232,388.204,-850.096
941.108,311.344,-758.352
874.984,248.148,-696.62
734.684,200.812,-563.396
628.056,111.996,-399.672
413.824,7.076,-179.096
233.264,-124.928,103.456
277.672,-220.332,239.852
144.936,-219.844,407.724
-91.988,-252.296,713.7
35.624,-342.088,946.476
248.392,-435.784,1067.5
159.332,-328.668,1196.088
5.856,-279.868,1349.32
238.144,-354.044,1503.04
692.96,-435.296,1608.692
738.832,-449.448,1754.604
693.204,-498.492,1898.32
903.044,-553.88,1945.168
1320.284,-588.772,1846.348
1454.484,-634.888,1747.04
1358.836,-659.044,1654.564
1568.676,-673.196,1403.0
1663.104,-691.496,1003.328
1520.12,-651.236,611.952
1474.736,-576.328,311.1
1416.176,-541.924,-16.348
1378.6,-386.496,-422.12
1467.416,-162.016,-873.032
1594.296,74.908,-1146.556
1516.216,155.428,-1053.592
1463.268,113.46,-879.864
1475.712,7.564,-600.972
1381.772,-134.444,-345.016
1076.284,-178.364,-174.948
998.936,-123.952,-125.172
1273.924,-41.724,-220.332
1186.328,31.72,-327.936
1082.14,148.108,-188.124
977.464,92.232,-91.012
781.044,164.7,-88.328
721.02,443.104,19.276
644.648,631.716,45.384
504.348,699.548,21.472
539.484,800.32,-156.892
378.688,805.688,-76.128
151.036,865.956,35.136
104.676,884.012,-52.948
-16.104,968.192,-85.156
-39.528,1076.284,-21.716
-12.444,1028.216,91.256
-53.436,960.384,85.888
-132.492,982.588,99.064
-317.932,976.244,94.672
-390.156,999.912,160.552
-359.656,994.544,214.964
-340.868,996.496,254.004
-290.604,981.368,227.408
-379.664,974.536,197.396
-416.508,940.376,159.576
-491.172,919.392,184.22
-468.48,963.312,167.384
-381.616,1039.196,43.92
-367.952,1113.372,-32.696
-359.168,1157.292,11.712
-345.748,1172.176,91.012
-208.864,1152.9,85.4
-53.68,1151.68,14.396
13.176,1169.248,74.42
87.108,1168.028,61.976
47.092,1109.956,117.852
62.708,1044.564,106.384
34.648,1002.352,95.404
71.492,985.76,59.536
76.616,967.704,65.148
57.828,952.332,82.472
34.404,941.84,81.74
30.256,971.364,39.528
13.176,1004.06,34.892
42.212,1026.508,15.616
24.888,1017.968,42.212
-2.684,988.2,64.904
10.248,965.508,67.344
14.396,959.408,79.544
30.256,966.24,75.884
51.484,975.268,67.344
15.616,973.56,89.06
16.836,972.096,78.324
0.976,968.924,81.496
-10.98,966.728,83.204
25.62,984.052,61.976
52.948,999.912,62.952
32.94,1009.184,91.744
23.424,994.3,109.8
35.38,985.028,108.092
43.188,987.224,101.992
67.588,1005.524,79.544
69.54,1010.404,85.4
60.512,1009.428,101.504
40.992,998.936,122.976
20.74,980.148,111.752
9.76,965.02,83.448
24.644,972.34,54.9
36.844,995.032,60.512
36.844,1009.672,81.984
31.72,1006.744,98.332
24.4,983.808,115.412
17.812,973.56,113.46
37.576,978.44,101.748
49.044,986.98,97.112
51.484,987.224,99.552
53.436,980.88,108.092
54.9,977.708,107.604
51.728,973.804,109.8
48.556,970.876,102.724
29.28,970.876,104.676
15.372,969.9,97.112
35.136,977.22,66.612
35.624,990.152,62.464
39.284,993.812,77.592
52.704,992.104,92.232
61.488,990.64,78.324
33.916,981.612,79.3
23.18,981.368,71.004
10.98,995.276,69.54
11.224,1015.528,70.028
16.836,1032.608,66.124
1.22,1029.192,69.052
-1.464,1015.528,72.224
-10.248,1004.792,73.688
-9.272,997.96,79.3
4.392,988.444,79.056
18.544,987.956,73.2
32.452,990.884,79.056
32.696,985.272,84.668
37.82,979.904,84.424
24.888,972.828,86.62
29.524,965.508,76.616
40.016,967.46,63.928
15.128,969.412,71.004
3.172,972.096,76.86
13.176,968.192,77.836
20.252,962.58,87.108
40.748,961.116,71.98
49.532,965.996,56.608
34.16,974.78,52.948
-0.244,982.1,58.56
-41.968,979.904,61.976
-63.928,966.728,55.876
-31.232,976.0,26.108
-44.408,980.392,32.696
-46.848,973.56,33.184
-44.164,991.128,54.9
-50.996,987.468,76.128
-59.048,957.7,86.62
-128.588,901.824,114.436
-188.856,842.044,109.312
-233.508,831.796,69.296
-242.048,814.228,49.532
-237.412,790.072,98.576
-137.128,772.016,77.348
128.588,679.296,30.744
265.228,573.644,44.164
229.848,463.356,89.304
292.556,303.536,72.712
519.232,156.892,69.296
947.452,32.208,-27.572
741.272,-71.004,-76.86
151.768,-200.324,333.304
233.996,-525.088,705.892
1170.224,-778.604,178.852
1328.092,-696.864,-12.2
922.076,-509.96,279.868
787.876,-461.648,384.3
958.92,-605.12,510.936
1379.576,-766.16,265.716
1312.964,-755.424,170.556
1252.452,-662.46,316.468
1320.04,-662.46,350.628
1452.044,-787.632,420.9
1355.908,-888.404,556.564
1328.824,-852.78,520.94
1338.34,-840.092,483.364
1217.804,-728.096,393.572
1068.232,-610.488,374.784
1116.3,-516.304,355.508
1317.112,-463.844,300.608
1451.068,-453.108,337.208
1646.024,-452.376,406.016
1740.696,-511.912,390.888
1704.34,-574.376,479.46
1819.264,-579.5,536.312
1998.848,-587.308,520.452
2068.144,-661.728,461.404
1915.888,-761.036,497.516
1772.172,-800.076,552.66
1703.852,-843.508,538.02
1621.624,-842.288,489.952
1462.292,-824.476,405.04
1331.996,-789.584,302.804
1209.508,-791.292,272.06
1142.896,-808.372,209.108
953.308,-751.764,124.44
694.424,-644.648,55.876
507.276,-657.58,42.456
472.872,-672.22,21.716
410.408,-619.028,-82.228
379.176,-549.976,-152.988
268.888,-456.28,-244.976
193.248,-188.368,-466.528
113.948,114.68,-688.568
287.188,319.884,-853.756
478.972,395.524,-949.404
457.744,406.26,-1032.364
440.42,413.824,-977.708
349.164,350.872,-807.64
368.684,268.4,-664.9
359.9,217.648,-551.196
282.308,122.488,-358.192
197.152,-30.5,-83.692
198.128,-185.928,142.74
144.204,-257.908,317.2
-37.576,-245.22,468.48
0.488,-193.98,636.596
127.856,-111.264,776.896
154.696,-97.356,939.4
234.484,-204.472,1133.136
408.7,-325.74,1362.008
511.18,-398.452,1565.016
626.348,-435.784,1666.276
765.428,-500.932,1739.72
868.396,-519.232,1836.588
1099.464,-531.92,1811.7
1238.788,-612.684,1668.96
1381.528,-613.172,1456.924
1342.488,-520.696,1297.348
1422.764,-504.592,1018.7
1514.02,-541.68,760.304
1471.564,-562.42,462.624
1419.104,-395.768,99.064
1283.684,-270.108,-182.512
1476.444,-68.32,-456.28
1697.752,93.696,-619.028
1653.832,135.664,-633.18
1569.164,78.568,-530.944
1518.168,-23.912,-335.256
1206.824,-161.528,-196.42
848.388,-260.836,-170.8
996.008,-249.612,-44.896
1303.448,-189.588,-143.472
1187.792,-74.908,-160.796
896.944,36.844,-195.2
785.68,211.06,-199.592
958.676,264.74,-153.964
937.204,334.524,-66.612
781.532,502.152,18.3
550.952,671.488,123.464
474.824,835.456,85.156
548.024,930.86,34.16
415.776,958.92,34.648
112.24,1025.044,-27.328
-17.568,1125.084,-101.26
-133.224,1141.188,-45.872
-112.24,1150.46,-60.756
-431.88,1086.776,5.856
-574.62,1071.404,17.08
-489.952,1114.836,-33.916
-461.892,1128.744,-49.532
-482.388,1152.9,-47.336
-350.14,1159.732,-23.912
-304.512,1145.58,40.26
-256.688,1112.64,48.8
-218.868,1064.816,73.2
-166.652,1047.492,37.576
-72.712,1039.44,18.544
-82.472,1038.22,-0.976
-122.488,1025.288,1.464
-153.476,978.928,33.428
-92.476,954.284,-10.492
-96.136,968.924,-12.932
-81.008,989.908,13.664
-86.62,996.74,33.184
-92.232,980.88,50.752
-80.52,966.728,59.292
-60.512,955.748,57.34
-57.096,960.628,37.576
-68.076,974.536,35.624
-74.908,976.732,48.312
-69.54,977.952,40.748
-38.308,975.756,35.38
-45.14,966.484,43.676
-68.564,957.944,41.48
-72.956,949.404,44.652
-79.3,940.864,46.848
-73.444,948.916,50.02
-40.26,963.068,42.212
-32.696,988.2,32.208
-41.236,1001.132,34.404
-56.852,989.42,53.192
-70.76,969.412,61.488
-78.812,965.508,53.68
-95.16,970.144,57.828
-65.148,980.148,36.356
-51.972,994.788,25.864
-67.344,999.424,36.112
-41.968,995.032,29.28
-60.756,983.076,36.844
-69.784,954.528,40.26
-54.9,927.2,36.356
-54.412,912.804,33.184
-40.26,897.188,49.532
-42.944,867.664,58.56
-42.212,841.556,65.392
-50.752,802.516,77.104
-2.684,773.236,57.34
34.892,754.204,52.46
44.408,758.84,81.008
67.1,772.992,73.688
66.124,786.9,40.016
104.92,812.764,-2.684
95.16,852.048,-4.636
122.976,898.652,-21.472
130.54,945.988,-27.572
171.044,981.368,-45.628
185.196,1002.84,-34.404
199.836,992.592,-27.084
215.208,973.56,-26.108
204.716,950.624,-6.588
261.324,933.544,29.768
311.588,923.54,19.032
353.556,964.532,-1.952
361.852,1021.14,10.492
384.544,1074.088,-17.568
398.208,1126.548,-44.408
403.82,1175.104,-23.18
418.46,1200.236,-38.796
404.796,1209.508,-60.268
388.204,1221.22,-57.096
404.796,1276.608,-88.084
406.26,1301.008,-89.06
390.888,1285.88,-45.872
363.072,1252.696,-13.42
361.852,1214.632,-12.444
399.672,1232.444,-5.124
440.664,1257.576,-12.2
437.004,1209.508,-21.228
354.288,1113.86,-22.936
295.24,1022.36,-7.32
269.864,932.324,18.788
203.008,835.456,47.092
121.024,732.488,64.172
86.132,670.024,61.244
79.544,630.496,61.0
91.988,669.048,48.556
111.752,742.736,29.036
178.608,819.108,16.104
215.696,862.296,28.548
215.696,889.868,9.516
231.556,904.752,0.976
208.132,917.684,-3.904
248.636,958.188,-17.812
234.972,977.708,-11.468
239.852,988.688,-20.496
245.952,993.324,-19.764
200.324,989.664,-2.196
190.808,996.496,-11.956
193.736,1013.088,6.1
188.612,1011.868,3.172
195.444,1017.968,-17.08
173.24,1012.6,-5.856
139.08,985.272,4.148
149.816,965.508,2.196
233.752,989.176,-8.052
241.072,989.908,-18.544
204.472,952.576,-9.272
216.672,905.972,26.108
304.512,900.604,40.26
251.808,889.868,86.132
169.336,860.832,121.756
137.86,800.076,68.32
159.82,732.976,59.048
243.268,706.624,72.468
400.404,698.084,-49.532
372.344,617.564,-46.848
414.068,481.9,-4.636
594.628,383.324,-49.044
781.532,203.984,58.56
556.076,99.064,80.032
957.212,-11.956,-18.544
1084.092,-105.164,-55.388
939.644,-284.016,254.492
1229.028,-562.42,244.732
1338.096,-693.448,213.988
1476.932,-710.772,105.896
1405.196,-854.488,224.968
1484.008,-979.416,381.86
1836.832,-1078.968,332.572
1899.296,-1014.308,337.696
1834.392,-920.124,334.28
1688.48,-798.612,345.748
1731.668,-669.048,335.256
1878.556,-569.496,347.7
2005.924,-576.816,289.384
1931.016,-656.36,271.572
1816.092,-712.48,233.752
1741.184,-717.848,208.376
1608.936,-753.472,244.976
1487.668,-794.464,288.408
1535.248,-816.18,254.736
1549.4,-822.768,156.16
1291.004,-777.14,115.656
939.156,-717.848,176.9
926.712,-690.276,215.94
1013.82,-739.32,129.808
888.648,-744.688,42.456
688.812,-710.284,-1.22
459.696,-618.54,-105.164
233.996,-463.844,-274.744
23.424,-278.648,-316.224
3.904,-112.728,-386.496
264.74,63.196,-578.524
350.384,207.156,-783.484
345.504,298.412,-813.984
335.744,330.376,-787.876
333.548,366.976,-839.36
250.344,453.352,-904.264
167.872,496.296,-896.212
221.308,461.16,-769.332
226.92,378.688,-666.852
192.272,281.332,-578.524
217.648,189.588,-431.148
252.296,90.524,-271.084
272.06,-50.752,-104.432
64.416,-192.272,82.228
-31.232,-232.288,249.124
41.724,-259.372,418.704
91.256,-398.208,605.12
216.672,-515.816,887.672
214.964,-542.168,1211.704
143.96,-586.088,1468.88
322.324,-574.376,1591.368
608.78,-587.308,1675.06
762.988,-551.928,1808.528
726.144,-546.56,1938.58
898.408,-631.472,1942.484
1133.624,-774.7,1869.284
1240.008,-893.772,1752.896
1192.916,-904.996,1664.812
1178.032,-890.844,1469.856
1336.876,-880.596,1209.02
1611.62,-906.948,883.524
1573.556,-879.376,661.484
1322.236,-856.44,535.824
1272.216,-794.464,321.836
1541.348,-707.6,-12.2
1528.904,-622.688,-294.264
1479.372,-440.664,-565.104
1397.876,-248.148,-760.548
1445.212,-73.444,-868.884
1483.52,-22.204,-841.556
1623.82,-21.228,-700.524
1344.44,-149.572,-568.276
1120.204,-195.688,-393.084
1243.424,-192.516,-303.292
1372.012,-80.764,-291.336
1077.016,47.824,-247.416
858.392,207.156,-215.94
756.156,432.124,-186.416
776.164,565.592,-144.692
661.972,550.22,-270.352
398.696,760.06,-164.212
-155.916,857.66,39.04
-410.896,953.796,119.316
-552.172,1019.676,38.796
-693.692,1088.728,-36.844
-678.808,1065.548,0.0
-745.176,1065.06,-10.004
-577.304,1114.104,-91.256
-485.804,1135.82,-81.008
-409.188,1138.992,-21.228
-287.676,1122.4,5.124
-193.98,1112.396,3.66
-105.896,1075.796,46.848
-43.676,1024.312,80.764
-47.336,964.288,81.496
-3.416,949.648,22.204
-165.92,951.112,4.392
-289.872,940.132,50.508
-339.648,925.248,66.124
-221.064,987.956,-62.464
-257.176,1033.584,-92.232
-279.136,1054.08,-53.192
-275.232,1027.24,-49.532
-243.024,990.64,-35.136
-212.28,960.384,-18.056
-157.38,953.308,-12.688
-75.64,974.78,-37.332
-53.192,991.372,-48.068
-68.32,1021.628,-57.34
-117.364,1030.656,-53.192
-155.916,1003.328,-29.768
-99.552,987.468,-76.372
-93.94,976.976,-91.012
-92.964,965.508,-72.224
-74.176,982.1,-73.688
-68.32,974.292,-42.456
-94.428,953.796,0.488
-71.492,949.404,-14.396
-81.984,937.448,0.976
-80.764,931.592,5.612
-92.964,942.572,5.368
-110.776,958.92,20.74
-109.556,979.416,24.644
-86.376,1003.328,3.66
-35.38,1026.508,-10.248
-33.916,1026.996,0.244
-65.148,1004.06,20.496
-98.576,978.196,32.94
-125.904,961.116,31.232
-110.288,954.772,15.86
-64.172,974.048,-17.324
-87.596,989.42,-3.904
-112.24,988.444,1.22
-139.324,983.564,7.808
-128.1,977.708,12.444
-108.824,977.708,5.856
-100.04,985.516,-7.076
-101.016,999.424,-24.156
-115.656,1008.94,-14.64
-131.028,1005.768,-3.904
-107.36,1001.62,-16.836
-123.464,990.396,-15.372
-138.104,971.12,-17.08
-114.192,971.12,-24.156
-105.652,978.196,-22.204
-116.144,975.268,-3.66
-111.996,962.824,7.32
-120.78,941.108,10.004
-92.964,945.744,0.488
-90.524,954.284,4.392
-94.916,965.752,11.712
-100.04,972.096,22.936
-82.228,974.048,18.544
-76.128,978.684,11.468
-81.252,980.636,0.976
-90.036,974.048,6.1
-103.7,964.532,10.492
-110.288,943.06,7.32
-101.992,916.22,-3.172
-107.848,878.644,-10.98
-118.34,821.548,-10.004
-96.868,753.716,-1.952
-78.324,702.476,11.712
-58.804,685.396,23.668
-13.664,705.16,-7.32
17.08,731.512,-43.432
7.808,777.384,-53.68
39.528,817.888,-73.2
2.684,813.496,-68.32
16.104,822.524,-85.156
56.852,859.124,-71.492
67.344,956.48,-89.548
146.4,1007.964,-116.876
181.292,1040.172,-109.068
227.896,1066.036,-130.296
184.22,1056.52,-122.0
152.744,1030.168,-112.484
157.868,988.688,-129.076
163.236,983.808,-151.524
173.728,1013.576,-185.44
204.96,1041.88,-189.344
290.116,1075.796,-185.684
333.304,1072.868,-166.896
370.392,1053.836,-163.48
381.372,1054.812,-185.684
366.976,1068.232,-215.452
348.676,1108.736,-217.648
382.348,1144.36,-231.556
395.036,1123.376,-216.916
358.436,1086.776,-205.692
317.444,1001.376,-188.368
232.532,867.664,-163.724
264.984,792.024,-140.056
323.056,765.672,-161.528
287.676,772.016,-200.324
255.468,759.328,-138.348
373.076,757.62,-41.48
592.92,823.012,-90.036
682.712,915.244,-137.86
693.692,980.392,-106.384
744.2,1036.756,-120.536
651.724,1093.852,-142.008
637.572,1107.272,-159.576
600.972,1098.488,-173.24
600.484,1138.748,-234.972
552.904,1151.68,-246.928
499.224,1101.172,-233.996
459.452,1021.14,-211.304
467.992,941.108,-212.28
468.48,876.448,-204.472
478.972,830.088,-192.516
532.896,824.72,-175.924
564.86,837.896,-152.5
639.768,869.86,-157.136
601.948,904.02,-155.184
567.788,911.584,-134.932
499.468,852.536,-99.796
460.672,813.496,-158.356
427.976,823.988,-197.152
434.808,852.536,-184.708
440.42,845.948,-132.98
446.764,819.108,-99.796
517.036,834.968,-118.828
495.564,862.052,-127.124
459.452,853.024,-93.696
441.64,847.9,-44.896
408.7,852.78,-42.212
375.272,845.704,-83.204
349.896,870.592,-108.336
290.604,903.044,-99.796
202.764,915.732,-13.42
147.864,913.536,166.652
182.512,883.036,172.752
151.28,824.72,19.764
687.104,864.248,-302.072
895.968,754.936,-286.7
983.32,663.924,-217.16
495.564,499.712,-38.064
359.412,264.984,90.036
790.316,-16.104,52.46
955.992,-195.688,3.66
1092.632,-493.368,135.908
1141.92,-773.724,307.928
1285.636,-823.012,281.332
1462.048,-696.62,173.484
1770.708,-628.788,41.236
1904.908,-596.092,77.592
1579.656,-654.652,193.248
1337.364,-673.44,267.668
1412.76,-650.26,294.996
1943.704,-564.86,126.392
2263.832,-509.96,37.332
2166.476,-616.344,88.816
2005.436,-738.1,139.08
2165.988,-820.328,116.876
2191.12,-910.364,79.544
2050.332,-978.44,75.64
1837.564,-1035.536,71.98
1501.332,-1021.872,60.512
1177.788,-934.032,119.316
1025.044,-893.528,61.244
932.812,-909.388,-58.316
684.176,-949.404,-57.584
309.636,-882.06,-82.228
-159.332,-723.948,-47.58
-283.772,-532.896,-64.172
-134.444,-333.548,-243.268
-27.328,-130.052,-440.664
-93.452,128.1,-613.904
-198.86,362.096,-813.008
-61.976,518.5,-966.728
106.384,558.76,-1067.256
276.208,549.976,-1045.784
308.66,477.264,-945.5
273.28,408.944,-787.876
256.932,345.016,-642.94
288.896,225.7,-448.228
335.256,58.316,-215.94
282.308,-69.54,-15.128
221.064,-176.168,178.608
186.172,-218.38,352.58
204.228,-232.532,508.984
213.5,-193.004,690.764
184.708,-175.192,888.404
264.252,-199.592,1077.26
494.344,-301.096,1215.364
727.608,-406.504,1341.756
719.068,-480.192,1438.868
650.992,-470.432,1490.596
707.112,-506.788,1474.248
926.712,-544.12,1377.136
997.96,-587.308,1293.932
937.204,-480.68,1243.18
1039.196,-599.508,1152.656
1537.2,-706.624,993.812
1802.916,-756.888,861.808
1745.088,-735.66,752.984
1468.392,-746.396,704.672
1289.052,-775.92,617.32
1580.144,-773.48,419.68
1846.836,-768.844,176.412
1772.416,-683.688,-81.496
1721.664,-481.656,-243.512
1619.428,-341.6,-321.836
1522.804,-252.784,-417.972
1542.08,-175.436,-536.556
1345.904,-126.392,-529.48
1041.148,-35.38,-487.024
882.548,93.696,-403.82
891.088,131.028,-295.24
1072.624,133.712,-178.12
922.076,19.52,-183.244
789.584,3.416,-127.124
917.196,124.196,-139.324
692.96,199.592,-123.708
613.904,472.14,-172.752
806.42,595.604,-240.584
450.18,596.824,5.612
123.464,701.012,239.12
4.88,722.24,310.856
-158.6,723.948,360.876
-428.22,712.968,399.916
-379.908,787.876,286.212
-409.92,836.92,184.952
-290.604,969.412,72.468
-188.856,1008.696,19.52
-161.04,1037.976,0.732
-123.952,1019.432,47.336
-137.616,979.66,62.952
-122.488,993.812,-7.32
-155.184,979.172,27.816
-149.572,963.556,13.42
-187.88,967.948,22.448
-245.464,961.848,81.984
-213.012,998.692,50.752
-318.42,1036.268,23.18
-347.456,1092.144,33.916
-232.776,1129.476,42.7
-237.168,1163.88,68.076
-256.688,1203.164,2.44
-241.56,1274.656,-44.896
-236.924,1290.272,-6.832
-228.872,1240.984,3.416
-137.128,1188.524,-37.332
-150.304,1102.392,-20.984
-91.5,1046.272,1.708
-118.828,990.152,36.356
-117.364,944.524,34.892
-49.776,933.056,-20.74
-81.496,941.596,6.1
-139.08,936.472,45.14
-123.708,933.3,12.932
-154.452,940.132,14.64
-133.712,955.992,1.952
-123.22,972.828,3.172
-130.54,941.352,12.444
-179.34,910.12,63.196
-190.564,866.444,108.58
-99.064,841.312,116.388
-125.904,859.124,182.756
-88.816,750.788,122.0
-40.992,717.848,60.024
-18.544,752.008,20.496
23.424,765.184,-3.416
-1.952,734.928,-3.66
35.624,753.96,20.008
-5.124,774.7,48.8
22.936,807.884,77.104
170.068,857.904,35.624
108.58,864.004,96.38
52.216,863.028,160.552
19.032,836.188,208.376
9.028,836.92,184.22
21.96,899.14,123.708
-43.676,929.396,114.436
-112.24,953.308,142.984
-52.216,1042.124,102.236
-35.136,1112.884,97.844
-71.736,1067.012,170.068
-122.732,1007.72,220.332
-166.896,987.956,210.572
-107.848,1077.992,159.332
-123.22,1052.616,190.564
-68.076,1029.924,212.524
-21.716,977.708,183.976
-75.884,1014.064,150.792
-138.592,1007.232,93.696
-152.012,1033.096,107.848
-125.172,1027.24,89.792
-99.308,1100.196,84.912
-83.936,1235.86,43.92
-132.004,1271.24,47.092
-166.652,1248.304,45.628
-174.704,1205.36,56.852
-146.644,1157.048,81.74
-140.3,1200.48,47.336
-171.776,1209.264,48.8
-155.184,1255.624,23.668
-122.244,1288.076,-2.196
-160.308,1161.684,26.596
-178.608,1075.308,61.244
-135.908,1003.328,81.008
-96.868,1027.728,45.872
-120.536,973.804,57.584
-97.6,947.452,66.368
-23.18,955.748,53.436
40.504,990.152,28.792
48.8,1031.876,68.808
27.816,964.044,69.296
-5.612,941.352,52.948
-16.348,937.204,30.744
-4.392,951.844,25.62
10.736,1005.28,-0.488
-4.392,993.812,16.592
0.976,949.16,51.972
19.032,974.292,31.232
16.348,1007.232,18.056
6.832,1015.04,33.672
20.74,1012.6,47.092
29.036,990.152,52.948
9.272,944.036,69.052
24.4,931.348,74.176
66.612,965.02,54.412
63.928,972.34,41.236
42.7,936.472,47.092
54.656,918.172,41.724
124.44,925.004,39.04
164.456,936.228,31.476
154.208,899.384,47.824
239.608,834.236,81.74
282.308,785.436,54.168
363.804,833.992,-49.288
312.32,833.504,-142.74
246.44,764.94,-120.292
410.652,810.812,-100.772
721.752,699.06,-79.056
487.024,399.672,245.708
503.128,137.86,31.232
1217.56,198.128,-418.948
1090.68,268.888,-326.228
900.604,-120.292,-14.884
1112.64,-262.788,-13.664
1360.056,-399.672,10.248
1288.32,-596.092,136.64
1344.928,-605.852,115.412
1531.1,-548.512,28.548
1659.444,-498.492,-24.644
1592.1,-466.528,-34.892
1489.62,-504.104,-22.936
1428.864,-540.46,-29.768
1423.496,-542.412,-21.716
1536.712,-529.968,-25.132
1797.304,-506.788,-58.072
1993.968,-480.68,-63.928
2012.512,-434.32,-58.56
1911.74,-453.108,30.012
2025.2,-500.444,102.724
2112.796,-547.292,95.892
2079.856,-617.564,75.152
1859.524,-768.844,152.988
1598.2,-860.832,239.852
1447.164,-905.24,229.116
1266.604,-892.552,167.628
1109.712,-812.276,88.572
925.492,-677.832,8.296
638.792,-565.104,-52.948
493.368,-446.764,-106.628
312.564,-482.876,-57.584
169.092,-541.68,-0.732
40.016,-543.144,-39.284
160.064,-415.288,-112.484
109.312,-295.484,-189.832
-49.532,-167.872,-195.2
-17.568,-35.136,-308.416
81.984,31.964,-376.248
148.84,280.6,-548.512
253.272,581.696,-783.972
330.62,692.716,-888.648
387.716,693.448,-901.336
433.1,632.448,-798.612
386.496,538.752,-683.2
280.6,436.272,-545.34
244.0,281.576,-350.14
225.212,100.528,-189.1
148.596,-19.764,-2.684
27.572,-63.684,166.164
-89.792,-136.884,350.872
71.004,-184.708,483.608
326.716,-208.132,613.416
360.876,-338.672,787.876
451.4,-447.496,1002.84
703.696,-558.028,1144.36
882.304,-551.196,1221.952
934.52,-520.94,1260.016
983.564,-516.06,1233.908
1281.244,-524.356,1182.424
1425.204,-505.568,1138.992
1466.196,-568.52,1099.464
1635.532,-606.828,973.316
1651.88,-615.368,853.512
1661.152,-596.092,705.16
1587.952,-615.612,546.316
1662.372,-579.5,369.66
1675.06,-526.308,175.924
1555.988,-435.784,34.648
1200.724,-388.692,-47.58
1283.196,-331.352,-114.68
1403.488,-222.528,-278.892
1489.62,-120.536,-420.9
1473.272,-22.204,-502.152
1372.744,58.56,-506.788
1163.88,47.824,-430.172
1069.94,62.464,-359.168
978.684,83.692,-333.548
943.792,123.708,-305.0
1018.456,186.904,-281.82
990.152,213.5,-280.112
812.764,168.36,-213.744
762.012,226.432,-156.648
788.364,304.024,-99.796
840.58,342.82,-66.856
833.992,388.936,-64.172
846.68,470.676,-64.904
953.308,541.924,-59.536
939.4,569.74,-12.2
832.284,618.296,40.992
671.488,647.82,-34.16
698.084,687.104,-17.568
668.316,760.548,41.724
663.436,865.224,1.708
659.044,886.452,-18.544
591.212,897.92,-28.548
416.752,781.044,101.748
336.964,833.504,79.3
360.632,1112.884,27.572
332.572,990.396,175.436
359.9,1020.896,172.996
224.48,979.416,95.892
103.7,1051.64,24.4
82.96,1118.984,21.228
62.22,1166.076,1.708
-8.052,1173.152,-55.632
-89.548,1125.328,-82.472
-130.296,1092.632,-100.04
-115.412,1074.088,-59.048
-60.512,1026.752,7.564
-9.272,1038.22,20.984
-42.456,1010.404,28.304
-59.78,978.928,34.16
-27.572,1023.092,-0.732
-23.912,1099.708,-47.336
-51.24,1062.864,-35.136
-10.98,1037.732,-14.396
-7.808,987.468,4.392
-18.544,970.388,20.008
-2.196,982.832,22.692
21.96,1046.272,3.904
8.296,1028.46,12.2
32.94,994.056,31.232
39.04,957.456,45.14
53.68,959.896,61.976
51.484,962.336,63.928
37.82,970.632,50.264
11.712,949.648,40.26
-5.612,941.352,37.332
4.148,940.132,45.628
34.404,976.732,46.848
31.72,991.86,47.092
10.248,968.924,49.776
-10.248,939.156,59.536
-6.588,918.66,56.608
-9.516,884.988,69.052
-9.272,881.084,79.3
13.42,892.552,84.668
-8.052,870.592,85.644
0.0,902.068,63.928
5.368,914.024,66.124
-6.588,915.488,53.68
-0.732,942.572,45.872
-44.652,891.332,57.34
-61.732,886.696,33.428
-48.068,913.048,0.976
-8.296,939.888,1.22
18.3,884.5,27.328
26.84,807.884,67.588
57.096,765.428,78.324
76.86,748.836,78.568
62.952,775.676,53.436
12.932,828.624,17.568
-10.248,840.092,32.94
-12.688,845.948,36.112
-10.004,844.972,31.72
-12.932,855.22,34.16
-14.884,854.0,50.996
-51.484,896.212,50.02
-41.236,986.248,35.868
-10.98,1057.984,30.744
-8.54,1049.2,32.696
-22.692,940.376,39.528
66.612,1143.384,16.104
32.94,1028.948,44.652
31.72,1003.328,49.288
31.72,1034.56,69.296
63.928,1069.696,42.456
68.564,1081.408,10.004
37.82,1048.712,-0.732
-11.956,1009.184,-52.948
-48.312,1030.168,-6.588
-14.884,1094.096,38.308
93.208,1221.708,13.42
139.324,1258.796,43.188
49.044,1170.956,65.636
-102.724,1123.376,61.244
-217.16,1144.116,31.964
-245.708,1205.36,41.724
-256.932,1209.508,64.172
-245.952,1172.176,78.812
-272.304,1092.632,146.644
-276.94,1106.54,130.54
-239.852,1094.584,134.688
-210.572,1101.172,133.468
-195.932,1090.436,140.056
-242.048,1058.472,133.468
-272.06,973.804,141.52
-234.24,965.752,105.896
-209.108,992.104,78.568
-241.56,953.064,72.468
-253.76,914.512,66.856
-201.3,918.66,59.536
-154.452,921.832,62.22
-143.228,930.86,47.336
-143.716,955.26,30.256
-156.892,941.84,43.188
-153.964,940.62,28.06
-143.472,949.892,18.056
-138.348,982.588,13.908
-114.436,1036.268,10.492
-117.608,1046.516,24.644
-144.692,992.348,52.216
-139.568,957.7,33.184
-113.216,948.672,30.5
-116.632,922.32,35.136
-97.6,877.912,33.916
-39.04,799.344,51.728
55.876,815.204,54.9
132.492,877.18,3.66
168.116,916.708,-2.928
218.38,863.028,-5.368
320.616,898.164,-91.988
431.636,983.808,-126.88
361.364,843.02,-161.04
400.892,866.688,-220.576
400.648,778.604,-176.168
252.296,640.012,-148.596
556.32,551.196,-236.68
957.212,223.992,-191.052
1616.5,136.152,-212.036
1402.756,205.936,-115.412
924.516,25.376,-201.056
972.584,-276.452,-203.74
1357.616,-364.292,-140.3
1412.028,-333.304,-155.672
1352.492,-485.804,-146.644
1266.848,-538.752,-76.372
1290.76,-529.236,-189.832
1465.22,-545.34,-221.552
1514.02,-726.632,-128.344
1661.884,-818.132,-128.832
1851.228,-873.276,-203.984
1896.124,-849.852,-325.252
1954.684,-775.432,-365.024
1951.512,-822.036,-304.756
1961.272,-911.828,-267.912
1793.888,-959.896,-308.172
1550.864,-1011.38,-233.996
1477.664,-1052.372,-148.84
1370.304,-1106.54,-132.98
1298.568,-1084.336,-201.056
1298.812,-1016.748,-265.228
1117.276,-948.672,-262.544
820.084,-838.628,-283.772
585.6,-639.28,-303.048
426.268,-525.82,-299.876
306.708,-445.544,-262.3
343.308,-406.992,-249.856
298.412,-424.316,-285.968
233.752,-419.436,-371.612
155.184,-335.5,-438.468
210.084,-187.148,-482.144
193.004,-69.784,-524.356
47.824,29.524,-525.576
69.052,138.104,-536.8
66.368,228.14,-499.956
18.3,337.452,-482.144
42.456,450.424,-441.396
18.3,467.992,-363.072
-88.816,420.656,-238.388
-103.456,359.656,-152.5
63.196,319.64,-88.328
227.652,231.8,-22.204
294.508,112.24,82.96
220.332,-58.56,298.168
152.5,-269.62,536.8
406.992,-444.324,648.796
706.624,-600.972,742.736
899.872,-637.084,881.572
925.004,-643.428,1045.54
802.516,-597.8,1266.36
925.248,-617.564,1307.108
1203.408,-598.044,1211.704
1216.584,-575.84,1178.52
1173.64,-588.04,1206.824
1307.352,-637.084,1084.336
1385.92,-635.864,873.764
1389.336,-591.212,716.14
1220.0,-591.7,674.172
1073.844,-549.732,614.148
1001.62,-533.384,490.44
1098.488,-496.784,296.46
1284.172,-447.008,112.24
1331.02,-426.512,-35.624
1316.624,-425.048,-138.104
1352.736,-381.128,-248.88
1503.04,-315.248,-329.156
1586.976,-315.98,-345.748
1549.4,-367.708,-341.356
1434.232,-351.116,-354.532
1260.992,-302.56,-296.216
1088.728,-256.444,-199.592
951.112,-226.92,-125.172
951.112,-155.916,-114.68
925.736,-40.748,-166.652
911.584,118.584,-196.42
800.32,247.416,-181.536
614.88,260.104,-140.3
571.936,283.772,-136.64
733.708,303.536,-141.276
884.988,580.232,-156.648
988.932,839.116,-204.472
895.236,895.724,-166.408
779.092,929.884,-97.112
754.692,895.236,34.648
582.428,825.94,31.232
386.496,774.212,14.884
371.368,871.324,0.488
431.88,1067.988,-37.332
497.272,1090.68,45.872
486.536,1127.036,143.716
336.964,1171.932,172.264
160.552,1175.104,159.088
9.272,1198.528,91.5
-51.24,1196.088,60.268
-42.212,1133.136,75.64
7.076,1149.728,111.508
24.156,1113.372,163.724
-14.396,1085.068,173.972
-70.028,1018.944,168.116
-68.808,945.5,163.724
-50.996,965.02,125.66
-37.332,949.892,128.588
-23.424,1002.108,104.188
-44.652,1072.136,65.148
-57.584,1043.344,50.508
0.488,998.448,41.236
34.648,993.08,35.136
-5.612,960.384,20.984
-25.62,1022.604,4.636
-18.056,973.072,34.892
30.5,890.112,57.828
70.272,855.22,65.392
54.656,868.884,62.22
-2.44,870.104,56.608
-24.888,863.028,47.824
-15.372,886.94,49.044
-21.96,878.644,51.24
0.244,880.84,68.32
16.836,924.028,57.828
-5.612,935.252,57.096
-20.984,918.416,53.924
-29.768,924.272,50.752
-51.24,894.504,49.288
-94.916,876.692,36.356
-79.056,934.52,17.812
-19.276,995.52,41.48
47.092,1020.164,71.004
29.28,995.52,71.492
-4.148,918.904,73.2
-39.772,911.584,49.288
-96.624,1005.768,14.152
-139.812,1031.876,34.892
-158.112,979.904,40.016
-92.964,973.316,43.676
-41.236,945.744,64.904
-111.752,984.784,59.536
-305.488,915.244,-4.636
-338.428,892.064,25.62
-282.064,907.436,59.78
-211.06,991.372,76.86
-168.604,1052.128,87.596
-137.372,983.808,119.56
-152.256,904.02,135.42
-239.364,883.524,125.904
-332.572,979.904,55.388
-360.632,1011.624,62.22
-320.372,986.248,109.556
-316.468,979.172,109.068
-330.132,998.204,85.644
-321.836,974.78,75.884
-258.152,964.044,96.868
-243.268,922.564,90.524
-290.848,934.764,72.224
-317.932,893.04,75.64
-267.912,933.788,85.156
-248.392,1090.192,57.584
-272.548,1167.052,63.44
-285.968,1154.852,76.616
-301.096,1059.204,94.672
-261.568,1014.064,79.788
-190.076,1013.088,89.792
-123.952,1029.436,96.136
-107.116,1029.924,120.048
-137.86,1030.412,98.576
-183.732,1016.26,95.404
-214.72,1014.796,97.112
-208.864,1000.4,100.528
-172.996,977.464,104.676
-172.02,973.072,93.452
-184.22,999.424,91.256
-176.656,1006.744,111.996
-155.916,996.984,131.028
-162.748,964.532,151.28
-183.976,971.852,150.792
-211.304,953.796,154.696
-234.972,965.996,153.232
-244.244,967.948,147.864
-219.844,984.052,146.644
-217.16,1000.156,134.2
-205.204,983.808,142.74
-169.58,986.492,155.184
-154.696,970.144,154.208
-170.312,955.748,152.256
-183.732,938.18,152.012
-189.832,942.328,144.692
-198.128,981.124,130.784
-233.996,979.66,122.976
-266.936,969.656,107.848
-266.936,936.716,102.236
-253.028,914.512,100.04
-232.776,922.808,97.6
-233.508,954.284,108.092
-243.756,940.376,120.292
-224.968,935.008,123.464
-203.496,906.948,126.148
-183.244,894.504,128.832
-171.532,933.788,120.048
-193.004,961.848,133.224
-227.164,948.916,142.984
-239.608,919.392,147.376
-231.068,943.792,146.888
-230.58,961.848,162.748
-243.268,974.536,153.476
-246.684,932.324,147.864
-228.628,917.196,139.08
-216.184,940.376,144.448
-220.088,955.016,160.796
-218.868,961.116,174.46
-225.7,961.116,174.46
-231.8,951.112,183.976
-233.264,953.308,187.636
-244.244,985.76,177.144
-246.44,1007.72,180.56
-244.732,962.824,186.172
-242.048,931.592,167.14
-221.552,935.496,163.48
-206.668,943.792,172.752
-205.204,963.312,171.288
-223.748,945.5,163.236
-226.432,903.532,162.504
-211.06,862.296,154.452
-194.956,920.856,138.104
-208.132,986.248,153.964
-239.608,975.512,163.724
-248.148,961.116,151.768
-238.632,918.904,141.52
-218.624,931.104,142.252
-208.62,931.104,139.812
-197.884,947.452,140.056
-201.3,955.748,145.912
-207.4,946.232,149.328
-198.616,917.196,146.156
-175.192,909.876,142.984
-165.92,916.952,132.248
-171.776,938.912,119.56
-189.344,931.592,124.44
-186.66,890.112,121.756
-167.872,854.976,116.388
-118.828,817.644,98.82
-45.14,829.112,83.936
69.784,877.668,75.884
165.188,1002.596,22.936
228.384,1062.864,-55.388
250.344,1154.364,-117.852
291.092,1125.328,-26.352
270.596,951.844,-76.128
247.904,793.976,-75.64
183.488,634.644,-99.308
410.164,694.668,-169.824
654.896,584.868,-187.392
1062.864,569.252,-244.976
1532.076,741.516,-371.368
1145.58,623.42,-297.924
724.192,349.164,-288.164
611.708,-73.444,-119.316
868.884,-477.508,-130.052
1366.4,-437.004,-184.952
1262.212,-426.512,-120.536
1206.58,-340.624,-172.508
1378.6,-166.408,-263.276
1550.376,-141.032,-249.368
1765.828,-230.58,-188.368
1846.836,-205.936,-246.684
2000.556,-117.12,-361.364
2128.656,-30.5,-417.728
2265.784,35.38,-482.388
2375.828,-24.4,-526.064
2348.744,-258.884,-491.66
2093.52,-496.296,-457.744
2006.412,-684.176,-474.58
1891.0,-859.124,-394.548
1541.836,-1018.212,-299.144
1274.656,-1022.36,-295.484
1165.588,-879.864,-278.892
996.984,-718.58,-267.424
843.996,-544.364,-311.832
752.252,-406.016,-320.616
619.76,-391.62,-255.224
457.256,-471.408,-180.56
261.08,-490.684,-186.416
159.576,-472.872,-115.656
10.004,-489.708,-48.8
-141.032,-332.084,-9.516
-198.128,-240.34,8.296
-76.372,-24.156,-130.54
-129.076,86.376,-208.864
-89.06,127.612,-241.072
-53.436,142.252,-285.236
208.376,347.456,-536.312
436.028,659.044,-747.128
454.084,830.332,-749.324
404.796,850.828,-667.096
366.0,768.844,-599.752
483.364,597.8,-541.924
484.828,355.752,-448.96
488.976,104.432,-332.084
470.432,-102.236,-210.328
473.36,-182.268,-96.868
370.636,-208.376,53.192
355.996,-214.476,203.252
291.824,-278.16,360.144
327.692,-339.16,501.908
390.644,-525.82,701.988
470.92,-681.004,859.368
586.088,-834.968,988.444
683.688,-1040.416,1120.936
825.208,-1165.344,1174.128
968.924,-1159.488,1145.58
1034.072,-1073.356,1138.016
1077.504,-1081.896,1095.316
1168.028,-1092.144,973.804
1249.524,-1106.052,856.196
1325.652,-1090.924,684.664
1457.656,-1057.74,465.308
1518.412,-991.86,287.92
1405.928,-952.576,175.68
1375.672,-876.692,15.372
1271.728,-803.248,-68.076
1162.904,-795.44,-113.948
1236.592,-716.384,-278.404
1318.82,-613.66,-472.14
1238.788,-519.72,-579.256
1242.204,-413.336,-667.096
1191.94,-313.784,-691.984
1086.776,-245.952,-680.272
1041.88,-151.768,-653.432
946.72,-110.044,-603.412
815.692,-92.476,-467.26
711.748,-53.68,-376.248
709.552,46.36,-359.412
795.928,162.748,-317.444
728.828,256.2,-269.376
576.572,368.928,-196.176
498.492,485.804,-195.688
714.676,661.972,-219.844
852.78,705.16,-176.656
769.332,796.904,-101.016
602.924,724.436,-125.416
441.152,779.58,-161.284
396.988,841.068,-148.352
544.12,1099.22,-51.728
589.26,1152.656,66.856
519.72,1065.304,165.676
333.548,921.588,152.256
257.176,1114.104,59.048
206.424,1294.42,79.056
124.196,1217.316,125.66
114.924,1201.456,139.08
45.872,1114.592,112.728
-24.156,1030.412,93.696
-84.18,989.908,102.968
-99.064,986.98,119.56
-34.404,996.74,154.696
-2.44,972.34,165.188
-32.452,1030.412,142.008
-93.452,1092.144,118.34
-104.432,1097.756,105.896
-77.104,1077.748,85.644
-61.732,1087.996,46.116
-62.708,1112.396,29.036
-92.964,1125.328,21.96
-118.584,1087.508,9.272
-115.9,1067.988,0.488
-99.064,1026.752,4.636
-82.716,987.468,9.028
-100.284,958.432,7.808
-91.012,916.708,16.592
-63.684,914.024,32.696
-37.332,902.068,47.092
-39.284,898.896,44.896
-37.332,896.944,36.844
-38.552,912.56,30.5
-34.892,896.7,35.38
-28.792,875.716,53.192
-82.716,826.672,31.964
-77.348,842.044,22.448
-94.916,876.936,21.716
-103.456,872.3,22.204
-80.032,853.756,22.204
-68.564,860.1,10.004
-82.228,900.848,-0.976
-99.796,895.48,4.88
-123.22,876.204,2.196
-126.88,904.508,-14.64
-167.872,947.94,-32.94
-201.3,969.168,-42.944
-153.232,955.016,1.464
-127.124,945.744,22.692
-182.512,968.924,14.64
-217.404,1011.38,-7.32
-211.548,999.912,27.572
-189.832,938.912,60.512
-167.14,910.608,89.548
-158.6,961.36,73.444
-190.076,984.784,32.94
-200.08,1005.768,19.032
-186.172,1025.044,69.54
-207.156,990.64,86.132
-204.96,967.46,78.324
-227.652,1034.804,50.752
-216.672,1091.412,22.204
-208.132,1023.092,39.772
-221.552,946.964,44.896
-248.392,977.708,25.132
-246.196,1039.44,16.348
-222.04,1038.952,37.088
-178.608,1003.328,60.512
-147.62,987.712,48.556
-165.676,1016.016,27.816
-225.944,1059.448,12.932
-275.476,1129.232,0.244
-295.24,1128.5,22.692
-270.84,1058.96,78.812
-231.556,997.716,112.24
-233.264,997.472,117.364
-269.132,1022.116,144.692
-299.144,999.424,172.996
-299.876,986.492,175.68
-313.784,988.444,165.432
-331.352,985.516,152.744
-335.744,982.1,147.376
-336.964,952.332,142.984
-334.524,927.444,129.076
-331.352,968.924,89.548
-336.964,1004.548,78.812
-320.372,944.768,88.084
-268.644,960.384,80.032
-230.092,933.3,85.888
-198.616,938.912,88.328
-196.664,1004.792,76.616
-222.772,1024.068,88.816
-214.72,986.98,94.184
-175.924,967.46,89.792
-162.992,971.364,78.08
-177.876,1001.864,70.028
-182.024,959.164,89.304
-169.092,900.116,91.5
-149.572,875.716,76.86
-143.472,878.156,81.74
-162.504,864.98,97.844
-185.44,868.884,107.116
-181.78,886.94,98.088
-196.908,982.588,71.736
-234.484,1007.232,77.104
-248.148,1009.184,75.152
-243.024,989.664,64.66
-206.912,936.228,63.196
-181.78,965.996,57.34
-179.096,944.524,77.104
-183.732,987.712,74.908
-209.84,959.896,83.448
-233.508,952.088,76.616
-247.172,972.34,72.956
-244.488,990.64,88.572
-243.268,1003.328,91.988
-247.416,1013.088,85.888
-233.752,981.368,85.644
-207.888,955.992,83.448
-189.1,955.748,79.544
-191.784,952.332,84.424
-183.244,953.796,80.032
-172.264,904.264,81.252
-149.084,868.152,79.544
-108.092,864.736,69.296
-74.42,874.252,76.372
-12.932,874.008,75.152
90.036,874.984,79.788
137.128,912.804,49.776
171.532,881.572,28.548
157.38,799.1,-23.18
233.508,800.32,-122.976
481.656,885.232,-143.716
548.756,960.872,-146.888
517.524,964.532,-143.228
608.292,764.94,-159.332
1071.892,564.86,-351.116
1127.036,313.052,-150.304
897.432,24.156,-92.72
549.732,-239.364,-200.08
483.852,-383.568,-134.2
854.488,-295.972,-139.324
1281.976,-126.148,-174.948
1479.616,-194.468,-177.388
1418.372,-354.288,-227.408
1403.976,-296.46,-317.688
1354.2,-365.024,-300.852
1411.784,-558.028,-251.808
1586.976,-697.84,-240.34
1851.96,-712.724,-300.364
2046.428,-688.812,-419.436
2130.12,-669.536,-508.008
2246.02,-652.7,-558.272
2333.86,-679.54,-536.556
2267.736,-768.112,-481.656
2120.848,-908.9,-417.972
1829.512,-1053.836,-297.192
1565.504,-1073.6,-237.168
1429.352,-1023.824,-190.564
1384.212,-941.84,-192.516
1274.9,-884.744,-232.776
994.3,-801.296,-266.692
640.5,-695.644,-223.016
404.552,-628.788,-178.364
269.376,-597.8,-162.992
194.956,-543.144,-150.06
136.152,-507.276,-160.796
103.212,-475.556,-167.14
104.188,-400.404,-250.588
59.048,-256.2,-338.184
74.664,-108.336,-389.912
110.776,29.524,-498.98
67.588,125.416,-562.42
-9.028,252.052,-616.344
9.76,430.904,-710.284
102.724,591.7,-723.46
178.852,698.572,-670.512
135.176,655.628,-561.932
80.764,550.22,-407.236
41.968,413.092,-267.912
-47.336,229.848,-104.676
-40.504,52.948,51.728
222.772,-33.428,168.36
290.848,-156.404,299.876
290.604,-224.968,507.032
380.152,-305.976,705.16
459.208,-410.896,873.032
638.304,-467.992,996.252
895.968,-591.456,1067.5
945.5,-684.908,1139.724
1050.908,-687.836,1212.924
1254.892,-630.984,1130.452
1431.792,-609.512,1040.416
1519.876,-540.704,970.632
1370.792,-518.5,905.728
1274.168,-505.812,827.16
1365.18,-467.504,648.308
1493.524,-428.708,441.64
1566.236,-413.58,265.228
1528.66,-504.348,149.572
1560.624,-589.016,-20.74
1686.284,-558.272,-232.288
1769.732,-448.228,-378.688
1623.82,-404.552,-442.128
1445.456,-395.768,-441.884
1268.556,-426.512,-440.176
1175.836,-369.66,-482.388
1090.436,-241.804,-522.16
910.12,-137.616,-505.08
726.144,-16.104,-499.712
679.052,130.052,-500.2
849.364,264.252,-511.424
683.932,343.308,-488.976
605.12,562.908,-418.216
626.836,733.952,-297.924
557.784,659.776,-244.0
528.748,553.392,-225.7
488.732,621.712,-258.396
537.288,977.952,-196.42
624.884,1260.26,-20.496
683.688,1161.684,42.7
303.048,748.592,-77.592
21.716,597.556,-153.72
84.912,938.18,-40.992
137.128,1178.52,71.248
77.592,1154.608,115.656
-48.068,1107.028,121.024
-50.508,1106.54,86.62
-102.48,1175.836,107.848
-230.824,1174.616,83.936
-281.82,1062.376,65.636
-253.272,1009.184,74.908
-247.904,983.32,52.216
-271.572,1015.284,51.972
-294.02,1047.736,63.44
-294.264,1045.784,58.56
-248.636,994.3,48.556
-170.556,1001.864,47.336
-133.224,1066.524,62.708
-164.212,1111.664,70.028
-172.508,1096.536,62.952
-162.016,1029.192,44.652
-167.14,992.104,31.232
-168.848,1014.308,43.676
-193.736,1056.52,50.996
-174.948,1040.66,56.608
-135.664,1036.512,60.268
-113.704,987.712,58.804
-126.148,987.224,57.584
-125.66,1011.136,62.464
-126.392,975.512,55.388
-101.992,966.728,52.216
-97.112,965.264,52.948
-115.412,954.04,48.556
-108.092,938.18,46.36
-101.016,959.652,49.288
-106.384,923.54,39.528
-115.9,906.216,45.872
-150.06,878.4,37.82
-152.012,848.632,44.164
-137.86,802.76,44.896
-103.7,766.16,50.752
-78.568,776.408,50.996
-81.008,851.56,56.608
-81.008,841.068,62.952
-56.608,804.468,61.976
-44.408,784.46,43.92
-38.064,812.032,48.8
-57.828,845.948,43.92
-48.8,834.236,44.652
-38.308,826.184,33.672
-21.472,862.54,28.548
4.636,890.112,48.312
27.816,888.404,67.1
-5.368,842.776,55.388
-25.376,839.36,46.36
-12.932,851.316,46.36
-24.888,906.948,49.288
-80.764,951.844,35.38
-86.132,975.756,25.376
-19.764,950.868,32.452
17.08,920.856,32.452
0.488,923.052,28.304
4.88,988.2,19.764
-11.712,1054.324,-5.124
-11.712,1134.844,-2.928
-4.636,1101.66,30.988
45.628,1038.464,14.152
89.06,1114.592,28.792
44.652,1149.728,49.532
-14.396,1147.532,7.076
-76.616,1172.176,-9.272
-123.708,1128.012,-15.128
-121.512,1174.616,8.296
-114.924,1184.132,38.308
-145.912,1219.024,31.232
-200.324,1254.892,5.124
-221.308,1214.876,22.692
-241.072,1192.428,33.184
-246.196,1148.508,33.916
-204.472,1109.224,57.584
-153.964,1092.876,74.42
-115.412,1064.328,102.236
-109.312,1071.648,102.48
-154.208,1119.472,75.152
-213.256,1098.976,45.14
-238.144,1031.876,27.328
-254.98,981.612,17.568
-247.172,963.312,28.304
-230.824,986.98,42.212
-233.264,1007.476,41.236
-241.804,996.252,29.768
-225.456,964.288,25.132
-211.792,970.388,22.692
-200.812,968.436,31.232
-172.996,965.02,32.452
-136.64,950.136,37.576
-121.512,915.976,38.796
-139.812,922.808,33.428
-154.452,931.104,32.94
-152.012,951.844,28.548
-149.816,963.556,35.38
-151.036,953.796,47.092
-139.568,955.504,48.068
-150.548,953.552,39.528
-155.428,964.044,26.596
-150.548,966.972,25.132
-147.864,964.044,26.352
-133.468,932.08,33.184
-116.876,923.784,33.916
-116.144,946.476,42.7
-136.884,966.484,51.972
-157.136,971.364,44.896
-158.844,981.124,40.016
-151.036,976.244,43.188
-151.524,995.276,45.628
-145.668,997.716,49.776
-148.596,1004.304,47.336
-160.064,996.252,42.456
-169.58,984.052,46.604
-171.288,975.268,39.284
-159.332,967.216,44.652
-151.036,966.484,52.704
-154.696,981.124,52.46
-160.796,1012.112,50.752
-170.068,1015.772,45.872
-166.164,996.252,37.576
-145.18,969.656,32.696
-134.2,964.776,38.064
-132.98,959.652,40.26
-128.1,960.384,36.112
-142.008,955.992,38.552
-152.256,932.812,50.752
-152.744,951.6,58.56
-168.848,982.344,62.708
-182.268,1007.72,62.22
-194.712,1021.14,48.8
-195.688,988.932,40.992
-183.244,971.12,35.868
-159.332,966.728,45.14
-146.4,1007.964,46.848
-148.108,1032.12,46.116
-157.868,1005.768,40.016
-164.212,961.36,20.984
-122.732,937.692,21.716
-37.576,905.972,41.236
85.888,862.052,48.556
202.52,848.144,34.404
313.54,902.556,12.2
414.068,1084.824,-25.376
442.128,1193.16,-57.584
387.228,1058.96,-103.7
338.916,849.12,-114.192
385.032,724.68,-131.028
427.488,641.232,-55.144
472.384,574.62,-39.772
561.688,472.628,-142.008
1133.624,456.524,-448.96
1465.464,447.74,-366.488
1408.368,186.172,-88.816
990.884,-236.924,-1.708
477.508,-594.384,-60.512
585.6,-625.372,-11.224
847.412,-565.348,9.028
882.792,-556.564,30.744
1074.82,-512.156,16.104
1209.02,-396.5,-74.908
1229.272,-351.848,-78.812
1244.4,-525.332,-78.812
1364.204,-664.9,-52.46
1604.544,-698.084,-117.364
1772.172,-590.236,-211.06
2037.888,-482.388,-254.492
2438.292,-418.948,-343.552
2714.256,-500.444,-417.24
2633.004,-715.652,-366.244
2365.336,-929.152,-267.18
2057.164,-1153.144,-189.1
1819.508,-1321.748,-94.184
1562.332,-1495.964,-46.604
1265.14,-1554.524,-44.652
932.568,-1453.508,-72.224
739.564,-1204.384,-130.784
630.008,-933.3,-186.416
351.848,-749.324,-171.044
86.376,-637.084,-151.28
-59.536,-557.052,-103.212
-236.924,-478.484,-30.744
-373.808,-343.308,-0.732
-356.972,-223.016,-19.764
-286.7,-135.908,-100.284
-175.68,-87.596,-226.92
37.82,0.0,-409.188
131.272,132.736,-526.552
234.972,345.016,-708.82
378.688,490.684,-823.012
475.556,586.088,-880.352
518.988,642.696,-893.284
479.46,571.692,-774.456
450.668,415.044,-611.22
375.272,213.988,-465.308
340.136,69.784,-312.808
320.616,-29.28,-134.688
188.368,-83.692,27.084
171.288,-104.92,169.58
246.44,-141.276,323.056
282.308,-157.136,492.636
376.248,-128.588,618.784
525.332,-149.084,679.296
578.28,-294.752,790.316
693.692,-525.088,901.336
809.592,-796.904,975.756
967.216,-948.184,978.928
1107.272,-899.628,955.748
1134.356,-876.448,983.564
1177.788,-869.128,993.324
1242.936,-896.456,934.032
1276.12,-948.672,815.936
1337.12,-951.6,663.924
1393.24,-909.388,538.996
1438.136,-862.54,423.584
1481.568,-841.312,242.292
1468.148,-835.944,120.048
1374.696,-849.12,29.768
1404.952,-849.12,-96.624
1525.244,-803.98,-276.452
1533.784,-739.808,-377.956
1389.58,-656.116,-401.624
1229.272,-570.716,-418.46
1147.532,-499.224,-439.932
1125.084,-423.828,-473.36
1154.852,-304.024,-536.8
1005.036,-197.396,-540.216
844.972,-120.536,-483.12
779.092,-60.024,-429.928
690.032,-51.972,-345.748
668.316,-8.54,-275.232
705.892,55.144,-232.776
752.74,183.0,-216.672
729.56,352.824,-209.84
574.376,479.704,-249.368
580.964,704.184,-344.04
730.292,950.868,-331.84
766.16,1068.232,-181.78
761.28,1124.108,-46.604
651.968,947.696,-69.052
351.848,857.66,-152.988
466.284,1140.944,-37.088
498.98,1186.084,100.772
329.644,1036.024,155.916
268.888,993.568,193.248
232.288,1044.076,203.496
72.712,1111.176,206.912
-81.74,1106.052,192.272
-134.444,997.228,174.948
-117.12,979.904,168.604
-68.076,1020.652,152.744
-75.396,1078.48,154.696
-78.568,1088.972,159.088
-69.54,994.056,163.968
-45.628,931.836,144.448
-20.008,1027.728,120.536
-96.136,1059.204,126.148
-70.76,1008.94,128.832
-36.356,983.564,120.536
-55.876,989.176,99.064
-50.508,989.176,111.508
-41.48,983.32,115.168
-46.116,986.98,98.332
-49.044,978.928,94.672
-51.728,935.252,97.356
-45.384,893.04,91.5
-51.484,896.944,90.036
-73.444,949.892,87.84
-68.808,957.944,89.304
-52.216,953.796,97.112
-29.524,919.392,96.624
-23.18,914.756,100.772
-21.96,932.324,104.188
-45.628,932.324,108.824
-44.408,924.76,102.48
-35.136,910.608,92.72
-1.22,907.924,92.964
29.036,875.96,90.768
22.448,830.088,73.688
43.92,818.864,69.052
82.716,777.384,74.176
99.796,762.5,75.64
91.5,796.172,69.784
82.96,823.5,86.132
45.872,806.908,84.424
-28.06,809.836,48.068
-49.044,846.436,46.604
-53.924,857.904,73.444
-59.78,874.74,85.888
-56.12,918.416,117.364
-86.376,918.172,136.396
-162.504,897.188,117.852
-231.556,896.944,84.424
-245.708,880.352,84.912
-238.876,878.888,99.308
-243.512,961.604,111.996
-229.116,1055.544,124.684
-229.116,1136.308,125.66
-231.312,1122.644,129.076
-255.712,1053.348,116.632
-276.696,1002.84,97.356
-274.256,966.24,83.692
-252.784,960.872,94.184
-199.104,966.484,109.556
-141.032,1003.572,112.24
-152.256,1063.596,104.188
-159.088,1062.62,103.7
-158.6,1080.432,106.628
-175.68,1122.888,115.656
-168.604,1142.408,129.808
-156.404,1121.18,153.964
-183.732,1138.992,134.2
-265.228,1194.38,116.144
-308.904,1177.3,106.14
-296.46,1146.312,106.384
-253.028,1121.912,107.116
-230.824,1121.912,111.752
-245.22,1122.644,101.26
-261.324,1109.712,87.84
-239.852,1055.788,86.376
-211.548,1033.828,80.764
-184.952,1036.268,79.544
-171.532,1051.64,78.568
-173.728,1069.696,86.132
-149.816,1030.9,77.592
-120.536,1004.792,63.44
-99.796,983.076,48.312
-111.508,977.708,45.384
-129.076,978.44,48.068
-119.316,976.976,51.484
-95.892,939.644,54.168
-83.692,930.616,55.388
-95.648,934.764,61.0
-115.9,939.156,60.268
-144.936,973.316,62.22
-123.22,939.644,70.516
-103.212,947.94,74.42
-127.856,977.22,74.176
-135.42,982.344,92.72
-125.66,966.972,99.064
-116.876,932.812,88.084
-136.64,946.476,70.516
-144.936,956.48,78.08
-158.356,987.956,81.496
-159.088,1001.62,78.812
-151.768,978.44,71.004
-152.988,977.952,64.416
-177.632,991.86,64.172
-182.512,996.008,69.784
-162.992,981.124,71.248
-144.448,959.896,66.856
-152.988,958.676,62.952
-163.968,965.752,66.368
-162.992,956.968,65.392
-153.232,966.728,67.832
-154.452,962.824,67.588
-165.432,957.456,65.88
-175.436,959.896,61.976
-185.684,969.412,60.512
-186.66,964.044,66.612
-178.364,952.576,65.148
-176.168,954.04,63.44
-172.02,945.744,65.148
-160.552,931.592,63.44
-155.916,939.888,61.0
-142.496,915.732,61.976
-107.604,900.604,61.732
-78.568,933.788,44.652
-61.488,958.676,28.06
-42.456,965.508,22.204
63.684,917.196,29.036
261.324,1007.232,37.088
333.304,1081.652,90.036
387.228,1048.956,23.424
372.832,1082.628,-44.164
387.228,1097.268,-128.1
413.336,1050.42,-146.644
363.804,635.864,100.284
170.8,475.556,-48.8
145.424,249.124,-82.228
451.4,-85.888,-239.608
878.4,-265.96,-242.048
1155.096,-140.056,-261.08
1362.74,-121.512,-257.176
1463.512,-355.996,-250.344
1320.772,-586.332,-229.848
1086.288,-752.496,-188.124
1255.136,-741.76,-197.884
1518.9,-675.88,-232.288
1711.904,-781.776,-262.3
2000.068,-951.6,-298.9
2255.292,-1022.36,-365.756
2244.8,-1137.772,-394.548
2125.484,-1279.536,-358.192
2100.352,-1396.412,-329.4
2018.124,-1393.484,-364.536
1806.82,-1356.152,-387.96
1604.3,-1327.848,-375.76
1494.988,-1334.436,-332.816
1363.472,-1334.68,-307.196
1131.916,-1286.612,-290.116
911.096,-1107.028,-264.008
675.392,-931.836,-187.392
546.804,-823.5,-116.144
529.968,-744.932,-129.564
498.736,-721.752,-177.144
410.408,-735.66,-184.952
179.34,-728.584,-147.376
-33.428,-608.78,-104.676
-175.68,-474.824,-70.272
-140.056,-292.8,-168.36
-30.988,-134.932,-358.924
79.544,72.468,-537.776
29.524,243.024,-610.976
-11.224,342.088,-617.32
-77.592,506.544,-639.036
-103.212,709.796,-720.532
-28.06,863.76,-753.716
157.136,904.264,-750.544
315.004,748.836,-662.216
331.108,483.12,-496.784
271.328,207.888,-293.288
222.04,4.636,-89.548
328.912,-85.644,27.572
337.208,-118.34,116.144
317.688,-84.424,201.788
357.216,-57.096,315.492
393.816,-30.5,448.472
462.136,-171.532,581.208
516.304,-363.316,780.068
573.4,-533.14,973.804
616.588,-727.608,1119.472
663.436,-886.452,1235.616
717.604,-986.248,1336.876
976.244,-958.432,1337.364
1139.48,-986.004,1265.872
1280.024,-1026.264,1173.152
1338.34,-1025.288,1082.384
1211.704,-1023.824,977.952
1263.188,-1045.052,834.968
1432.036,-999.912,610.488
1442.284,-982.832,384.544
1547.692,-883.28,152.988
1575.508,-836.188,10.492
1501.088,-829.6,-90.28
1275.388,-844.728,-204.472
1326.384,-699.548,-340.868
1302.472,-608.292,-486.78
1446.188,-427.976,-555.1
1528.416,-308.904,-640.012
1154.852,-235.216,-693.448
929.396,10.492,-680.76
919.636,318.908,-671.976
899.384,373.076,-555.344
814.96,294.752,-370.148
670.512,168.604,-277.428
609.512,212.768,-275.476
581.696,374.784,-261.812
652.456,589.748,-221.552
741.028,807.64,-110.288
597.312,954.528,-116.144
411.14,949.892,-132.492
522.648,806.664,-103.212
345.26,753.228,-137.372
243.268,823.988,-62.708
139.812,923.052,-14.152
31.476,1007.476,-41.48
125.904,1204.872,8.296
202.032,1234.396,73.444
73.688,1251.232,100.772
-114.68,1193.16,133.712
-159.332,1078.724,122.976
-205.448,1076.284,59.536
-248.88,1121.18,27.084
-311.344,1098.0,13.176
-359.412,1074.088,6.1
-326.96,1057.984,11.712
-248.148,1009.916,30.988
-148.352,1084.336,61.0
-192.76,1177.3,66.612
-218.136,1115.324,48.8
-173.728,1089.46,36.844
-134.688,1047.248,22.448
-141.52,1137.528,32.208
-171.288,1138.26,38.796
-150.792,1050.42,34.404
-117.608,955.748,14.884
-110.776,901.824,13.664
-104.676,895.724,32.94
-109.556,918.416,49.044
-107.36,891.088,42.456
-46.604,835.212,38.552
5.124,799.832,38.796
51.728,781.288,46.116
65.88,785.436,51.728
41.724,779.824,44.896
6.588,736.392,34.404
-19.032,684.908,1.464
-35.868,663.436,-30.256
-54.656,704.672,-40.748
-46.36,760.06,-33.184
-20.252,817.644,-11.956
-13.908,887.672,-13.42
13.176,909.388,-6.344
32.696,925.248,5.856
21.472,948.428,1.464
-7.808,960.384,-7.564
-12.932,947.452,-18.544
8.052,945.744,-23.912
27.572,982.1,-18.544
24.4,1051.152,-33.428
-1.464,1142.408,-24.156
-10.98,1200.48,17.812
-58.072,1194.624,39.04
-104.432,1113.616,49.288
-137.616,1058.228,53.68
-164.7,1036.268,47.336
-243.024,1034.804,59.78
-326.96,1052.616,43.92
-375.028,1091.412,49.288
-371.124,1026.264,40.992
-367.22,993.812,41.724
-377.712,965.02,32.452
-400.892,932.08,28.06
-359.656,911.584,16.836
-289.14,942.816,13.42
-296.46,949.16,5.368
-336.476,957.944,-33.672
-350.384,1014.552,-37.576
-349.896,1053.592,-19.032
-368.196,1073.6,-11.712
-345.748,1117.276,-5.368
-282.308,1121.912,21.96
-244.244,1129.964,52.216
-264.74,1161.684,63.44
-289.384,1158.512,82.96
-304.268,1122.156,87.108
-284.26,1092.388,86.864
-271.572,1071.16,88.084
-275.232,1006.744,92.964
-292.312,989.176,82.472
-307.44,999.912,64.904
-281.82,956.48,84.912
-259.372,953.796,68.076
-257.176,979.904,39.772
-253.516,994.3,32.452
-244.976,1012.844,25.376
-225.212,1028.704,24.644
-214.232,1000.644,17.08
-211.548,935.74,15.128
-222.284,943.06,-3.172
-232.288,928.42,16.836
-238.632,956.724,17.812
-240.584,955.016,31.232
-235.46,933.544,35.38
-223.748,906.948,52.216
-207.644,879.864,68.32
-211.304,922.076,56.608
-219.844,931.592,62.708
-235.46,962.824,64.416
-234.484,923.296,74.42
-208.376,918.172,72.224
-202.52,949.404,61.732
-223.26,975.024,62.22
-231.068,950.136,76.616
-223.992,937.448,68.076
-232.776,933.056,63.44
-254.004,944.524,67.588
-261.812,928.176,78.08
-267.912,933.788,69.784
-274.988,943.792,72.956
-270.596,950.868,78.324
-245.22,931.104,90.28
-243.512,951.844,83.204
-246.684,936.716,90.28
-245.708,938.912,91.744
-285.968,1010.648,73.444
-302.804,1004.548,80.764
-281.332,995.764,80.276
-254.736,938.912,76.128
-235.216,919.148,69.296
-227.652,944.036,69.052
-244.732,948.916,75.64
-270.596,935.252,74.908
-284.016,924.028,69.784
-283.04,905.484,63.44
-268.888,916.464,55.632
-256.932,954.528,54.412
-259.616,956.724,60.756
-264.496,912.072,64.66
-253.272,860.344,64.172
-236.192,837.164,71.248
-224.968,823.012,80.032
-199.592,812.032,93.696
-147.376,852.292,91.744
-61.732,966.24,27.328
36.6,1052.372,50.264
109.312,1011.38,44.408
127.368,1034.804,-49.288
131.76,1128.256,-157.136
135.42,1105.808,-159.332
150.304,877.424,-155.184
195.688,679.052,-80.032
292.068,667.34,-5.612
412.116,739.808,-167.872
631.228,583.404,-484.828
645.136,289.14,-518.744
815.204,186.66,-429.196
1165.588,159.82,-579.012
1240.496,18.3,-610.0
1278.072,-355.508,-440.908
1274.168,-813.984,-280.844
1535.492,-1034.072,-349.164
1839.272,-1012.112,-504.348
2055.7,-909.388,-569.008
2216.74,-745.908,-695.644
2336.788,-615.124,-767.868
2192.096,-602.192,-709.552
1886.364,-718.336,-554.124
1558.672,-933.3,-414.8
1532.32,-1076.772,-345.26
1680.916,-1150.46,-422.852
1799.5,-1139.236,-551.44
1720.688,-1135.82,-596.092
1423.008,-1110.688,-505.812
1071.648,-1131.428,-373.076
765.184,-1108.004,-243.024
464.82,-1030.656,-144.204
309.88,-903.288,-141.764
220.82,-808.616,-126.392
148.352,-702.232,-91.988
96.868,-588.528,-117.852
39.772,-474.824,-152.744
31.232,-358.68,-204.472
28.792,-181.292,-294.508
10.248,-21.472,-419.924
-85.888,112.728,-474.336
-171.532,231.556,-512.888
-65.392,430.172,-637.084
69.54,641.232,-734.684
38.796,749.812,-739.32
-19.764,807.396,-708.576
72.956,799.832,-677.588
198.128,628.056,-580.232
297.192,483.608,-500.932
318.176,330.132,-404.308
294.996,154.452,-247.416
303.78,19.032,-46.36
235.948,-82.228,127.612
209.108,-145.18,274.744
192.76,-221.796,428.952
272.06,-307.684,562.664
506.056,-431.392,634.156
781.532,-567.788,676.856
789.096,-771.284,776.408
892.796,-814.228,887.428
994.544,-797.392,946.72
1004.06,-817.644,987.712
1054.568,-838.872,1017.48
1232.2,-820.328,982.832
1248.304,-909.632,869.86
1223.172,-962.336,773.724
1366.888,-947.208,632.448
1579.168,-923.54,442.128
1769.488,-799.344,203.008
1657.736,-695.4,96.868
1545.252,-589.748,40.26
1548.18,-593.896,-23.424
1568.92,-672.708,-119.56
1689.212,-666.852,-238.144
1733.62,-569.496,-321.836
1588.684,-478.484,-336.232
1380.064,-439.932,-268.156
1281.0,-466.528,-195.444
1247.572,-510.692,-215.452
1108.736,-491.172,-302.804
1007.72,-355.508,-345.26
945.256,-235.216,-312.564
705.648,-152.256,-291.58
559.492,33.184,-354.532
567.056,339.404,-436.76
575.596,508.496,-437.004
558.272,630.252,-379.664
431.392,670.756,-342.332
367.464,694.424,-345.992
551.684,846.68,-334.524
817.644,905.728,-318.176
670.268,905.24,-285.968
429.44,868.64,-265.228
295.484,997.472,-231.8
327.204,1170.468,-207.644
410.164,1205.116,-104.92
419.68,1132.404,-42.944
297.68,1089.216,-0.488
144.936,1066.036,6.1
-27.816,982.832,18.788
-177.388,888.404,11.468
-129.564,963.312,29.524
-70.516,1018.456,71.004
-47.58,1008.208,104.188
-35.38,1021.384,144.936
-69.052,1009.428,153.232
-52.46,1009.184,153.476
9.516,1026.752,187.148
65.636,1003.328,171.532
79.788,1109.712,168.604
58.56,1105.076,143.716
34.648,1095.316,132.004
48.556,1050.908,113.704
40.504,1091.656,89.06
44.164,1063.84,78.08
72.956,1108.492,66.612
48.8,1115.568,72.224
12.444,1011.136,75.152
15.372,975.512,70.516
32.452,949.648,67.344
35.624,981.856,54.168
4.88,1024.556,49.288
-22.448,1019.676,37.82
-30.012,1014.064,34.16
-40.26,968.436,18.788
-42.944,964.776,11.224
-36.356,979.904,9.028
-45.384,986.004,22.204
-32.696,954.528,19.032
-55.388,967.216,14.396
-63.196,904.996,15.128
-61.0,877.424,11.956
-84.424,893.772,3.904
-85.644,901.092,1.464
-92.476,950.136,-8.052
-118.34,970.144,-17.568
-101.016,987.224,-16.592
-76.616,986.492,-22.936
-54.168,991.128,-26.352
-50.752,1044.564,-31.232
-77.836,1083.36,-27.816
-98.088,1042.612,-16.836
-71.004,996.74,-11.712
-47.092,972.828,-9.272
-52.216,964.044,-1.464
-61.488,988.444,2.928
-79.3,985.028,10.736
-85.156,990.152,11.224
-46.848,992.348,20.74
0.488,990.64,22.448
7.564,1013.82,24.644
-0.976,1029.192,31.232
-25.376,1045.052,34.16
-40.016,1030.168,37.332
-49.532,1010.892,48.556
-28.304,973.316,51.972
-18.788,954.528,56.12
-15.128,968.192,62.22
-36.6,968.192,74.664
-26.84,980.88,75.396
-20.984,993.812,72.956
-12.688,996.984,62.464
-7.32,1014.796,58.072
-13.908,1025.288,52.704
-24.4,1006.5,52.46
-20.984,994.788,52.948
-5.856,1006.744,51.972
-0.244,1017.968,54.656
-13.908,1025.776,54.412
-30.256,1004.792,55.388
-31.964,974.292,59.536
-23.18,946.232,60.756
-19.276,935.984,67.832
-19.032,929.396,73.932
-29.036,923.296,74.908
-18.544,908.656,70.516
-5.124,891.576,73.2
-0.732,890.844,67.1
-5.368,899.14,61.244
-2.684,883.768,63.196
-10.004,834.236,65.392
-20.008,793.244,55.876
-40.748,781.776,39.772
-77.348,757.62,28.06
-75.396,762.256,29.036
-48.8,770.796,38.064
-19.276,775.188,43.92
-8.784,782.264,38.552
-36.356,775.188,27.084
-70.76,786.168,16.592
-55.144,814.96,26.84
-84.424,867.664,29.28
-157.624,901.092,24.156
-145.424,890.844,29.524
-71.492,872.3,42.212
2.196,941.84,53.68
26.596,1016.26,74.42
-8.296,1037.732,71.248
-17.08,1036.512,85.644
3.904,1023.092,99.552
2.684,1043.832,113.948
-9.516,1122.156,124.196
-0.488,1146.312,127.856
-1.464,1119.228,138.104
-88.328,1115.08,107.116
-200.08,1162.416,66.856
-249.612,1119.96,51.484
-188.124,1078.968,65.148
-160.308,1136.064,92.476
-148.108,1158.756,94.916
-180.072,1140.456,95.648
-234.24,1132.16,69.052
-236.192,1108.736,66.124
-217.404,1109.712,77.348
-202.52,1133.136,92.964
-220.576,1148.752,82.228
-239.608,1134.6,83.936
-241.316,1100.684,105.164
-216.428,1061.644,134.2
-205.448,1052.616,138.104
-214.232,1071.648,151.036
-220.332,1050.664,163.236
-238.632,1066.768,176.168
-266.204,1039.44,167.628
-268.4,1010.648,154.94
-269.132,1023.092,131.028
-241.804,994.788,137.372
-196.176,978.684,131.028
-163.724,983.564,127.368
-162.992,955.992,114.192
-167.14,938.18,108.336
-168.604,930.616,97.356
-147.62,925.736,102.48
-139.568,939.4,102.724
-137.372,935.74,120.292
-121.268,899.14,128.588
-86.132,893.04,122.488
-71.248,908.168,109.068
-60.512,905.728,111.02
4.636,828.136,114.68
114.436,760.304,97.6
192.028,768.844,50.264
241.316,969.168,-18.544
290.848,1053.592,-28.304
297.924,1012.844,-1.22
307.928,1021.872,-64.172
409.188,986.98,-77.592
496.052,920.856,-76.128
415.288,767.38,-59.536
585.112,622.444,-342.576
726.876,648.796,-341.6
887.428,409.188,-200.08
1016.016,-94.672,-167.14
994.788,-309.88,-137.128
952.576,-375.028,-211.304
1034.56,-456.036,-356.484
1423.984,-327.692,-410.652
1702.632,-492.148,-336.72
1845.128,-591.456,-406.748
1984.94,-617.32,-537.532
2042.036,-722.972,-590.236
2026.664,-770.552,-565.592
2016.416,-802.272,-530.456
2022.516,-794.22,-478.484
1978.596,-904.508,-438.224
1808.04,-1039.44,-445.544
1637.728,-1068.476,-427.488
1522.804,-1012.844,-369.66
1423.008,-982.832,-306.22
1314.428,-994.056,-320.128
1203.164,-960.384,-325.496
1073.6,-877.424,-297.436
839.116,-841.556,-231.068
552.172,-817.644,-180.072
351.36,-791.536,-125.904
144.204,-758.108,-62.708
22.448,-641.964,-58.804
-93.208,-527.772,-131.028
-196.664,-325.74,-246.928
-293.776,-156.16,-331.596
-167.872,-40.748,-437.492
47.58,172.02,-626.348
41.724,398.208,-816.18
64.66,659.532,-919.88
194.224,805.2,-932.324
258.884,807.884,-800.32
262.788,648.552,-637.084
190.808,419.924,-446.52
126.392,196.176,-287.92
172.752,150.06,-148.84
247.904,130.052,-31.232
207.644,69.54,115.412
149.816,-55.144,265.228
217.648,-202.032,422.12
362.34,-312.808,571.936
498.98,-414.068,714.676
605.12,-500.932,835.212
825.94,-523.624,916.952
1031.144,-470.676,999.668
1041.636,-533.872,1077.504
1043.832,-629.52,1129.476
1102.148,-689.3,1114.592
1201.212,-609.756,1007.964
1340.048,-470.432,861.32
1511.092,-379.664,724.924
1632.116,-402.112,565.836
1682.624,-455.304,406.992
1738.744,-464.088,264.496
1771.928,-496.052,139.812
1642.608,-627.324,9.76
1600.396,-656.36,-109.068
1647.976,-578.768,-280.356
1541.836,-507.52,-447.496
1427.4,-334.524,-584.136
1330.288,-126.88,-684.42
1217.316,35.624,-720.532
1019.92,132.004,-716.872
832.04,158.356,-699.06
848.632,238.876,-638.548
885.476,329.888,-504.836
771.528,367.22,-366.488
573.888,378.444,-391.132
478.728,438.468,-392.596
616.588,648.796,-363.072
771.528,832.284,-301.584
809.592,936.716,-234.728
662.46,799.1,-223.748
542.9,753.716,-222.284
512.156,966.24,-139.324
478.972,1153.388,-11.224
365.024,1093.852,0.488
230.58,908.168,-39.04
202.52,961.604,-22.448
-18.056,1025.532,-53.68
-124.196,1053.104,12.688
-131.272,933.788,-21.96
-76.372,978.928,-23.18
-64.904,1139.236,4.636
-103.944,1188.768,27.328
-149.572,1120.204,8.296
-171.288,1024.312,-24.4
-173.24,962.58,-47.336
-167.628,966.484,-33.428
-176.412,1045.296,-1.464
-172.752,1064.084,11.468
-138.104,959.896,-28.548
-97.6,894.504,-54.412
-64.66,942.084,-27.084
-64.172,984.052,6.1
-83.204,970.632,14.152
-57.096,932.08,-1.464
-21.96,935.74,23.424
-34.892,951.6,13.908
-90.768,1001.62,7.076
-127.124,1038.464,10.004
-111.02,1018.7,1.708
-105.896,961.116,-20.496
-107.116,958.676,-14.64
-74.908,935.008,0.244
-54.656,904.264,0.244
-52.216,904.264,8.54
-54.656,850.828,7.32
-25.132,805.2,15.616
17.812,804.956,25.376
56.852,847.9,42.456
56.852,881.816,53.436
27.572,846.68,18.3
-24.644,774.944,-4.392
-50.996,742.004,-8.54
-47.092,768.356,23.912
-2.928,765.672,37.576
41.968,795.928,68.564
-8.052,781.776,40.992
-94.184,687.592,-51.728
-128.832,776.652,-47.824
-63.196,879.864,-11.224
44.408,952.82,42.944
90.036,978.928,93.208
4.88,967.704,55.632
-116.388,923.052,-10.98
-142.496,878.888,-55.876
-98.332,920.124,-26.84
-3.416,977.22,25.376
33.184,983.32,79.544
-28.304,1001.864,84.424
-92.476,992.348,68.564
-138.592,993.568,34.16
-193.98,1023.58,64.66
-170.312,1017.968,84.912
-214.476,937.936,116.876
-253.516,879.864,81.984
-303.536,982.832,43.92
-352.092,1022.36,26.108
-314.516,1046.516,52.948
-257.42,1168.028,103.212
-226.432,1271.728,129.076
-217.16,1300.52,149.084
-271.816,1284.416,134.688
-348.676,1270.508,118.828
-393.084,1223.904,110.532
-366.488,1191.696,127.856
-309.88,1190.964,149.572
-303.292,1218.536,155.428
-313.296,1206.824,152.256
-330.62,1157.292,122.488
-340.38,1113.616,89.06
-324.764,1053.348,70.516
-294.508,1052.372,71.004
-286.212,1004.548,70.028
-301.34,973.56,60.024
-287.92,959.408,40.016
-244.976,953.064,48.312
-238.632,966.972,53.436
-237.168,933.544,37.088
-257.42,959.408,17.812
-232.776,946.964,19.276
-198.616,950.136,16.348
-175.192,961.36,24.888
-186.416,980.636,34.648
-197.152,980.148,41.236
-193.248,946.232,34.404
-200.08,957.7,33.916
-181.78,924.272,35.868
-178.364,949.404,38.552
-182.024,948.672,46.848
-181.292,918.416,41.724
-203.74,939.644,41.236
-216.672,926.712,60.024
-197.64,929.884,66.124
-166.896,905.484,61.244
-191.54,955.992,62.22
-209.352,984.784,76.128
-212.28,992.836,77.592
-203.252,985.76,75.64
-205.936,990.884,83.692
-219.6,1005.036,85.4
-233.752,1007.232,84.668
-240.096,992.348,81.984
-220.332,960.872,84.912
-195.932,917.928,85.888
-196.176,925.248,81.74
-211.304,938.424,91.012
-221.308,940.864,89.792
-219.356,917.928,83.204
-206.668,884.5,81.008
-204.716,901.092,77.592
-219.356,976.244,88.572
-214.72,985.272,92.232
-216.916,985.028,91.988
-206.668,943.06,88.328
-191.54,923.296,86.376
-206.668,963.556,83.448
-221.796,974.78,92.232
-219.844,955.992,86.62
-222.284,963.556,84.18
-225.456,962.824,91.744
-219.844,978.44,93.208
-227.652,977.22,84.912
-231.556,975.512,86.132
-210.572,940.864,87.84
-210.084,962.824,89.792
-224.968,967.704,97.112
-232.532,960.384,89.06
-219.6,969.412,90.28
-203.74,948.184,91.012
-189.588,941.352,88.816
-212.036,967.948,85.156
-235.704,977.708,91.5
-239.852,961.116,88.816
-222.04,941.108,90.036
-207.644,940.62,94.428
-209.108,925.736,95.16
-221.796,934.276,93.696
-232.044,948.184,97.6
-237.168,963.556,104.676
-237.656,963.556,104.432
-242.78,955.748,100.04
-233.508,940.864,99.552
-205.204,949.404,104.92
-201.3,952.82,91.5
-199.104,951.6,86.864
-156.16,964.532,84.424
-96.136,991.86,55.388
-18.3,1026.264,23.668
10.248,1003.572,46.848
68.32,972.096,40.26
91.256,964.776,-20.252
164.944,1014.064,-89.548
239.852,1037.732,-62.952
328.424,1044.076,-71.004
289.872,885.964,-91.256
394.792,758.108,-118.34
695.156,886.696,-175.924
788.12,833.26,-103.212
636.84,643.672,-19.52
582.428,424.072,-104.432
996.74,151.524,-270.596
1288.808,-39.284,-301.828
1118.496,-104.432,-187.636
918.66,-260.592,-176.9
799.588,-361.852,-61.976
1007.232,-343.308,12.444
1239.276,-436.76,-13.908
1209.264,-486.536,-78.812
1475.224,-447.008,-193.004
1667.496,-435.54,-262.544
1704.828,-469.456,-235.46
1734.596,-542.412,-223.992
1860.988,-587.796,-251.808
2036.912,-663.436,-285.968
2165.744,-745.42,-235.216
2084.736,-907.436,-193.248
2028.616,-1052.616,-145.18
1972.496,-1187.304,-101.748
1843.176,-1326.14,-92.476
1597.468,-1407.636,-111.264
1364.448,-1370.304,-122.488
1255.38,-1219.024,-111.508
1042.612,-1125.816,-128.588
726.388,-1038.708,-136.64
429.44,-965.02,-110.288
237.168,-903.776,-67.1
31.232,-843.752,-71.248
16.836,-647.332,-152.256
127.612,-410.652,-265.472
83.204,-297.924,-335.744
-76.616,-229.36,-408.7
-204.716,-44.896,-508.008
-258.396,168.604,-600.484
-128.832,379.42,-684.908
3.416,521.916,-773.48
-4.636,598.776,-790.804
34.404,657.092,-760.06
125.416,661.972,-719.556
291.58,594.14,-700.28
375.76,505.324,-614.392
369.66,420.656,-508.74
399.916,335.012,-351.116
359.656,149.084,-125.66
197.64,-34.16,54.656
162.016,-135.42,215.208
236.192,-132.004,381.86
294.02,-164.944,544.608
387.472,-148.352,718.336
374.54,-183.732,887.184
503.616,-258.64,1002.596
784.948,-419.68,1062.62
1029.68,-594.384,1078.48
1200.724,-706.624,1082.384
1373.964,-732.488,1096.048
1462.78,-735.416,1054.324
1470.832,-712.724,988.688
1448.872,-680.76,914.512
1413.004,-736.88,813.008
1317.6,-823.256,714.432
1342.244,-841.556,548.756
1407.88,-778.116,365.756
1459.364,-664.412,190.076
1409.588,-607.316,51.24
1310.768,-613.172,-80.52
1292.712,-560.224,-227.652
1307.84,-468.724,-406.992
1364.448,-312.808,-533.14
1367.132,-220.088,-558.76
1240.496,-298.9,-559.004
1041.636,-246.44,-613.416
897.92,-16.104,-602.924
684.908,223.26,-544.364
594.14,472.628,-513.864
545.828,580.476,-486.536
567.3,721.264,-429.928
566.568,819.352,-406.26
660.508,848.632,-456.036
786.168,1014.064,-481.9
727.364,1125.084,-353.556
612.44,1160.952,-206.18
577.06,1200.48,-107.36
541.924,1177.3,-39.772
374.54,1006.744,-72.468
188.368,1083.36,-21.228
169.092,1107.76,17.08
197.884,1057.74,37.332
177.632,959.896,36.844
104.432,898.164,32.696
87.108,925.492,38.796
76.616,944.036,60.756
44.652,1040.416,105.408
23.18,1058.472,89.792
28.304,1050.664,65.148
16.348,1049.2,59.292
30.988,1028.948,60.756
66.368,1021.384,73.688
78.568,1022.116,79.3
88.328,984.296,68.808
109.312,935.496,50.752
86.864,903.776,50.508
36.844,884.744,53.924
39.772,826.184,34.404
71.004,812.276,30.988
100.04,803.248,23.424
122.244,839.848,47.58
108.092,926.468,104.676
156.648,912.072,88.572
176.9,828.868,18.788
93.696,618.784,-70.516
-55.876,522.892,-101.26
-68.076,648.308,-47.58
66.612,758.84,-0.732
247.904,866.2,50.02
317.932,902.312,54.412
177.632,723.948,-80.276
9.028,756.644,-109.556
70.76,832.772,-82.716
226.92,869.372,-22.448
347.944,940.132,18.056
315.004,1016.016,29.28
206.18,963.312,-24.888
121.756,889.136,-68.32
148.352,914.024,-46.116
269.62,950.38,21.472
356.972,1005.28,63.928
381.372,1096.536,68.32
308.416,1140.944,70.76
225.7,1083.116,51.728
207.156,1029.924,43.188
220.576,1005.768,64.172
239.852,1031.388,86.864
230.824,1079.212,84.668
197.152,1113.128,96.868
174.704,1108.248,76.616
180.56,1115.568,53.192
149.328,1144.116,54.656
113.216,1116.544,54.412
91.5,1117.764,56.12
138.592,1128.5,76.86
249.124,1189.988,84.912
249.368,1271.484,80.032
192.028,1170.468,26.84
109.068,1067.5,-35.38
61.976,1098.0,-47.58
72.712,1191.208,-7.808
183.732,1176.324,25.62
245.952,1119.716,7.32
174.704,1056.276,-9.76
95.404,993.324,-43.432
41.968,987.956,-69.296
-11.956,1011.38,-64.416
17.568,1018.212,-59.292
72.712,1058.716,-39.528
102.724,1102.392,-18.544
82.96,1131.184,-7.564
89.548,1142.164,-8.052
104.432,1129.72,-3.904
94.916,1122.644,2.196
75.64,1098.976,-6.588
48.312,1054.08,-15.86
59.048,998.204,-27.328
79.3,962.824,-28.06
92.72,970.388,-21.96
95.892,988.932,-16.592
86.132,1004.304,-8.296
70.516,991.86,-14.152
67.588,973.072,-26.108
59.292,959.164,-20.252
58.56,964.532,-7.32
54.412,976.488,-3.66
50.02,981.856,-10.248
46.36,978.196,-15.128
56.12,947.208,-18.056
58.56,934.52,-15.86
23.424,958.676,-11.224
16.104,966.972,-7.076
37.82,963.068,-9.516
41.236,977.952,-5.368
35.136,987.468,0.976
26.84,964.044,-1.22
22.204,962.58,4.148
35.136,982.344,12.444
24.156,1007.232,32.208
25.376,997.716,26.596
-2.684,990.396,10.98
-32.94,997.228,11.224
-39.772,1005.28,12.2
-41.48,1023.58,17.812
-17.08,998.204,20.252
-1.22,968.68,25.376
-17.568,966.24,19.032
-38.552,1013.82,26.108
-43.188,1055.056,47.58
-9.76,1025.288,42.456
-6.1,982.1,29.524
-47.58,978.196,21.96
-67.832,1001.62,31.232
-51.484,989.664,39.528
-38.064,969.412,38.064
-12.932,961.116,36.112
-24.644,981.856,51.484
-39.772,980.148,45.384
-44.164,970.632,34.404
-44.408,960.14,25.864
-49.776,963.556,33.184
-49.288,974.292,40.748
-48.8,982.832,45.384
-27.084,995.032,44.408
-3.66,991.372,47.336
-31.476,970.876,33.916
-55.144,969.656,34.648
-41.724,955.016,30.012
-35.624,950.624,24.4
-49.288,979.172,30.256
-61.244,996.008,36.112
-70.028,1009.184,52.216
-57.34,995.52,45.872
-46.604,988.2,44.408
-57.096,988.444,43.188
-77.592,996.008,44.896
-61.244,990.152,42.212
-39.772,1000.156,43.676
-23.912,991.128,43.92
-17.568,985.516,42.7
-2.684,986.492,42.7
-0.244,984.052,36.6
-6.344,986.98,29.036
19.276,1008.452,23.18
70.272,1031.144,11.224
110.532,1011.868,-1.22
124.684,996.008,-4.392
162.504,1012.356,-28.792
231.556,1015.772,12.2
325.496,1012.356,-24.888
434.32,1005.524,-35.136
491.172,1062.132,-72.468
427.488,985.76,-129.076
432.856,848.632,-128.1
625.128,661.24,25.376
582.672,567.056,-186.904
460.428,441.64,-153.964
457.988,298.656,-97.844
761.524,-36.356,-177.632
1041.392,-283.528,-190.564
1169.736,-518.988,-125.416
1158.268,-538.02,-241.316
1168.272,-652.7,-375.028
1406.416,-561.444,-390.156
1769.976,-377.224,-349.652
1778.516,-516.792,-295.484
1335.412,-782.264,-290.116
1077.016,-715.896,-292.8
1029.924,-686.372,-237.9
1128.012,-732.488,-183.732
1282.708,-744.2,-177.632
1367.62,-836.676,-223.748
1440.82,-953.308,-255.468
1585.024,-1047.492,-227.164
1699.216,-1121.424,-179.34
1643.828,-1156.804,-143.716
1465.22,-1175.348,-118.34
1382.748,-1176.568,-94.428
1424.228,-1225.856,-102.968
1435.452,-1267.824,-150.06
1331.752,-1201.944,-200.08
1193.16,-1059.692,-221.796
1033.096,-926.224,-261.568
893.528,-775.432,-287.432
647.088,-703.208,-291.58
361.12,-663.436,-289.872
115.656,-620.248,-287.188
52.216,-461.892,-339.648
1.952,-234.972,-434.564
-28.304,-69.052,-516.548
27.816,46.36,-590.48
87.84,123.22,-644.404
94.184,184.708,-700.28
91.744,304.024,-720.532
149.328,417.484,-704.672
229.116,465.552,-665.876
215.696,440.42,-610.0
207.644,408.944,-554.856
249.368,329.156,-477.264
333.304,224.236,-394.06
393.084,124.684,-316.468
362.096,13.42,-207.156
221.796,-70.76,-30.5
173.972,-77.592,148.108
136.152,-95.404,325.008
205.204,-107.848,467.016
359.656,-182.268,584.136
603.9,-262.056,711.748
678.564,-462.868,817.4
725.412,-626.348,932.812
802.028,-786.656,1001.62
828.868,-809.104,1077.504
893.772,-739.564,1108.492
1062.132,-663.192,1086.776
1184.132,-691.984,1041.636
1137.772,-791.292,1015.528
1178.032,-836.432,982.1
1339.316,-922.076,887.916
1427.888,-961.848,738.344
1368.596,-951.844,626.348
1370.06,-968.924,481.656
1369.084,-991.616,316.468
1373.72,-951.112,146.156
1381.284,-836.676,-16.104
1320.284,-752.74,-117.12
1243.912,-732.976,-202.276
1188.768,-684.908,-254.248
1206.58,-565.348,-315.736
1242.692,-494.832,-407.236
1286.856,-419.924,-527.284
1309.548,-317.2,-598.532
1251.964,-216.672,-604.632
1155.096,-129.076,-574.62
1034.56,-31.964,-519.232
882.06,22.692,-416.996
748.592,-25.132,-281.088
792.268,-80.52,-200.324
943.06,-97.112,-180.56
757.864,-54.9,-207.156
513.62,115.412,-221.308
583.648,437.004,-241.804
654.652,668.56,-235.948
692.716,782.508,-210.816
688.324,844.484,-260.836
612.928,826.184,-212.768
593.164,886.94,-143.96
599.264,1008.696,-97.112
476.532,1030.168,-98.088
300.364,965.508,-115.168
241.072,1007.72,-81.74
195.444,1043.344,-20.496
149.084,1075.308,71.736
37.82,1066.768,146.888
-76.128,1001.132,96.868
-120.048,1045.784,85.644
-108.092,1076.772,95.892
-105.896,1050.42,108.58
-75.64,1031.632,106.14
-73.2,1030.9,111.752
-150.548,1057.008,103.7
-190.808,1092.388,114.68
-132.98,1057.74,83.692
-87.108,1027.972,60.512
-116.144,1047.98,56.608
-125.904,1064.816,66.124
-133.712,1080.92,64.904
-109.556,1065.304,51.728
-47.092,1046.028,44.164
2.44,1047.98,51.24
22.692,1036.024,53.924
-43.92,1074.576,73.2
-68.808,1061.644,75.152
-33.916,1020.408,50.02
-0.732,955.992,23.668
18.788,943.06,29.28
3.904,954.284,46.848
-16.348,961.604,58.804
-20.984,968.192,67.832
-20.74,939.644,54.168
-19.764,926.224,38.796
-35.38,937.692,31.232
-52.216,1001.376,49.532
-74.42,1045.54,60.756
-65.148,1045.052,69.296
-23.668,987.956,40.016
3.416,946.964,27.816
-8.052,970.144,52.704
-42.7,995.764,72.712
-66.368,1022.604,79.544
-27.328,994.788,69.54
11.468,920.124,28.792
2.928,897.676,31.964
-15.372,908.656,51.24
-55.632,937.448,70.76
-35.38,941.108,76.128
-10.492,897.188,61.732
-0.976,832.772,8.052
8.052,837.164,0.732
5.124,889.624,39.04
-5.124,915.244,70.76
-7.076,848.632,45.872
-34.648,808.128,33.916
-60.512,819.352,33.672
-56.12,853.024,54.168
-20.008,903.044,77.592
-46.848,929.884,101.26
-63.684,883.524,62.952
-37.576,880.108,69.296
-14.64,915.732,89.792
-1.708,917.684,85.644
-33.916,955.26,103.212
-78.812,993.568,118.096
-110.776,970.144,110.776
-113.948,921.344,87.84
-116.144,910.364,88.572
-137.128,936.716,100.772
-144.692,960.384,95.648
-93.696,973.56,85.156
-59.048,984.784,92.964
-94.428,973.316,93.208
-184.464,951.356,84.912
-227.408,929.396,70.272
-178.608,898.896,44.408
-124.928,904.508,34.648
-101.748,958.432,52.948
-154.94,1071.16,116.632
-201.3,1148.02,140.3
-200.324,1198.772,148.108
-163.236,1200.236,165.676
-152.988,1173.152,155.916
-193.248,1137.772,138.592
-288.652,1168.76,101.016
-357.948,1124.84,66.124
-376.736,1139.968,48.8
-346.236,1197.552,85.644
-291.824,1238.056,131.272
-240.096,1222.44,153.72
-217.404,1139.724,123.708
-220.82,1075.308,101.504
-249.612,1056.276,100.772
-243.268,1044.808,93.208
-207.644,1039.928,90.036
-174.216,1024.068,88.328
-143.472,1017.968,88.572
-137.86,1016.748,111.996
-131.516,1015.04,117.608
-120.048,981.124,111.996
-136.64,964.776,102.968
-127.612,936.228,95.16
-122.0,913.536,97.6
-123.464,931.836,101.748
-160.308,960.384,115.9
-152.5,930.86,106.872
-129.808,915.244,113.216
-98.82,882.06,106.872
-124.928,889.624,112.728
-169.824,914.024,116.144
-172.996,932.812,114.68
-152.256,941.84,109.556
-139.08,936.472,115.168
-151.28,949.16,117.364
-162.26,967.704,125.416
-159.82,966.972,124.196
-162.992,970.144,121.268
-161.772,955.748,113.948
-177.388,942.328,114.192
-182.024,953.064,118.584
-174.46,960.14,124.196
-175.68,963.312,120.78
-180.072,974.048,120.536
-198.86,982.832,116.876
-199.592,976.0,122.976
-188.612,958.676,121.512
-174.948,950.38,110.532
-186.172,968.924,122.732
-192.76,969.9,120.048
-195.688,961.604,110.288
-193.492,953.796,102.48
-189.344,961.116,106.14
-182.756,974.536,113.948
-179.828,997.228,112.24
-181.78,986.248,109.8
-160.796,956.724,93.452
-170.8,958.92,102.724
-187.88,987.468,113.216
-172.752,973.804,110.776
-127.612,947.696,100.04
-102.968,946.964,89.548
-94.916,937.936,69.052
-62.22,970.876,57.584
-32.208,1004.06,62.464
25.62,1077.748,98.576
99.796,1020.408,100.284
184.22,905.24,17.568
113.704,980.636,-26.84
316.712,1019.92,-40.748
415.532,1099.952,43.432
541.192,991.128,-16.348
563.884,467.504,-33.916
483.608,396.744,-153.964
723.704,514.84,-134.2
784.46,343.308,-95.892
965.508,-27.084,-166.896
1158.024,-207.4,-227.896
1306.132,-40.016,-210.816
1173.152,120.048,-244.0
977.708,-19.764,-182.024
1088.728,-171.044,-131.516
1436.916,-247.172,-61.732
1710.928,-224.968,-117.364
1863.428,-139.568,-292.556
1841.956,-173.728,-317.688
1806.576,-237.9,-230.092
1880.752,-249.368,-182.024
2102.548,-333.548,-204.716
2292.136,-425.536,-271.816
2333.616,-489.464,-302.56
2261.148,-449.936,-284.748
2020.808,-500.2,-171.532
1745.576,-710.528,-24.4
1610.156,-909.144,23.912
1442.04,-1021.384,-10.492
1248.06,-970.388,-54.9
1067.5,-777.14,-101.992
905.728,-622.2,-118.584
800.32,-560.712,-131.272
613.66,-591.212,-136.152
468.48,-591.944,-165.188
405.772,-493.124,-154.94
245.952,-419.924,-132.98
199.348,-323.544,-169.092
204.716,-213.988,-175.68
-4.88,-195.932,-149.816
-211.548,-126.88,-142.496
-151.524,-14.396,-221.552
75.396,133.712,-372.832
209.596,231.312,-521.672
255.224,332.816,-645.868
269.376,446.52,-734.684
293.776,619.76,-771.528
281.576,747.128,-738.832
334.524,743.468,-733.952
411.14,666.608,-655.872
471.408,512.156,-572.424
500.688,304.024,-475.312
520.452,168.36,-320.86
501.908,65.392,-156.648
420.656,-47.58,33.184
367.708,-97.356,193.004
416.508,-117.364,335.012
477.508,-131.028,462.136
547.048,-186.66,615.368
608.292,-258.152,775.188
693.448,-425.292,907.68
796.172,-604.388,1046.516
833.504,-663.436,1148.264
997.96,-577.548,1174.616
1224.148,-458.232,1141.188
1255.38,-463.112,1074.088
1232.932,-523.624,1058.472
1282.708,-628.788,1005.768
1127.768,-708.576,912.072
1229.028,-676.856,771.04
1436.428,-652.944,602.192
1325.896,-671.488,429.44
1194.38,-619.272,305.0
1279.78,-558.272,183.732
1371.036,-520.696,31.72
1332.972,-487.756,-136.884
1384.944,-444.08,-278.892
1448.384,-405.528,-427.976
1437.892,-315.98,-577.792
1355.664,-174.46,-623.664
1357.616,38.552,-668.56
1392.264,201.056,-781.776
1358.104,269.132,-846.192
1208.532,270.84,-798.368
906.216,315.98,-667.34
555.832,316.468,-524.6
469.456,405.284,-460.672
631.96,546.56,-445.3
798.856,613.172,-334.524
839.116,646.112,-397.964
825.696,667.828,-351.848
844.972,762.744,-313.052
1003.816,716.384,-334.28
719.068,544.608,-233.508
654.408,658.312,-138.348
611.952,864.492,-122.976
637.328,990.396,-81.984
678.076,908.168,-50.264
571.448,841.312,-57.584
419.436,927.2,-17.568
219.844,919.148,55.632
203.984,900.116,102.236
250.588,1009.672,151.768
200.568,1076.284,186.904
7.564,1058.228,190.32
-61.732,1009.916,185.44
24.644,950.38,199.104
18.544,1015.772,244.244
-72.224,1069.452,276.696
-132.004,970.388,247.66
-61.488,988.688,235.216
-104.92,1022.848,256.444
-171.776,1028.704,238.388
-208.864,1025.288,213.256
-222.04,1033.584,194.712
-212.768,985.028,182.024
-199.348,1005.28,172.508
-199.104,1041.148,170.068
-203.252,1027.24,158.112
-209.352,1019.188,151.768
-174.704,1010.648,141.032
-142.252,1030.656,135.908
-147.132,1030.656,142.74
-140.544,970.388,134.688
-130.052,943.548,124.44
-129.564,936.472,122.488
-137.616,960.628,114.436
-133.712,979.66,113.948
-119.072,971.12,113.216
-126.392,973.804,118.584
-126.636,951.6,127.368
-127.612,951.6,119.072
-141.52,979.66,121.024
-122.488,968.68,134.932
-133.956,949.16,138.836
-139.324,946.72,146.156
-153.964,950.136,159.576
-154.94,964.044,152.5
-153.964,969.9,150.548
-138.104,964.532,146.4
-120.048,956.236,141.52
-110.044,984.54,141.764
-122.244,980.392,139.324
-127.124,958.92,136.884
-136.152,937.936,132.98
-127.124,898.652,135.176
-109.068,864.736,151.036
-101.992,885.964,144.448
-102.968,915.0,139.568
-106.14,932.568,127.368
-86.864,956.236,127.124
-91.5,967.704,130.052
-102.236,936.96,122.244
-111.508,915.0,119.56
-107.36,908.168,113.46
-116.144,941.596,108.092
-117.12,970.632,131.028
-142.74,997.96,146.888
-133.956,1001.132,166.408
-108.092,998.204,170.8
-125.904,1009.428,167.14
-169.092,996.252,149.084
-184.464,952.82,126.636
-183.0,922.32,94.184
-144.448,891.576,78.324
-102.724,854.732,77.836
-70.272,877.18,73.688
-92.476,963.068,101.748
-130.54,977.708,158.112
-139.812,907.924,184.952
-121.512,881.572,175.192
-85.888,887.916,146.4
-52.46,879.62,120.536
-40.26,909.632,115.412
-65.88,952.332,120.78
-108.092,1007.476,120.78
-132.736,1050.42,131.516
-149.084,1072.868,146.4
-149.328,1091.656,135.664
-172.02,1095.316,103.456
-189.588,1129.476,87.84
-203.496,1124.596,73.688
-210.328,1103.612,71.248
-199.836,1098.488,84.668
-225.456,1097.024,93.208
-235.948,1095.316,80.032
-205.204,1042.368,95.892
-162.26,1000.4,116.388
-111.996,978.928,152.744
-66.368,907.924,162.748
-77.836,868.396,161.528
-83.448,857.172,170.068
-113.704,923.54,187.88
-152.988,1022.116,238.632
-190.564,1055.544,258.396
-168.604,1003.084,246.44
-68.076,951.6,227.164
-15.128,923.54,235.216
-33.428,921.832,261.08
-68.076,889.136,283.04
-61.0,850.34,286.212
-72.956,844.972,257.42
-59.292,865.712,232.776
-54.9,915.976,206.912
-59.048,968.436,223.26
-60.756,947.208,272.06
-64.172,896.456,318.908
-93.208,787.144,344.284
-188.368,707.844,325.984
-282.552,783.24,249.856
-347.456,859.368,222.772
-340.868,944.768,223.992
-233.996,1124.84,304.268
-169.824,1284.172,369.416
-163.48,1291.98,373.32
-163.236,1180.716,328.424
-209.108,1100.684,266.448
-226.676,973.56,173.972
-254.98,965.508,80.764
-280.6,955.992,37.576
-258.884,950.868,38.552
-190.32,1027.972,74.908
-164.944,1077.016,162.748
-193.492,1009.672,214.476
-230.824,907.436,196.664
-256.2,852.292,185.44
-253.272,867.664,195.932
-167.384,885.232,265.228
-87.108,845.704,302.804
-43.676,838.628,333.548
-70.516,885.72,339.892
-190.564,988.688,320.372
-241.316,951.844,333.548
-270.596,1007.476,278.404
-244.244,1018.944,270.108
-159.82,1080.432,283.528
-112.484,1122.156,265.228
-128.588,1094.34,234.24
-172.02,996.496,203.252
-181.048,928.664,146.644
-190.076,948.184,138.836
-180.804,998.936,150.548
-190.564,997.472,176.9
-201.3,941.352,198.616
-224.968,912.072,214.72
-228.384,896.944,196.42
-237.656,972.828,181.78
-225.212,949.16,211.792
-187.636,904.264,241.316
-146.4,942.572,270.108
-127.612,986.736,281.088
-76.616,1047.98,261.08
-28.792,1182.912,227.164
-152.256,1045.54,161.04
-249.368,974.048,133.224
-246.928,1025.288,53.192
-104.92,955.748,-16.592
-6.832,807.64,61.0
-40.992,681.736,156.16
77.104,733.22,200.324
-30.5,585.6,242.048
-103.456,589.992,64.66
-295.972,420.412,140.788
-133.224,228.384,429.684
-74.42,-15.128,60.024
625.128,263.764,-579.256
683.2,389.18,-630.984
410.164,47.092,-377.224
320.128,-551.44,23.668
1496.696,-875.472,-282.796
935.984,-1531.588,341.356
1440.82,-1407.148,943.304
2439.268,-1331.02,863.028
2250.9,-1175.592,767.136
1501.088,-795.196,627.324
1491.084,-457.5,350.628
2379.244,-212.524,-9.516
2822.348,-220.82,119.316
2812.1,-479.948,320.128
2652.524,-808.372,486.292
2370.216,-961.116,641.232
2420.236,-979.66,586.576
2577.128,-1042.124,410.164
2420.724,-1250.744,329.644
2033.984,-1473.516,375.272
1552.328,-1637.972,417.728
1099.464,-1670.668,453.84
748.592,-1605.276,356.972
381.616,-1497.428,18.056
-42.212,-1184.864,-424.316
-652.212,-740.296,-770.064
-697.352,-260.348,-955.748
-219.356,1.708,-1208.532
-276.452,87.84,-1186.816
-271.572,102.236,-1124.596
-149.084,62.952,-995.764
-147.62,89.304,-985.272
-169.092,157.136,-936.96
-79.544,287.432,-800.808
-69.54,344.284,-689.056
-54.168,295.728,-542.412
-3.66,211.792,-287.676
-74.42,97.356,-27.816
57.584,-20.008,159.82
331.352,-94.184,244.244
293.288,-89.06,362.828
112.484,-37.088,583.648
169.58,-28.304,746.396
369.904,-104.188,818.376
444.08,-150.792,1027.24
433.344,-252.54,1334.192
597.312,-432.124,1504.504
792.024,-480.192,1562.82
729.804,-459.94,1652.368
743.712,-478.728,1664.08
1180.472,-547.048,1464.976
1652.856,-575.596,1251.72
1601.86,-659.288,1216.584
1388.36,-750.788,1037.0
1456.68,-749.812,703.94
1670.18,-671.976,352.58
1766.072,-629.276,39.284
1821.948,-549.976,-157.868
1792.912,-443.592,-228.384
1695.8,-382.836,-429.196
1540.128,-295.24,-730.78
1607.228,-128.832,-772.26
1648.952,4.636,-620.004
1353.956,-43.92,-744.2
1277.096,-40.504,-805.688
1106.296,326.472,-771.04
1106.784,196.176,-1189.988
409.188,136.152,-471.408
-14.396,250.1,-312.808
302.804,516.792,-63.44
730.536,696.864,-82.228
586.088,640.988,-294.02
906.46,708.82,-457.744
685.64,744.688,-395.524
432.124,623.664,-117.364
291.58,744.444,-26.352
127.368,1029.68,-125.172
23.912,1160.464,-140.056
-86.62,1073.112,-33.428
-158.112,1128.744,-8.052
-153.476,1182.424,75.884
-181.78,1184.62,196.176
-231.068,1238.3,217.404
-244.0,1257.576,249.368
-204.716,1248.548,227.408
-190.32,1242.936,174.704
-187.392,1305.156,107.848
-73.444,1318.82,108.092
-111.508,1257.576,46.36
-138.348,1115.324,48.8
-160.064,1041.636,49.532
-162.016,989.176,60.512
-61.244,930.372,95.892
46.604,876.204,118.34
-7.564,870.104,89.548
-43.432,925.736,71.736
-17.812,950.136,113.46
29.036,931.104,255.468
85.888,975.268,235.704
-57.828,829.356,101.992
-27.816,924.516,2.44
-78.324,826.916,-21.228
-155.672,696.132,33.184
-138.104,621.224,34.892
-143.228,650.992,3.66
115.168,821.06,35.868
64.66,581.696,51.728
104.432,575.84,103.456
-4.636,610.244,61.976
-99.796,742.004,-64.172
-205.692,802.76,-83.936
-206.18,813.74,-65.148
-137.372,819.352,-75.152
-157.624,846.68,-67.1
-158.844,907.192,-26.596
-141.276,990.64,11.956
-120.78,1049.688,4.88
-122.244,1075.796,-1.464
-207.888,1081.164,-28.304
-234.484,1084.824,-1.464
-186.172,1106.296,20.984
-164.456,1139.724,22.936
-223.016,1192.916,10.004
-252.54,1163.636,13.664
-284.016,1089.704,-3.416
-244.732,1064.572,2.44
-201.056,1096.536,23.424
-195.2,1078.48,50.264
-177.388,1027.484,93.452
-172.508,1018.212,76.86
-213.012,1001.376,31.964
-277.916,985.272,6.1
-260.836,993.812,26.596
-231.8,1036.268,16.348
-129.32,1074.332,46.36
1.464,1108.98,133.224
70.516,1105.808,216.672
55.632,1165.832,212.768
0.976,1239.276,173.484
-46.36,1259.04,154.452
-47.58,1297.836,146.644
-15.372,1271.484,141.52
-51.972,1244.156,108.824
-166.652,1216.096,52.216
-219.6,1148.752,50.752
-234.484,1114.348,56.12
-213.744,1088.484,45.628
-173.972,1038.464,61.244
-146.888,996.496,83.204
-152.744,1014.552,94.184
-125.416,983.076,117.12
-114.192,977.22,117.608
-175.924,981.368,84.18
-219.356,969.412,93.94
-212.768,949.16,102.236
-160.552,940.376,129.808
-111.996,904.508,135.176
-97.844,883.036,105.164
-117.852,935.984,78.812
-135.908,938.668,60.268
-92.72,949.404,79.544
-12.688,942.572,95.892
26.596,937.448,121.268
20.252,954.04,132.492
-29.768,964.776,129.808
-100.04,921.344,101.992
-114.436,926.224,108.824
-116.388,891.576,106.384
-132.492,900.604,99.796
-185.196,919.88,97.6
-212.768,911.096,103.456
-203.252,922.808,104.432
-186.172,910.852,117.12
-197.884,938.912,116.144
-262.788,1013.576,127.124
-300.608,992.592,122.732
-256.444,975.268,138.348
-175.68,947.696,159.576
-153.964,959.408,174.704
-178.364,982.588,183.488
-190.564,949.648,177.144
-190.32,930.86,166.408
-168.848,921.588,175.192
-133.468,926.956,202.032
-119.804,962.092,211.792
-131.76,970.144,217.16
-132.98,947.452,204.716
-144.692,961.116,193.004
-148.84,956.236,189.832
-140.788,945.744,178.852
-157.136,946.476,149.572
-179.34,922.32,140.788
-165.676,943.06,141.032
-135.42,961.36,165.676
-81.252,929.152,141.032
-68.564,925.98,83.692
-37.82,927.688,85.4
55.388,957.944,50.02
91.256,915.0,-12.444
178.12,862.784,-73.932
254.98,944.28,-210.328
375.516,1040.904,-237.9
441.396,823.988,-335.012
500.688,866.2,-459.208
731.268,994.3,-471.164
615.368,867.42,-272.792
253.272,620.98,26.84
134.932,339.648,39.04
451.888,76.372,-14.152
457.5,-147.132,406.992
816.912,-261.08,349.408
1101.904,-433.588,-17.08
873.52,-579.5,-153.232
1171.2,-689.056,-73.2
1558.184,-735.66,-42.212
1766.804,-779.092,-24.4
1496.696,-854.0,111.02
1389.336,-983.808,253.76
1571.116,-1056.52,176.9
1876.604,-1059.692,81.252
2090.592,-1046.516,6.344
2142.564,-1062.62,67.1
2065.704,-1199.504,173.484
2011.292,-1325.408,205.936
2139.392,-1398.364,213.988
2207.712,-1393.728,198.128
2080.832,-1400.56,149.084
1813.408,-1395.68,95.404
1612.352,-1343.464,53.436
1446.188,-1305.4,106.14
1160.708,-1280.512,124.928
799.832,-1173.396,99.064
490.684,-1063.84,10.98
93.452,-991.86,-37.088
-56.608,-900.36,-66.368
-294.508,-768.112,-179.096
-532.408,-547.292,-466.284
-382.836,-280.6,-737.368
-123.708,-87.108,-1017.724
-343.308,72.712,-1144.116
-256.444,334.28,-1269.288
-84.912,418.216,-1325.896
66.612,435.296,-1239.276
248.636,426.756,-1169.004
283.528,312.32,-939.4
203.252,206.912,-638.06
97.844,123.952,-401.136
14.152,39.528,-140.3
-32.94,-55.632,154.94
-157.624,-182.268,422.364
-86.132,-254.98,602.924
149.328,-294.02,669.292
386.496,-335.744,700.036
474.336,-346.48,798.856
526.552,-351.36,962.58
699.06,-340.624,1184.62
875.228,-429.44,1327.848
1032.364,-521.916,1375.672
1234.884,-603.9,1438.38
1206.58,-644.892,1569.164
1204.384,-662.704,1672.864
1386.164,-716.872,1589.416
1410.076,-832.284,1408.368
1405.196,-832.528,1242.448
1326.14,-762.988,1176.812
1331.264,-733.708,964.044
1462.292,-726.388,682.224
1544.764,-718.336,514.352
1343.464,-774.944,316.712
1320.284,-749.08,121.268
1560.38,-673.684,-104.676
1691.896,-532.652,-395.036
1378.6,-427.0,-665.632
1155.34,-291.336,-913.78
1336.144,-38.064,-1020.164
1351.516,87.84,-987.956
1097.756,52.216,-864.736
706.38,-7.564,-589.016
845.46,131.272,-712.724
1016.992,-64.66,-474.092
660.02,-184.464,-213.744
745.176,-312.808,-550.464
888.892,229.36,-629.032
1015.04,434.564,-537.532
377.956,577.792,-421.632
398.452,648.308,-313.784
581.452,465.064,-236.68
718.58,484.34,-138.836
666.12,791.048,-185.928
284.26,626.592,-192.516
762.012,835.456,-15.616
430.416,551.928,-67.1
150.792,656.848,-170.8
191.54,818.864,-5.368
289.384,856.44,143.472
148.84,815.692,136.152
46.604,926.712,70.272
-32.94,1212.924,-2.44
81.74,1251.232,103.7
6.344,1155.584,148.352
-176.9,1274.412,23.18
-382.592,1260.992,-85.4
-260.348,1259.284,29.768
-135.42,1222.196,176.168
-229.604,1125.328,90.28
-204.228,1070.672,95.892
-267.668,832.284,89.792
-316.956,813.74,76.86
-302.316,843.752,48.8
-172.996,944.524,35.868
-232.532,968.924,45.14
-249.612,986.492,29.524
-153.232,1033.34,21.716
63.44,1073.356,47.092
6.1,1087.264,75.64
-75.396,1087.752,41.48
-110.044,1037.732,18.3
-123.22,993.08,-7.32
-158.112,977.952,-49.532
-171.288,1008.452,-61.244
-142.252,989.908,-20.74
-85.4,971.852,27.328
-130.784,979.904,-25.376
-230.824,971.852,-106.872
-230.824,1021.14,-85.888
-249.368,1016.992,-78.08
-245.22,1040.66,-72.956
-233.264,1049.688,-46.36
-183.244,1024.312,-17.568
-203.252,1028.216,-37.82
-225.456,967.46,-73.444
-260.104,954.772,-112.728
-247.904,931.348,-105.164
-231.312,891.82,-89.304
-220.82,864.004,-82.472
-171.044,885.476,-54.9
-152.5,885.476,-37.82
-162.748,911.34,-39.528
-154.696,966.972,-58.804
-170.8,934.276,-55.876
-185.684,885.232,-26.596
-127.856,844.484,-10.004
-172.02,889.868,-22.936
-149.084,976.732,-2.44
-193.004,874.008,11.956
-262.056,794.464,-35.38
-308.172,851.316,-75.396
-214.476,921.1,-36.844
28.06,904.508,123.464
-42.212,920.612,30.988
-164.944,989.176,-6.588
-214.72,974.78,-18.056
-243.024,981.124,-27.084
-249.368,989.176,-0.976
-215.696,978.196,22.936
-197.152,1031.388,39.528
-145.912,1056.52,55.632
-151.768,1037.732,59.536
-113.948,1046.76,48.312
-110.776,1039.44,51.24
-143.716,989.42,43.92
-172.996,964.532,28.304
-171.776,949.404,26.84
-188.124,899.14,33.672
-170.312,880.596,33.428
-148.108,869.86,46.116
-132.004,842.776,61.732
-110.288,840.092,53.68
-138.104,849.364,17.08
-139.568,859.368,19.276
-202.764,835.7,23.912
-222.284,773.48,12.688
-167.14,808.372,3.172
-94.184,901.092,75.396
-79.056,949.16,122.244
-101.26,837.652,116.144
-217.892,788.852,33.916
-243.756,959.164,24.888
-221.064,1035.78,37.332
-221.552,1005.768,42.7
-257.664,982.588,43.188
-247.66,965.752,56.364
-231.556,947.208,76.616
-245.464,949.16,87.596
-242.78,986.492,86.62
-246.928,993.568,81.74
-276.452,949.892,66.612
-309.88,932.08,53.68
-323.056,977.952,48.8
-348.432,1042.124,62.464
-384.056,1075.552,50.264
-345.504,1088.728,85.4
-313.052,1058.716,110.532
-296.948,1020.164,115.9
-303.048,991.128,118.096
-289.384,1003.572,116.876
-341.844,1153.144,102.724
-397.476,1117.032,104.188
-388.936,1081.408,95.404
-355.264,1037.488,109.312
-317.688,1017.236,122.976
-305.488,1076.528,123.952
-317.688,1095.804,106.14
-317.932,1023.092,80.032
-299.388,1005.768,73.2
-280.844,960.872,64.66
-277.672,972.584,70.028
-279.38,983.076,66.612
-275.232,963.8,54.9
-282.796,979.416,54.656
-278.16,971.852,66.368
-272.548,915.488,81.496
-251.32,884.256,91.744
-215.452,878.156,100.772
-203.984,895.724,106.384
-226.432,903.532,96.868
-236.68,885.72,84.668
-220.088,861.564,92.964
-207.888,816.668,108.824
-219.356,774.212,106.872
-243.756,751.764,110.288
-257.908,723.948,107.116
-204.472,701.5,120.048
-119.072,695.156,141.276
-47.336,716.628,143.228
-33.672,723.948,153.72
-74.664,843.508,97.112
-191.54,1122.888,78.568
-275.476,1386.408,77.104
-280.356,1501.088,122.732
-264.74,1448.14,150.548
-306.708,1309.304,142.496
-356.728,1147.044,130.052
-396.988,1022.36,109.556
-418.46,892.796,73.2
-404.552,822.036,49.776
-349.652,768.356,72.224
-293.532,777.872,83.936
-308.172,898.896,72.468
-370.636,1022.604,52.948
-368.44,1040.172,58.56
-326.96,1007.476,82.96
-293.288,958.188,96.38
-283.284,1009.428,106.14
-274.256,965.02,108.58
-267.912,914.024,92.964
-263.032,924.272,80.764
-271.816,924.76,84.424
-248.88,892.064,93.452
-230.092,923.784,107.36
-243.268,926.224,108.336
-251.564,896.212,101.016
-258.396,901.824,98.82
-270.84,900.36,101.016
-275.964,942.084,96.38
-271.816,955.016,109.312
-255.712,945.256,107.848
-243.756,943.06,98.576
-262.544,968.192,86.376
-266.448,964.776,94.916
-256.2,945.256,90.524
-240.828,883.524,91.5
-198.616,818.132,81.984
-160.064,859.856,72.224
-117.364,953.796,64.904
-92.72,954.772,57.584
-60.756,1007.232,-0.244
10.736,1091.168,0.488
215.452,1067.256,-17.08
322.812,1066.768,0.976
357.948,908.412,-10.492
420.656,803.736,-131.272
238.144,680.028,-130.784
231.8,636.596,-149.816
70.516,479.46,9.028
253.516,-43.92,-27.816
726.144,-360.388,-9.272
864.98,-351.604,-73.932
828.624,-384.3,-223.016
739.076,-589.016,-188.612
712.724,-945.5,-148.108
1561.356,-937.448,111.508
2304.092,-774.456,196.176
2504.416,-763.476,-57.34
2517.348,-678.564,-168.848
2358.504,-701.744,-129.32
2219.424,-791.78,18.056
2187.704,-864.98,8.052
2248.46,-865.224,-100.04
2295.552,-892.796,-165.188
2186.728,-1036.024,-160.064
2196.488,-1130.696,-112.972
2168.672,-1228.784,-30.988
1986.648,-1372.988,10.248
1855.864,-1449.848,-44.408
1806.82,-1451.312,-110.532
1599.908,-1451.068,-126.88
1109.712,-1437.892,-130.052
338.916,-1536.468,-45.872
-225.944,-1398.12,-34.892
-538.752,-972.34,-198.616
-867.42,-535.824,-390.888
-895.48,-177.632,-445.788
-598.532,25.864,-486.048
-435.54,50.508,-572.668
-447.74,104.188,-720.532
-376.98,239.608,-838.14
-185.44,465.796,-937.936
182.268,679.052,-1041.88
440.664,733.952,-1025.532
447.74,633.424,-851.804
355.02,502.884,-663.192
285.724,385.764,-492.148
313.052,294.996,-332.328
382.104,254.004,-223.992
277.184,139.568,-54.412
238.632,71.492,104.188
268.4,-10.004,181.048
423.34,-39.772,215.94
497.272,-81.496,263.764
565.348,-54.656,360.632
628.788,-12.688,490.684
657.58,-105.896,627.324
807.396,-240.584,733.464
855.464,-335.256,853.024
877.18,-311.588,1020.408
1018.212,-333.304,1120.448
987.224,-390.4,1208.288
878.888,-344.772,1319.796
681.248,-360.144,1435.696
558.76,-504.592,1427.644
739.808,-574.132,1249.524
827.648,-565.592,1131.428
934.764,-588.772,1038.708
1141.92,-630.008,823.5
1391.532,-611.464,596.092
1505.968,-658.068,470.92
1648.952,-658.068,368.196
1568.676,-721.02,230.824
1464.244,-745.176,146.156
1528.66,-735.66,28.304
1637.728,-778.116,-129.564
1559.648,-702.232,-376.492
1438.624,-538.996,-538.02
1440.576,-351.116,-689.056
1580.388,-126.636,-791.536
1502.064,-52.704,-833.992
1111.908,18.3,-899.872
1039.196,284.504,-787.876
971.364,337.208,-506.3
1002.108,293.532,-367.952
1009.428,334.524,-305.488
913.78,484.584,-242.048
1111.42,792.512,-46.848
742.736,692.472,-455.792
222.772,759.816,-130.296
274.256,844.484,-34.404
611.464,1272.704,89.304
857.416,1328.58,189.588
727.12,1206.58,222.284
175.436,879.62,28.792
36.356,874.496,-24.888
205.448,886.696,64.904
118.34,931.104,131.272
60.756,968.192,155.672
5.856,991.616,149.084
-14.64,883.524,114.68
-52.216,897.432,137.86
-106.872,859.856,139.324
-210.084,921.344,116.388
-234.24,929.396,94.672
-199.592,900.848,85.888
-205.936,917.684,76.86
-219.112,881.816,73.2
-257.176,820.572,60.268
-223.992,818.132,76.616
-206.668,863.028,84.912
-177.876,962.092,111.752
-159.332,957.944,118.096
-171.044,925.736,101.26
-186.172,923.052,76.616
-209.108,932.568,69.54
-214.72,974.292,62.952
-228.628,1001.376,55.388
-206.912,940.864,52.948
-174.948,868.884,59.536
-161.528,813.252,60.268
-147.132,849.852,53.68
-130.052,860.832,55.876
-119.804,809.104,34.16
-101.016,782.02,16.348
-109.8,758.108,6.588
-140.3,732.488,-13.176
-150.304,764.696,-16.836
-139.568,803.492,-4.88
-110.776,810.324,4.88
-80.52,814.716,1.22
-72.712,887.428,0.0
-48.556,916.708,4.148
-116.144,910.12,-46.36
-127.368,880.108,-63.684
-97.356,881.328,-60.756
-154.696,1007.964,-70.76
-175.924,1019.676,-105.164
-152.988,926.712,-54.168
24.156,1009.184,31.72
-24.888,923.54,10.492
-64.416,876.936,-12.2
-20.984,919.148,-16.836
-34.648,922.32,-0.976
-140.544,954.284,-27.816
-290.848,1006.988,-71.004
-413.58,1107.028,-120.292
-380.152,1083.116,-67.588
-347.456,1055.056,-33.184
-333.304,1038.464,0.732
-269.132,1056.764,53.436
-281.088,1015.284,-0.732
-265.96,1071.404,25.132
-297.436,1084.824,-7.808
-388.204,1185.108,-20.496
-482.876,1206.58,-53.68
-512.4,1162.66,-67.1
-488.244,1101.172,-61.244
-456.524,1110.444,-36.844
-405.528,1115.324,9.516
-317.688,1030.9,41.236
-266.692,968.924,92.232
-278.404,980.88,92.232
-338.916,1017.724,103.944
-380.152,1024.556,112.24
-331.108,984.052,142.496
-275.72,968.68,171.776
-254.98,992.104,197.64
-260.592,1083.848,218.868
-220.088,1093.364,243.756
-169.58,1066.524,252.54
-133.956,995.52,228.384
-146.4,977.952,199.836
-227.652,1037.0,175.924
-282.064,1015.772,147.132
-269.132,999.18,132.248
-234.728,970.876,146.644
-189.344,931.836,147.376
-164.212,931.104,152.012
-194.712,964.288,142.252
-243.512,961.604,122.732
-240.096,933.056,110.044
-207.4,925.004,119.804
-182.756,944.524,127.612
-167.384,991.372,151.036
-178.608,997.96,142.008
-212.768,943.792,103.944
-226.92,923.54,86.376
-211.792,918.66,85.888
-226.676,941.84,91.5
-231.312,938.18,92.72
-240.096,925.248,101.26
-240.584,885.72,102.236
-241.072,911.828,119.316
-258.396,951.6,126.392
-270.352,974.536,137.372
-265.716,970.632,140.3
-238.632,941.84,138.592
-238.632,953.796,134.688
-259.616,935.496,127.612
-284.016,964.288,133.712
-292.312,978.44,145.424
-296.948,954.284,154.696
-278.16,930.616,156.648
-259.372,918.904,158.112
-261.812,948.672,159.82
-264.984,954.528,148.108
-265.96,977.952,138.836
-257.42,936.228,127.368
-221.308,889.136,124.44
-218.38,889.136,127.368
-254.004,930.128,133.468
-283.772,930.86,134.688
-285.236,891.088,131.272
-272.548,872.3,135.664
-273.28,867.664,136.396
-296.216,927.688,136.884
-321.348,960.628,130.296
-314.272,956.968,124.44
-274.256,944.524,135.908
-255.224,953.796,147.132
-269.864,969.412,152.012
-298.168,944.036,136.64
-311.832,913.78,121.756
-296.948,879.62,117.608
-296.216,909.388,124.684
-293.776,913.292,129.076
-294.02,915.244,121.512
-287.676,910.852,119.804
-292.556,909.632,124.684
-302.072,915.488,124.196
-298.412,944.768,138.104
-285.968,946.72,151.28
-275.232,954.04,160.064
-267.912,935.74,159.82
-270.108,922.32,144.448
-298.9,924.516,137.86
-311.588,927.688,139.324
-303.048,959.896,156.16
-292.556,966.484,168.36
-283.772,922.808,161.528
-274.256,902.556,149.328
-296.216,927.2,144.692
-326.716,934.764,129.076
-325.496,957.7,122.0
-305.244,958.188,128.1
-288.408,938.668,130.052
-269.62,924.516,134.2
-264.74,914.024,130.296
-262.3,898.408,125.66
-276.452,926.468,117.852
-287.432,913.292,105.896
-283.528,917.44,103.456
-279.136,919.148,103.212
-265.96,913.048,107.848
-250.1,922.32,99.796
-251.076,911.34,90.524
-250.344,891.576,97.112
-222.04,868.64,85.4
-182.512,848.388,74.664
-119.804,838.14,75.884
-129.32,869.86,30.744
-110.288,926.956,-14.884
-55.876,983.808,0.732
47.336,989.42,-2.928
142.984,1009.916,-36.356
265.716,942.084,-48.8
313.54,991.86,-16.592
439.688,977.952,-51.484
511.912,984.296,-82.228
598.044,881.084,-98.332
649.04,803.98,-131.516
609.512,722.972,-157.868
661.484,595.36,-230.092
695.644,491.416,-127.612
754.936,328.424,-25.864
1059.204,46.36,-69.54
1173.884,-162.26,-27.328
1042.368,-270.108,-112.484
884.744,-210.572,-121.024
1152.656,-359.412,-104.188
1307.108,-677.832,55.876
1333.46,-702.232,48.556
1307.108,-639.28,-20.252
1373.72,-537.044,-58.072
1589.172,-530.944,-113.948
1808.284,-567.544,-130.052
1894.416,-541.68,-174.704
1858.792,-574.62,-191.296
1900.272,-638.548,-170.8
2009.584,-745.908,-186.416
2118.164,-850.34,-108.824
1837.32,-1094.828,-61.976
1574.532,-1182.668,-1.464
1609.668,-1087.752,36.356
1661.152,-1093.12,44.164
1605.52,-1143.628,30.5
1392.508,-1195.6,-11.468
1305.888,-1110.932,-27.572
1196.332,-1008.94,-31.476
931.836,-926.712,-44.652
659.288,-818.864,-83.448
486.292,-643.428,-126.392
300.608,-564.86,-127.124
171.044,-510.204,-170.068
111.02,-422.852,-229.116
-25.376,-351.36,-255.956
-220.332,-244.244,-224.236
-393.572,-116.632,-273.28
-259.86,11.224,-387.472
31.232,121.268,-588.528
100.528,237.656,-740.54
107.848,344.772,-854.0
255.224,592.676,-993.812
298.656,691.496,-960.872
250.1,722.728,-843.996
246.196,691.008,-695.4
297.68,545.34,-540.216
286.456,366.732,-383.568
326.472,259.372,-260.104
392.108,179.34,-125.904
449.936,95.648,40.748
398.94,-16.836,197.152
285.48,-120.048,371.124
401.136,-164.7,480.436
573.4,-236.68,596.824
621.956,-311.344,758.84
650.992,-306.708,928.176
560.956,-409.92,1089.216
620.248,-523.136,1155.584
803.004,-551.44,1100.684
948.184,-518.988,1051.396
992.592,-503.128,1063.596
1028.704,-521.184,1071.648
1179.496,-595.116,1045.54
1297.348,-722.728,978.44
1271.484,-797.636,931.104
1277.584,-769.576,915.244
1383.724,-760.06,783.972
1549.644,-716.628,588.528
1709.464,-666.364,405.04
1727.276,-688.324,250.1
1536.956,-706.38,112.484
1340.536,-756.156,39.284
1287.832,-803.004,-76.86
1395.924,-720.288,-254.492
1497.672,-623.664,-426.268
1433.744,-495.808,-601.948
1399.096,-280.356,-689.544
974.78,-86.864,-725.656
725.9,217.16,-710.04
772.992,416.02,-692.228
859.368,443.104,-518.012
851.804,480.436,-477.02
761.28,511.912,-407.968
607.316,497.76,-358.68
529.236,767.868,-268.888
481.412,1036.268,-170.312
503.128,1252.208,-58.316
666.12,1000.644,-85.644
310.124,720.044,-289.384
165.92,815.936,-54.412
94.916,1075.796,-81.008
143.472,1322.968,-61.732
332.816,1336.388,37.576
64.904,1070.428,-10.736
-207.888,859.124,-58.56
-327.692,892.064,-49.044
-389.424,960.872,-65.392
-305.244,801.784,-2.196
-242.78,786.412,60.024
-263.276,908.656,57.584
-309.636,963.312,65.392
-249.124,985.028,98.82
-141.764,973.56,113.216
-78.812,991.86,125.66
-188.612,1133.868,87.84
-262.788,1122.644,61.732
-251.32,1036.756,53.68
-188.856,967.704,69.052
-179.828,929.396,72.956
-206.424,957.7,75.884
-202.52,931.348,83.692
-173.24,928.176,81.74
-183.976,969.9,66.612
-206.668,1005.036,61.244
-198.372,988.2,62.22
-165.188,981.856,73.2
-173.728,986.248,71.248
-182.024,939.644,74.42
-207.156,967.46,65.392
-221.796,970.876,50.752
-165.432,940.864,66.124
-142.496,915.488,82.472
-166.164,919.392,70.272
-199.348,949.404,67.1
-206.18,952.088,68.808
-192.516,957.7,63.684
-186.416,961.604,59.78
-174.46,959.652,67.344
-173.484,950.624,76.616
-188.124,956.968,72.956
-179.584,941.84,74.42
-154.94,905.484,77.592
-160.796,888.892,69.54
-153.964,864.736,65.392
-144.936,837.164,98.332
-151.768,837.408,75.152
-136.884,876.936,85.888
-106.14,810.08,79.544
-92.476,754.204,50.02
-95.648,734.196,53.192
-133.712,746.152,40.504
-174.948,777.384,17.568
-142.74,817.4,25.62
-115.9,817.888,33.184
-139.812,814.716,23.424
-177.876,827.16,3.172
-165.188,795.196,-6.344
-127.368,810.08,-18.3
-128.344,866.444,6.588
-101.748,874.252,63.928
-93.452,867.176,40.26
-120.048,894.992,31.232
-178.852,900.848,10.004
-216.428,937.204,2.684
-196.42,973.804,39.528
-139.08,945.988,83.448
-93.94,951.844,111.996
-132.248,989.664,121.268
-193.004,1012.356,94.184
-213.256,1006.988,115.168
-201.788,965.752,109.312
-141.276,940.864,112.728
-77.348,954.284,150.548
-75.64,1002.352,167.14
-100.528,1023.824,156.892
-111.996,1043.832,140.056
-118.096,1075.796,124.684
-128.344,1079.7,109.312
-161.528,1091.168,85.156
-217.648,1129.72,48.312
-233.508,1161.928,44.408
-212.768,1170.712,48.068
-191.052,1159.244,49.532
-185.684,1152.412,50.752
-192.272,1126.06,43.676
-203.984,1084.092,24.888
-177.632,1046.028,28.304
-142.252,1031.632,18.056
-124.684,1036.268,13.42
-148.596,1057.496,4.148
-191.296,1127.524,-0.732
-205.936,1190.232,-10.004
-204.472,1231.468,-8.052
-215.452,1237.568,-7.076
-193.492,1218.292,-3.416
-170.556,1172.908,-0.488
-177.388,1105.564,-7.076
-169.092,1043.1,-35.868
-200.324,1038.22,-56.608
-198.128,1009.184,-70.028
-185.44,1009.916,-73.2
-178.364,1026.508,-80.276
-174.216,1035.78,-78.812
-156.16,1016.016,-77.592
-156.16,1002.108,-84.912
-131.76,974.78,-81.252
-122.0,952.82,-83.936
-103.456,932.568,-82.228
-96.38,884.256,-84.18
-102.236,895.968,-68.808
-116.876,893.04,-50.508
-137.86,920.612,-41.724
-124.928,943.548,-28.06
-101.016,972.828,-13.42
-96.136,990.884,-9.516
-110.044,1043.344,-11.224
-108.824,1072.136,-0.488
-85.888,1048.712,-8.052
-79.788,1039.684,-0.732
-75.884,1004.304,-6.344
-70.76,954.04,-14.884
-60.512,872.056,-30.5
-57.096,831.796,-26.84
-63.196,837.408,-0.488
-79.056,891.332,27.572
-108.092,958.92,35.868
-140.056,998.936,31.964
-154.452,1062.62,24.888
-152.988,1105.808,28.548
-116.388,1118.496,30.744
-72.224,1115.568,32.208
-40.26,1067.256,25.864
-37.088,1001.376,8.052
-35.136,920.124,-11.956
-61.488,864.492,-19.764
-87.108,850.34,-11.468
-104.92,877.18,6.1
-131.028,939.644,14.396
-163.724,1010.404,19.52
-172.996,1042.368,14.64
-173.484,1076.528,10.98
-124.684,1075.552,13.42
-65.88,1053.104,16.592
-36.6,998.448,8.784
-21.472,940.132,2.684
-29.036,903.532,6.1
-70.028,910.608,13.908
-110.288,926.956,23.18
-135.908,944.524,20.984
-148.596,1000.888,26.596
-152.988,1047.492,32.208
-128.344,1088.728,42.7
-92.232,1073.6,39.04
-55.632,1036.756,28.06
-39.528,1004.06,23.18
-48.556,970.388,15.128
-67.588,922.076,9.028
-88.084,891.576,9.272
-111.264,897.676,5.124
-147.864,938.668,0.976
-172.264,1007.232,9.272
-168.848,1043.832,14.884
-130.296,1032.852,13.664
-81.74,1023.824,15.86
-62.464,1002.108,20.74
-64.416,985.028,15.372
-71.248,970.388,10.248
-86.132,949.648,0.976
-96.868,929.396,0.0
-98.088,929.396,12.932
-98.576,935.008,18.056
-96.38,965.996,27.328
-111.02,1008.208,28.304
-120.048,1021.14,28.06
-100.772,1012.6,29.768
-82.228,994.056,31.72
-85.888,993.324,30.5
-98.332,988.444,22.204
-109.068,987.956,16.592
-114.436,979.416,11.712
-115.168,975.024,8.296
-117.364,987.956,17.812
-117.364,975.268,16.348
-115.9,976.732,11.712
-112.484,980.88,14.152
-99.064,975.024,20.252
-94.184,982.832,28.06
-90.28,986.736,32.94
-85.888,1001.62,40.992
-92.72,1008.208,42.7
-93.208,987.224,47.092
-81.252,968.68,44.896
-86.132,971.852,45.628
-96.136,974.78,41.968
-93.208,988.688,47.58
-93.94,991.616,39.284
-102.968,985.76,26.596
-103.7,989.908,24.4
-97.844,993.324,23.18
-102.968,993.324,24.644
-106.14,982.344,17.324
-104.676,977.22,11.224
-99.064,971.608,10.248
-97.6,973.072,17.08
-97.6,973.804,21.228
-102.968,981.368,22.692
-109.8,979.416,17.812
-108.824,971.12,15.86
-113.216,995.52,20.984
-126.392,1008.696,30.744
-132.248,1012.356,35.868
-124.196,1006.988,38.796
-118.828,999.424,38.796
-122.732,1011.136,37.82
-127.368,1027.484,41.968
-120.048,1025.044,36.6
-108.58,1007.964,37.82
-91.5,970.388,29.28
-85.156,938.18,21.228
-81.74,932.568,19.276
-87.108,931.592,14.396
-104.676,945.744,12.444
-116.632,967.948,15.372
-108.58,976.244,22.692
-99.064,973.56,15.372
-89.304,953.552,-8.54
-75.884,944.524,-9.76
-75.884,964.532,-13.664
-62.464,979.416,-1.708
-70.516,981.612,0.732
-72.956,1008.208,6.1
-76.86,1046.76,-3.66
-33.428,1072.868,5.368
153.232,1002.108,28.548
237.168,981.612,2.684
251.076,951.6,-14.152
286.7,939.644,-44.896
363.804,900.848,-62.708
499.712,888.892,-50.996
587.552,880.108,-63.684
583.892,837.408,-109.068
555.832,767.136,-153.232
497.516,654.408,-67.832
525.332,408.7,-79.056
586.82,103.212,-97.356
845.704,-103.212,-73.444
802.272,-91.744,85.888
547.048,-292.556,-79.056
631.716,-373.808,-81.496
905.484,-515.816,-117.852
1186.816,-554.856,-122.0
1564.284,-584.624,-9.76
1742.892,-717.604,45.872
1828.292,-673.928,-44.896
1800.964,-673.196,-146.644
1691.408,-620.004,-154.696
1765.828,-497.76,-178.608
2021.052,-439.688,-248.636
2236.504,-466.284,-323.788
2455.372,-446.276,-368.928
2425.36,-623.42,-292.068
2108.648,-865.468,-169.824
1817.068,-1004.548,-69.052
1671.156,-1029.436,-22.204
1619.428,-1008.452,-15.372
1515.24,-1024.8,-55.144
1404.22,-1034.804,-76.616
1171.444,-1033.096,-107.848
888.16,-975.024,-84.18
668.56,-872.056,-45.628
500.688,-754.204,-19.764
346.968,-718.092,-31.476
263.032,-704.184,-109.068
225.944,-624.152,-204.228
225.456,-423.828,-348.188
167.384,-159.332,-442.616
-14.152,-62.464,-503.86
9.516,34.404,-599.508
53.68,98.576,-689.788
73.2,167.384,-748.836
100.284,269.62,-828.624
211.06,457.012,-933.544
301.584,578.524,-971.608
192.028,633.912,-920.856
210.328,525.088,-801.784
190.076,388.204,-521.672
16.348,297.192,-380.884
-224.48,168.848,-162.504
-381.616,49.776,99.552
-200.324,-25.132,227.896
179.34,-93.94,265.716
384.544,-255.712,408.456
439.444,-347.212,602.68
485.56,-383.08,818.376
504.592,-502.152,1031.876
564.86,-598.044,1199.992
620.736,-655.384,1252.94
768.112,-661.972,1221.952
1152.412,-610.976,1095.56
1512.312,-555.1,993.812
1520.364,-504.836,965.02
1384.7,-503.86,955.016
1354.688,-548.756,905.972
1408.124,-613.416,823.988
1436.184,-687.592,753.716
1401.78,-717.848,665.144
1379.576,-723.948,560.224
1445.212,-767.624,416.508
1561.844,-721.264,263.52
1518.412,-605.12,131.272
1487.18,-582.672,50.508
1422.52,-613.904,-25.864
1366.4,-621.712,-119.804
1376.892,-666.852,-176.168
1376.16,-621.468,-320.372
1347.124,-511.18,-459.94
1443.748,-328.668,-520.452
1359.812,-247.904,-520.696
1146.8,-174.704,-538.508
935.496,-24.156,-558.272
901.092,207.4,-477.02
903.776,424.072,-409.92
910.364,521.428,-352.58
950.136,559.492,-259.128
1074.82,731.756,-165.188
1272.948,805.444,-70.516
953.552,616.588,-258.64
118.828,618.296,-289.14
-150.792,911.828,-181.292
73.444,1234.64,-224.724
446.764,1309.304,-3.172
527.772,1219.756,215.208
358.436,1101.66,262.056
117.364,996.74,203.008
-24.4,877.668,123.22
-148.108,927.2,65.88
-271.328,941.108,63.44
-397.964,855.952,60.268
-347.212,838.872,89.06
-270.84,828.868,111.508
-366.976,783.972,79.3
-437.98,733.464,76.616
-420.656,718.092,68.32
-294.752,770.308,106.14
-249.368,855.952,149.084
-278.16,863.028,160.796
-284.504,882.06,179.584
-267.668,889.624,175.436
-249.612,910.12,204.716
-228.14,897.92,228.872
-205.448,945.5,199.104
-184.464,995.032,197.396
-173.24,955.016,202.764
-151.524,927.688,199.592
-149.816,933.788,187.392
-202.52,944.524,149.084
-268.644,951.356,129.076
-273.768,966.484,125.66
-287.676,940.62,124.196
-270.84,940.132,118.584
-254.98,931.592,130.052
-237.656,954.772,142.496
-225.212,944.28,156.892
-234.972,930.372,164.456
-232.288,915.244,163.968
-228.384,925.248,161.04
-221.308,940.62,162.26
-235.46,944.28,162.748
-252.54,929.396,155.428
-256.2,934.032,154.94
-246.44,951.844,145.912
-226.676,952.088,160.064
-236.68,943.06,164.7
-249.124,930.128,144.204
-243.512,912.56,145.668
-229.116,898.408,145.18
-222.284,886.94,154.452
-197.396,868.64,148.596
-204.472,866.444,141.52
-213.744,842.776,114.924
-193.492,803.736,139.324
-167.384,803.004,141.032
-161.284,820.328,132.98
-167.384,777.872,115.168
-172.264,771.284,111.508
-201.788,757.62,97.112
-194.224,747.128,105.408
-185.196,755.668,111.508
-102.724,820.572,144.692
-154.696,801.54,119.316
-118.096,822.036,122.976
-110.776,830.088,132.248
-144.936,816.18,131.516
-149.328,810.08,118.828
-136.64,835.212,100.528
-131.028,899.872,98.82
-117.364,922.32,126.88
-109.068,919.88,142.496
-113.216,928.908,143.96
-123.708,949.16,132.736
-157.624,963.312,122.244
-183.488,962.336,128.832
-211.06,945.5,120.536
-201.3,937.692,107.36
-177.632,935.984,112.484
-172.02,974.048,93.208
-201.544,1013.332,104.92
-222.284,995.032,87.352
-205.204,1007.476,103.7
-183.244,1020.896,112.484
-141.276,1062.864,130.296
-135.42,1067.744,168.848
-125.66,1026.508,158.112
-97.112,993.324,149.572
-94.184,969.656,138.104
-94.672,1017.968,146.4
-129.076,1074.576,134.932
-150.792,1139.724,136.152
-159.576,1147.776,159.332
-162.748,1141.432,140.056
-158.356,1124.84,108.824
-181.292,1150.948,112.24
-199.348,1222.196,127.368
-191.54,1257.088,163.724
-164.944,1244.4,159.576
-152.012,1213.168,165.188
-178.364,1224.636,169.58
-221.552,1205.604,174.948
-240.584,1147.776,155.916
-252.296,1123.62,122.244
-300.852,1111.176,100.04
-314.516,1095.804,98.576
-276.696,1063.84,90.524
-237.412,1006.5,82.228
-194.224,1007.476,73.2
-176.9,1016.016,70.028
-177.144,1003.328,70.76
-171.532,965.02,59.78
-140.056,945.988,59.292
-108.092,931.836,65.88
-77.348,932.812,75.64
-92.476,963.556,82.228
-96.136,920.124,89.548
-91.256,914.268,79.056
-77.592,931.348,91.256
-87.84,952.088,96.38
-96.136,950.136,96.136
-104.188,938.668,98.82
-113.948,926.224,104.432
-110.776,918.416,97.844
-121.268,929.396,99.796
-140.056,965.752,98.82
-141.764,970.144,113.46
-134.688,949.648,104.432
-132.248,973.316,102.236
-128.832,992.592,114.68
-133.468,975.512,116.388
-136.884,972.34,108.336
-127.612,970.632,114.192
-127.124,964.288,100.528
-132.004,962.092,119.072
-143.228,955.748,121.268
-132.736,958.432,138.348
-114.924,972.34,144.204
-99.064,967.216,142.984
-99.308,972.096,132.98
-102.968,967.704,129.564
-92.232,979.66,120.292
-101.748,1029.192,124.44
-112.728,1038.708,137.616
-113.46,1010.404,127.368
-102.724,972.34,130.296
-110.044,936.472,111.508
-111.752,945.5,121.024
-136.396,959.408,117.364
-156.648,967.704,104.92
-152.744,980.148,112.728
-132.248,970.632,103.7
-112.728,968.924,120.292
-111.264,982.344,109.312
-123.952,1003.328,120.048
-136.64,982.1,109.068
-141.276,959.652,109.8
-131.76,948.428,109.312
-121.268,970.876,109.068
-115.412,992.836,113.948
-122.244,987.956,119.072
-130.54,975.024,108.824
-125.172,980.88,111.264
-122.0,969.9,114.436
-120.048,969.9,111.02
-120.78,974.048,109.068
-115.412,978.928,107.848
-105.896,975.024,106.384
-102.236,966.484,102.724
-100.04,973.072,104.676
-114.924,969.656,90.768
-126.148,950.136,76.128
-134.444,950.868,72.956
-121.512,964.532,92.964
-112.972,972.584,101.26
-97.356,972.828,98.576
-90.768,958.432,77.104
-84.18,934.764,64.172
-76.372,965.752,39.772
-70.516,1029.436,48.312
-54.656,1022.848,56.364
-12.444,980.88,39.772
79.056,963.8,8.052
125.416,998.692,1.464
119.072,1013.82,-52.46
244.488,1032.852,-63.684
336.476,1014.552,-65.88
370.636,990.64,-148.84
