acc_x[mg],acc_y[mg],acc_z[mg]
-48.556,980.148,136.64
-61.732,974.292,142.496
-73.932,961.604,150.304
-87.84,954.772,161.284
-88.328,961.604,167.14
-81.008,974.536,168.604
-68.564,984.784,175.68
-43.92,979.66,180.56
-53.436,965.996,188.368
-77.348,954.284,190.32
-83.692,968.192,193.248
-75.884,983.808,193.98
-45.14,991.616,179.584
-33.672,990.64,167.872
-25.132,983.076,158.112
-27.328,979.904,158.844
-40.26,972.34,164.7
-52.704,960.628,164.456
-55.388,956.724,160.796
-54.656,956.724,156.892
-54.412,952.088,154.696
-61.976,950.38,162.992
-62.952,949.892,168.604
-55.632,955.504,175.436
-57.828,962.336,184.464
-47.092,978.928,188.856
-31.232,1001.132,191.54
-13.42,1016.748,188.368
-1.952,1019.432,183.976
-1.22,1012.112,184.952
-11.224,992.592,185.928
-36.112,980.148,187.88
-60.512,983.076,194.468
-55.632,997.96,202.032
-46.36,1003.084,194.468
-47.336,990.152,176.656
-62.708,970.388,164.456
-74.908,960.14,166.896
-85.644,953.064,181.292
-82.716,957.944,186.66
-74.664,966.728,191.052
-54.412,977.22,194.224
-20.252,989.908,187.392
-16.348,989.908,177.388
-9.028,989.664,161.04
-15.616,988.2,152.988
-36.6,981.856,139.812
-62.952,974.78,132.492
-83.448,965.02,126.148
-85.888,961.604,121.512
-83.936,955.016,121.756
-74.908,956.48,117.364
-68.564,956.968,118.34
-75.396,963.556,125.172
-73.444,969.9,127.368
-78.08,981.368,132.98
-87.596,995.52,144.204
-80.52,987.712,136.884
-74.176,986.492,137.616
-69.052,984.296,143.96
-74.42,973.316,142.984
-73.444,965.996,139.08
-81.984,960.384,136.884
-89.06,958.676,134.932
-96.136,958.432,132.98
-96.868,962.824,128.1
-103.456,972.34,125.904
-100.284,982.344,125.66
-101.504,984.052,130.54
-100.284,979.416,135.42
-97.6,975.756,133.468
-90.036,975.024,127.124
-78.324,981.612,128.1
-78.812,980.88,127.368
-85.888,977.464,127.612
-88.328,976.488,126.88
-96.136,972.584,129.076
-100.772,965.752,129.32
-109.556,960.872,132.98
-113.46,963.556,132.248
-112.972,969.9,131.516
-102.724,980.148,130.296
-100.04,987.468,131.028
-96.624,987.224,133.956
-96.624,985.272,140.056
-97.356,981.368,146.644
-104.432,973.804,147.62
-104.676,972.584,139.812
-105.652,974.536,137.128
-107.36,974.048,138.104
-107.116,970.876,139.08
-102.968,968.192,142.008
-100.04,961.604,142.984
-104.676,955.992,144.204
-104.676,955.748,144.936
-102.968,968.436,140.788
-86.132,980.636,135.908
-81.252,984.54,128.832
-75.152,990.64,124.196
-87.84,986.004,121.756
-102.968,978.44,116.876
-109.556,973.56,118.828
-111.508,971.12,126.148
-102.968,971.852,131.516
-96.136,967.948,138.348
-88.816,968.436,139.568
-90.768,967.704,140.788
-88.816,970.876,142.496
-85.644,980.392,145.668
-84.424,990.64,139.324
-87.108,996.008,130.54
-89.06,992.104,126.392
-87.108,986.736,124.44
-85.4,981.856,126.392
-91.256,975.268,128.832
-97.356,969.168,133.224
-96.38,967.216,139.08
-89.304,967.46,138.104
-96.136,966.972,140.056
-86.376,976.732,127.124
-85.888,987.468,124.928
-81.008,992.104,123.464
-83.448,997.472,129.564
-100.528,1010.404,136.884
-112.24,1037.0,140.544
-134.444,1070.184,148.84
-143.472,1102.392,144.692
-145.668,1138.016,147.376
-156.16,1164.856,144.448
-162.26,1187.548,149.084
-196.176,1179.252,161.772
-290.116,1137.284,155.428
-355.02,1087.508,148.352
-349.652,1040.66,127.612
-226.676,1016.26,91.988
-115.412,1008.208,77.104
-77.592,982.832,71.98
-103.212,938.668,73.688
-156.648,884.988,44.164
-180.072,876.204,56.608
-93.94,855.708,60.024
65.636,852.78,56.608
207.644,869.616,57.34
131.516,840.824,54.656
-50.752,841.556,94.428
38.064,821.304,117.364
85.888,795.928,98.088
441.152,855.952,60.756
456.768,884.5,117.852
253.516,853.268,135.42
330.132,816.424,197.152
485.804,711.748,270.84
575.108,635.62,387.472
534.36,575.84,481.168
556.564,505.324,623.908
662.948,442.616,693.692
712.724,427.0,748.104
722.484,423.584,830.82
730.536,401.868,874.252
731.268,378.444,887.184
705.892,365.756,882.548
715.896,380.64,867.664
660.508,389.424,839.848
609.268,407.236,781.532
525.82,414.8,723.704
506.544,420.9,666.852
475.312,414.068,612.196
499.468,416.508,538.02
531.188,407.236,438.712
566.324,432.612,341.6
591.7,455.792,240.828
621.468,480.924,147.376
677.588,478.484,70.76
715.896,486.292,-15.616
782.996,490.928,-89.792
828.624,498.004,-146.4
949.648,504.592,-215.452
928.42,494.832,-249.856
1002.108,501.664,-285.968
1063.352,467.016,-296.216
1123.864,458.72,-277.184
1181.448,441.64,-235.948
1150.46,408.944,-169.336
1074.088,375.272,-117.608
1077.504,376.492,-54.168
1077.26,365.756,-9.76
1040.172,342.088,24.888
986.736,343.796,57.828
969.412,327.692,118.828
945.988,321.592,190.564
910.608,286.456,256.2
854.976,258.396,310.124
815.204,231.8,355.02
835.212,222.284,403.82
808.616,223.26,451.888
788.364,205.692,488.732
744.2,163.236,523.868
751.52,144.936,562.664
738.588,127.368,610.244
721.996,106.14,663.192
725.656,82.716,723.948
793.976,60.756,767.868
812.52,43.188,789.584
859.856,37.576,782.02
881.084,31.72,764.94
907.436,25.62,761.28
957.212,23.668,757.864
986.736,-2.684,768.112
1033.828,-40.26,765.184
1087.264,-37.576,740.54
1098.0,-39.772,674.416
1163.392,-25.132,589.504
1206.824,-1.464,503.616
1251.72,20.496,416.996
1290.028,39.528,341.112
1235.616,30.5,295.24
1177.788,51.24,264.984
1200.236,67.588,218.38
1237.568,87.596,198.128
1232.444,84.912,197.396
1234.396,84.912,195.932
1132.404,81.984,194.956
1062.62,125.66,170.312
1094.096,186.172,156.404
1183.888,216.428,163.968
1188.036,220.82,203.496
1142.408,232.044,249.124
1046.028,242.048,278.648
962.092,268.4,278.648
984.296,322.568,274.5
1002.596,377.224,271.328
962.336,414.068,279.38
915.0,445.788,283.772
827.892,462.136,296.704
781.044,500.2,304.512
747.372,538.02,300.852
733.22,585.112,276.208
725.168,604.632,256.444
686.86,635.132,268.4
674.904,678.808,260.592
650.26,702.964,248.636
613.172,718.58,223.504
550.708,728.34,220.82
508.496,751.764,210.328
427.976,774.456,215.452
347.456,793.732,186.66
304.268,797.148,148.596
297.68,817.888,130.296
209.352,854.976,149.572
121.756,883.036,124.44
99.308,900.36,94.672
21.228,915.488,119.316
-39.04,918.904,106.872
-68.808,920.612,88.328
-72.224,934.52,69.296
-99.552,933.788,69.784
-171.776,924.272,76.372
-254.736,883.28,86.62
-333.792,852.536,126.636
-305.488,843.508,127.124
-302.072,849.12,150.06
-292.556,863.028,155.916
-255.468,904.264,155.916
-176.412,960.384,143.472
-93.696,1000.888,130.54
-45.872,1011.136,114.68
-30.012,1009.184,95.16
-38.308,1016.016,91.5
-25.376,1022.116,76.372
-37.332,996.984,52.216
-44.408,1001.376,39.528
-35.868,1014.552,30.012
-47.58,1014.552,20.008
-76.372,996.496,10.248
-90.768,987.468,6.832
-95.404,984.784,-5.368
-97.356,992.592,-5.124
-101.016,986.736,-7.808
-93.94,983.076,1.22
-76.86,985.516,9.272
-55.632,989.908,17.324
-60.024,990.152,13.664
-67.1,979.172,10.98
-91.744,978.684,22.204
-102.724,972.096,26.108
-82.96,976.0,24.156
-70.516,982.588,17.568
-63.684,991.128,16.348
-73.2,995.764,27.816
-79.788,994.3,27.328
-92.476,993.08,17.324
-89.548,995.276,21.472
-72.468,996.252,25.62
-58.316,988.932,32.696
-64.66,979.904,31.964
-83.448,970.876,31.72
-79.056,970.876,31.476
-83.204,974.292,43.676
-95.16,973.804,41.48
-84.668,976.732,26.596
-76.128,983.808,25.376
-84.912,980.636,24.4
-83.936,983.076,23.18
-82.472,993.324,29.28
-82.472,995.032,27.816
-71.248,995.52,26.596
-64.172,992.104,32.696
-55.388,982.588,26.352
-75.884,971.608,29.036
-75.884,979.416,32.208
-81.496,986.736,37.332
-88.816,995.276,31.72
-88.328,986.248,23.668
-75.396,986.248,19.276
-59.292,1000.4,25.132
-60.512,1009.184,29.28
-70.516,1000.644,30.5
-67.588,989.42,30.988
-64.904,976.0,33.184
-61.0,965.752,39.04
-55.388,968.68,37.82
-61.976,973.072,35.38
-78.812,965.264,22.936
-81.984,967.704,14.64
-82.228,976.488,12.444
-79.544,993.812,21.96
-53.924,1009.184,24.4
-48.068,1005.768,29.036
-61.732,993.812,35.868
-70.516,989.176,39.772
-71.004,997.228,42.456
-80.032,1000.4,38.552
-94.916,996.74,30.988
-101.016,997.716,30.012
-104.676,1002.108,31.232
-124.44,1010.16,27.084
-155.916,1025.044,39.284
-183.976,1038.22,47.336
-184.464,1042.124,63.44
-124.44,1046.76,77.104
-89.792,1042.368,85.4
-87.352,1027.484,85.4
-101.992,1017.236,74.42
-158.6,1008.452,79.544
-167.384,1016.26,87.108
-117.852,1051.396,89.06
-26.596,1082.628,88.084
72.468,1087.752,84.18
111.264,1058.472,31.964
37.332,1023.092,9.028
-78.324,995.032,13.664
28.06,995.764,19.52
253.272,997.716,47.092
329.4,950.624,31.232
327.936,930.616,36.6
213.5,880.108,26.108
183.244,811.544,39.772
285.48,742.248,37.82
489.22,751.764,62.464
574.864,696.864,86.62
487.512,645.136,164.944
429.928,527.528,238.388
620.004,457.988,291.58
802.76,356.24,337.208
732.0,331.352,381.616
742.004,331.108,474.824
906.216,281.82,507.52
1006.012,235.948,536.8
1064.084,219.6,572.668
1010.648,210.084,595.36
889.136,269.132,632.204
905.728,330.864,619.516
865.712,355.02,632.692
842.776,362.34,668.316
778.116,328.18,710.04
700.036,309.392,747.616
678.076,306.952,773.48
664.9,301.584,761.28
635.376,305.0,746.152
591.456,298.412,702.964
563.396,264.252,635.62
638.548,279.38,552.172
725.656,262.788,457.744
706.38,262.3,397.476
707.356,270.84,318.908
752.74,267.424,225.7
811.3,281.576,139.568
864.248,294.02,82.716
896.212,294.02,31.964
988.688,276.94,-13.42
1079.212,258.152,-61.488
1130.208,259.86,-94.184
1134.6,283.772,-115.412
1188.768,292.068,-125.904
1220.732,275.964,-111.02
1247.816,253.272,-81.008
1207.068,227.408,-16.592
1161.684,204.228,50.996
1116.3,177.632,92.476
1095.804,167.872,135.908
1089.216,147.864,174.704
1030.168,138.836,223.016
962.824,147.864,288.896
928.908,115.168,344.284
891.088,99.796,393.328
904.02,88.328,405.04
874.496,66.368,452.864
830.82,66.612,489.708
788.364,45.872,530.212
733.952,42.456,578.524
755.912,56.12,599.996
790.316,35.38,608.536
833.504,21.228,623.42
802.76,1.22,649.772
798.612,-20.984,707.112
806.908,-53.192,748.348
840.092,-54.168,750.3
898.896,-43.188,735.416
950.624,-39.284,717.36
973.316,-43.432,694.424
962.58,-64.416,687.348
974.292,-91.988,695.888
1029.436,-97.6,679.54
1026.02,-105.408,677.588
1035.536,-100.772,659.288
1050.42,-109.068,637.084
1103.124,-106.384,599.02
1121.668,-105.652,531.188
1153.144,-76.616,462.868
1168.272,-60.024,411.14
1129.476,-51.972,351.848
1112.64,-45.384,332.816
1074.82,-55.876,270.108
1122.4,-14.396,212.524
1086.532,-0.732,196.42
1089.704,15.128,182.512
1026.996,25.132,190.808
1056.764,46.604,188.368
1047.98,49.532,196.908
1091.168,48.8,205.448
1140.944,61.244,233.264
1172.42,53.436,290.604
1225.368,46.116,342.82
1284.904,45.14,407.236
1323.212,49.532,442.128
1282.952,44.896,465.308
1243.912,75.884,493.368
1213.656,110.288,525.332
1239.032,149.328,518.5
1182.424,206.18,506.544
1051.152,253.76,477.02
953.552,314.76,428.708
869.616,396.012,377.468
764.696,460.428,346.968
709.552,516.06,301.828
635.132,571.936,274.744
571.936,615.612,247.172
525.82,648.796,223.748
511.18,689.788,209.108
470.188,722.24,192.76
368.196,728.828,181.78
288.164,735.66,154.208
218.624,728.828,117.852
77.104,699.304,107.116
-49.532,678.32,96.624
-149.084,679.052,111.264
-257.176,708.332,132.98
-250.832,755.424,119.316
-260.104,793.0,148.108
-325.496,824.476,163.724
-411.14,828.868,155.672
-418.704,840.092,132.98
-390.156,864.248,115.9
-285.968,906.704,93.208
-181.536,960.872,85.888
-121.512,1003.572,94.184
-78.812,1025.044,96.38
-43.188,1017.968,100.528
-26.352,997.716,70.516
-14.152,1006.5,39.772
-57.584,1027.728,35.136
-106.384,1026.264,41.724
-81.984,1015.284,34.16
-56.12,996.496,35.868
-48.312,981.612,52.216
-68.808,975.024,70.76
-80.52,974.292,87.352
-71.492,976.976,97.6
-64.172,976.488,106.14
-34.892,985.76,100.528
-17.568,997.96,83.448
-54.168,987.712,75.152
-107.116,986.248,72.712
-80.276,991.86,64.904
-80.032,980.636,60.756
-53.924,980.392,51.484
-15.372,993.568,55.876
-22.692,996.984,61.488
-64.416,979.904,51.972
-88.328,970.388,41.48
-115.168,970.388,40.992
-81.008,976.732,41.236
-54.168,979.66,48.312
-27.572,988.932,42.212
-33.184,988.2,48.312
-54.656,973.804,53.436
-50.752,964.532,52.948
-56.12,970.388,48.556
-45.384,987.956,40.504
-36.6,1001.864,36.6
-47.824,996.496,33.428
-72.224,986.248,27.816
-63.196,990.884,25.62
-61.976,996.008,33.672
-51.484,1002.596,41.48
-37.82,997.228,44.408
-40.26,986.736,56.12
-28.792,985.516,58.316
-17.568,989.176,53.924
-26.352,995.032,40.748
-43.188,992.592,33.428
-70.516,980.88,27.084
-83.448,977.464,21.716
-71.004,976.976,23.912
-52.948,982.1,30.012
-50.752,996.008,38.064
-56.364,998.448,34.16
-80.52,996.984,46.116
-87.108,997.716,43.432
-53.924,1006.256,47.336
-49.288,1006.256,47.092
-46.848,1015.04,40.504
-54.168,1025.288,43.676
-84.18,1036.024,43.676
-118.096,1055.056,48.556
-78.324,1067.012,52.216
-41.48,1072.868,49.288
-44.652,1076.284,58.316
-101.748,1079.212,67.1
-131.028,1077.504,78.08
-122.244,1066.28,61.0
-24.4,1064.328,48.312
45.872,1074.82,47.58
101.992,1076.528,58.316
113.948,1044.808,64.904
84.668,980.636,44.652
158.844,944.768,41.236
180.072,920.856,34.16
241.072,917.196,56.608
335.988,892.064,102.236
394.06,833.26,97.356
355.508,777.628,98.82
391.376,771.284,121.024
426.512,718.336,88.816
454.572,664.412,134.932
515.572,635.132,192.516
586.332,583.892,225.944
609.268,524.844,247.172
708.088,506.3,252.052
772.504,485.804,212.524
742.736,450.912,203.496
717.848,424.072,274.5
864.004,351.116,335.012
938.424,285.236,425.048
1010.16,215.696,507.032
997.228,202.764,537.288
949.648,237.168,542.656
922.564,257.664,578.524
980.88,251.076,582.184
933.544,233.02,645.868
918.172,218.136,710.772
857.172,222.528,736.88
823.012,250.588,737.612
811.544,292.8,731.512
786.9,307.196,742.98
764.696,287.92,753.96
786.9,264.008,759.084
765.184,245.464,746.396
743.468,258.152,709.064
712.724,280.356,667.828
679.54,298.168,606.096
680.272,309.636,552.172
667.828,293.044,485.804
697.596,299.144,418.216
672.708,291.336,352.336
696.376,304.268,284.504
743.224,296.46,212.524
760.792,303.536,153.72
828.624,320.372,111.264
890.844,306.464,40.992
956.236,290.116,-19.032
983.32,284.748,-48.556
965.996,305.976,-82.228
1034.072,305.488,-123.464
1100.196,292.8,-149.816
1158.756,286.7,-156.892
1157.78,304.512,-149.084
1129.964,297.68,-128.588
1139.236,275.476,-104.676
1119.716,248.392,-73.932
1086.532,241.072,-42.944
1038.708,252.54,-2.196
1006.256,249.856,32.94
976.0,239.608,60.756
980.392,218.624,113.216
962.58,188.856,168.604
943.792,146.644,216.916
943.06,129.076,252.052
948.672,116.144,288.164
893.528,109.312,325.74
869.86,104.188,365.512
888.648,90.768,391.62
873.764,64.904,449.692
818.864,43.92,482.144
827.892,7.32,498.248
883.524,-13.176,528.26
848.388,-39.04,545.34
861.076,-42.7,559.98
856.684,-50.264,606.584
836.188,-43.432,656.604
874.984,-72.224,692.96
929.152,-99.796,696.864
966.24,-113.46,677.344
1000.4,-105.408,649.04
1031.876,-87.596,655.14
1018.944,-83.936,663.924
1099.464,-85.4,641.476
1128.256,-114.436,645.136
1151.436,-131.76,644.404
1182.912,-128.832,623.176
1187.548,-147.132,579.988
1155.584,-134.444,510.204
1211.216,-97.6,469.456
1242.692,-97.112,454.084
1334.192,-67.1,386.008
1343.708,-73.932,296.46
1144.848,-78.812,229.36
1112.396,51.24,198.372
1239.032,90.768,163.968
1284.66,99.308,144.204
1288.808,107.848,164.456
1141.676,78.812,211.548
1030.168,132.248,233.264
1055.3,187.392,251.808
1119.228,241.804,263.764
1163.148,295.484,260.348
1081.164,307.928,289.384
984.296,328.424,285.968
923.296,350.14,300.364
920.124,391.376,305.244
928.908,420.656,305.0
910.852,450.424,310.124
849.608,470.92,327.448
781.044,481.9,325.984
732.488,503.616,332.572
711.26,540.704,325.984
742.736,572.18,331.352
730.048,621.956,346.724
671.732,639.036,329.644
641.964,649.284,324.276
591.944,671.976,326.716
526.308,697.352,315.98
476.532,709.796,286.212
407.968,719.312,259.616
354.532,731.024,221.796
250.588,737.368,201.788
106.384,734.684,203.496
45.14,754.936,194.468
-15.128,782.996,192.028
-61.488,812.032,205.448
-67.1,828.38,173.24
-120.536,830.332,135.42
-215.452,820.816,109.312
-342.332,830.576,99.064
-425.78,846.924,86.864
-446.276,882.792,62.22
-345.504,942.816,52.46
-214.964,982.344,72.468
-127.124,990.152,71.248
-69.052,996.008,83.448
-53.192,974.536,105.652
-43.432,958.188,119.804
16.836,970.388,110.288
64.172,994.544,102.968
81.984,1027.972,90.524
26.596,1031.876,92.964
-20.252,1022.848,85.888
-23.424,998.204,70.028
-25.376,987.224,72.712
-34.16,982.832,76.128
-32.208,992.836,88.328
-42.456,988.932,96.136
-20.74,987.224,101.992
-35.136,978.196,101.748
-23.424,975.756,93.94
-38.796,975.756,96.38
-38.552,977.464,92.232
-28.792,986.248,93.94
-29.28,979.416,94.428
-34.16,971.608,89.06
-28.304,974.048,84.668
-15.372,984.296,83.448
2.44,998.448,84.912
7.564,1004.792,91.744
0.244,999.424,91.744
-10.248,986.248,83.448
-12.444,984.54,81.496
7.076,997.472,78.08
15.616,1003.816,81.008
1.22,997.228,81.74
-24.156,983.32,87.84
-37.82,969.9,88.084
-32.696,974.78,91.988
-5.612,988.688,99.308
5.124,992.836,103.456
-2.928,990.64,104.92
-5.368,986.98,103.456
-7.32,982.832,104.188
4.636,986.248,101.992
21.228,998.448,106.14
12.2,1001.62,107.604
-17.324,988.444,99.064
-53.924,973.072,97.844
-26.596,980.88,91.012
10.492,1006.256,94.672
12.2,1020.896,95.648
-10.736,1027.484,105.896
-42.456,1023.336,113.704
-73.444,1018.212,119.316
-93.696,1010.404,112.972
-102.48,1002.596,108.824
-107.604,1007.72,102.236
-91.744,1038.708,114.192
-72.468,1056.52,122.732
-85.4,1057.252,129.808
-86.62,1046.76,134.2
-95.16,1053.348,140.056
-43.92,1057.984,134.932
2.44,1044.564,111.508
-23.424,1027.24,73.2
-37.576,1013.332,67.588
-47.336,994.3,86.132
94.428,1004.304,95.648
188.124,978.928,81.252
150.06,945.012,41.724
69.54,925.736,18.056
56.364,906.46,10.736
190.808,896.7,14.396
326.96,839.36,29.768
388.936,856.196,78.812
419.68,823.5,78.568
383.812,802.028,91.5
337.208,739.564,106.872
410.164,678.564,98.088
533.872,676.368,121.268
587.064,689.056,147.62
778.848,634.644,154.452
807.884,579.012,189.832
679.784,537.532,197.884
570.716,475.068,231.8
715.652,447.74,278.648
895.968,423.096,281.088
994.544,403.088,295.972
995.52,394.304,379.664
926.224,352.336,399.428
930.86,344.528,435.296
906.46,371.124,437.98
933.3,398.452,413.336
956.236,410.896,428.952
916.22,416.508,443.592
967.216,393.816,467.504
980.392,379.176,518.012
978.44,374.54,554.612
927.444,345.992,559.736
939.4,346.968,563.884
960.384,364.048,542.168
940.864,375.272,525.82
885.476,363.56,499.468
863.028,353.8,497.272
811.056,335.988,474.58
806.664,325.74,444.324
794.708,339.16,376.004
819.84,351.116,284.016
818.62,373.564,200.568
806.908,396.256,147.376
792.024,391.132,121.512
756.644,390.888,99.552
800.564,376.248,30.256
813.74,358.924,11.224
826.672,349.408,-12.932
832.772,351.116,-80.52
867.42,359.168,-115.656
923.54,345.016,-136.884
955.992,315.736,-156.892
984.54,305.976,-188.612
1043.344,290.604,-213.988
1052.616,286.7,-207.4
1099.464,292.556,-203.496
1099.708,259.616,-185.196
1101.416,243.756,-168.116
1084.824,222.284,-129.32
1104.1,222.284,-111.752
1082.872,219.6,-80.52
1067.012,215.94,-60.024
1070.428,206.912,-25.132
1081.408,177.388,10.248
1052.616,182.268,83.936
990.64,165.92,141.764
937.204,137.616,189.832
965.996,133.224,220.576
958.432,120.292,272.06
909.632,123.464,301.828
895.236,114.192,317.2
888.648,99.064,334.036
899.628,101.016,355.996
913.292,98.82,390.156
887.184,81.74,408.944
907.924,81.496,414.068
934.764,71.492,431.148
922.564,74.176,463.112
923.052,54.168,485.804
941.108,30.988,519.476
945.256,11.956,524.844
942.084,11.224,516.304
979.904,38.552,528.26
982.1,27.328,532.408
1018.212,8.296,550.708
1038.22,-6.344,566.324
1060.912,-1.952,565.348
1086.044,0.976,558.516
1133.38,-3.416,540.216
1143.384,-21.716,526.064
1160.464,-31.964,489.708
1193.16,-39.04,413.092
1155.584,-35.624,376.736
1136.308,-36.356,336.232
1130.94,-27.816,273.524
1123.376,-17.324,218.136
1110.932,-29.036,165.432
1161.196,7.564,47.336
1125.572,27.084,-22.936
1076.772,61.0,-42.7
1056.52,57.828,-25.376
1019.676,41.724,15.616
1054.324,5.612,38.064
1072.38,-14.884,49.532
1058.716,-15.372,58.804
1065.548,-3.172,64.172
1088.484,13.176,75.396
1179.008,8.784,103.212
1285.148,3.416,125.904
1337.608,13.908,167.384
1354.688,39.04,218.624
1388.116,46.848,253.272
1352.492,40.992,282.308
1323.7,41.48,322.324
1329.068,108.336,315.492
1277.34,162.748,314.516
1151.192,225.944,295.24
1089.704,277.672,249.368
972.828,367.952,220.82
867.176,428.952,195.444
817.156,505.568,175.192
763.476,548.024,144.204
676.124,587.308,140.056
599.752,625.128,131.76
518.988,666.852,130.296
436.272,691.496,121.268
396.744,713.7,111.02
384.3,728.34,101.748
351.116,745.176,99.308
218.868,757.62,114.436
115.168,764.452,120.048
96.624,782.02,123.708
77.104,814.716,140.3
59.536,803.98,141.032
10.248,794.464,132.736
-32.696,792.024,118.584
-80.032,797.636,103.944
-176.9,810.324,96.624
-312.808,831.552,109.068
-349.408,859.368,102.236
-324.764,894.26,99.552
-266.204,931.104,105.896
-237.9,954.284,111.752
-228.872,943.06,94.672
-250.344,917.928,77.348
-247.904,923.296,73.688
-243.024,949.16,84.424
-259.372,961.116,93.452
-236.68,952.088,98.332
-183.0,952.088,107.116
-117.12,959.896,109.312
-98.088,973.804,112.728
-104.92,983.32,105.652
-110.044,992.104,101.748
-100.528,996.74,91.012
-107.604,1000.4,84.18
-119.804,997.228,72.956
-142.008,996.008,79.544
-143.96,984.052,82.96
-119.316,973.804,75.152
-129.076,957.944,66.124
-158.356,950.136,61.732
-192.516,952.576,79.544
-172.752,969.412,91.5
-115.412,985.516,91.744
-116.632,982.1,100.772
-112.972,977.952,102.236
-137.128,975.268,108.58
-140.788,972.584,90.768
-157.136,971.608,79.056
-142.496,979.904,72.224
-121.512,993.812,69.54
-132.736,989.664,68.32
-123.464,983.076,64.904
-127.856,973.804,59.536
-140.056,975.268,69.54
-156.648,970.144,73.932
-144.692,971.12,79.3
-127.124,983.564,81.008
-118.828,981.368,76.86
-118.34,975.512,76.128
-139.08,960.14,73.2
-161.04,958.188,77.104
-158.844,975.024,74.908
-151.524,994.544,68.32
-132.492,1001.376,64.904
-119.316,996.252,68.076
-123.708,981.612,67.832
-132.736,978.196,68.32
-148.84,980.88,75.152
-167.384,973.56,80.032
-168.848,968.436,91.5
-162.26,963.8,102.48
-150.06,964.776,109.8
-140.056,967.948,109.8
-134.2,960.384,97.356
-137.616,956.724,87.596
-132.492,964.532,76.616
-128.344,971.364,63.44
-132.004,974.048,48.556
-140.056,973.804,32.208
-150.304,978.684,32.696
-146.4,980.148,36.844
-143.228,981.856,47.092
-129.076,989.664,61.244
-120.048,987.956,76.616
-117.852,979.66,87.84
-94.428,978.196,83.448
-113.948,961.604,69.54
-152.744,952.576,57.096
-164.944,955.992,50.264
-155.184,966.972,38.064
-151.768,969.412,20.008
-158.844,966.24,16.592
-162.26,966.728,22.692
-161.528,967.704,36.844
-165.432,967.948,51.972
-167.384,968.436,60.756
-146.644,982.344,68.076
-124.928,996.008,78.812
-112.972,1000.156,87.352
-99.064,999.424,89.304
-92.232,996.984,93.696
-109.556,997.228,91.256
-133.956,990.396,84.424
-139.08,989.42,77.348
-133.956,982.832,72.956
-131.272,972.34,68.564
-137.372,970.388,65.392
-149.328,976.488,65.392
-162.26,980.392,71.004
-147.62,979.904,75.152
-104.432,986.736,75.884
-83.448,989.908,70.028
-84.668,990.152,62.952
-107.848,983.808,59.048
-116.144,969.656,49.288
-125.66,969.9,42.456
-120.292,973.56,40.504
-87.596,971.608,43.92
-61.732,948.672,33.428
-64.904,933.3,10.004
-84.18,944.036,-6.832
-111.264,963.068,-16.592
-134.688,979.904,-12.932
-125.904,997.716,-1.22
-88.572,1011.624,16.104
-53.924,1009.916,30.5
-37.332,993.324,47.092
-42.944,968.924,52.216
-93.208,945.5,57.34
-139.812,940.132,66.124
-166.164,952.088,78.812
-169.824,965.996,97.6
-142.496,980.148,113.46
-116.876,988.2,121.268
-81.252,1000.644,126.636
-59.048,998.936,131.028
-51.484,993.812,125.904
-65.148,980.392,115.9
-98.576,968.436,105.408
-122.488,960.384,104.188
-127.368,964.532,98.332
-113.704,970.388,94.916
-89.06,986.248,95.16
-81.252,996.008,98.088
-81.496,1010.16,111.264
-81.008,1016.504,132.492
-86.132,1010.404,144.692
-97.356,1000.156,147.376
-92.476,998.936,143.472
-78.812,1006.256,140.3
-58.56,1012.356,130.296
-43.432,1015.528,123.22
-37.332,1003.572,109.068
-59.048,980.88,92.72
-88.572,961.36,82.716
-107.848,958.432,78.324
-107.604,963.312,81.252
-98.332,961.848,83.204
-87.596,957.212,79.3
-92.72,957.7,78.812
-106.628,966.24,80.032
-109.312,973.072,80.52
-96.136,976.488,82.716
-94.672,972.34,76.128
-107.848,972.828,65.88
-112.972,977.952,61.732
-102.48,990.396,60.512
-86.62,987.956,67.832
-81.496,979.172,71.98
-84.424,969.9,70.516
-103.456,972.34,66.368
-100.772,984.784,62.708
-82.228,993.324,65.148
-61.976,998.204,68.808
-39.284,997.228,75.152
-51.24,982.832,68.564
-82.716,969.412,58.072
-106.628,963.068,55.632
-112.24,960.14,58.072
-111.264,964.044,67.1
-118.584,970.144,79.544
-124.684,969.656,96.136
-123.952,969.168,113.46
-115.168,966.24,120.048
-116.144,957.212,114.436
-111.02,949.16,99.552
-102.48,948.184,74.176
-103.212,956.48,52.704
-91.012,982.1,42.212
-74.664,1004.548,46.604
-63.44,1010.648,61.244
-59.048,1004.548,76.86
-53.68,998.692,83.692
-33.428,1003.328,86.132
-5.124,1009.184,89.548
15.616,1004.548,77.592
13.42,992.104,63.684
-20.496,976.732,55.388
-63.196,974.536,59.536
-86.132,975.268,71.98
-83.204,982.588,82.228
-67.832,981.368,88.084
-43.432,987.956,98.088
-40.748,988.688,107.36
-38.064,998.204,129.564
-32.94,1004.304,151.768
-7.808,1008.696,160.796
11.468,1005.036,163.236
20.984,1000.4,150.304
35.624,1002.84,125.416
19.764,1006.012,116.144
-6.344,1009.916,103.212
-29.036,1012.356,94.672
-46.36,1009.916,94.672
-43.432,1007.72,100.528
-22.692,1007.476,105.896
-11.224,997.228,109.556
-31.964,982.832,120.536
-51.728,976.732,135.664
-53.436,972.34,147.62
-14.152,973.072,151.524
5.124,966.972,139.324
-8.784,963.068,116.876
-33.672,948.916,96.624
-55.388,929.396,71.492
-79.056,922.564,41.968
-118.34,941.596,26.84
-147.132,979.416,25.376
-136.152,1015.772,35.624
-65.88,1021.384,42.212
-30.5,998.204,38.064
-81.252,970.632,41.48
-133.468,957.212,35.868
-140.544,960.872,42.456
-125.416,974.78,43.676
-101.26,985.028,38.796
-73.688,997.472,34.892
-56.364,1001.864,36.6
-44.896,1005.524,48.312
-36.6,998.448,55.388
-34.648,987.956,62.952
-48.068,981.368,69.784
-63.684,973.56,72.956
-68.808,964.776,64.904
-85.644,961.36,57.096
-92.72,967.704,48.312
-99.308,981.124,46.848
-105.652,983.564,48.068
-95.404,986.004,50.752
-87.108,990.884,58.56
-71.736,989.908,64.172
-64.904,986.736,70.76
-80.032,986.736,75.396
-95.16,986.98,79.3
-108.824,980.636,81.984
-112.972,975.756,79.544
-129.32,972.34,79.056
-121.268,972.096,73.444
-93.452,985.516,58.072
-74.664,1003.572,35.868
-94.428,1004.792,17.08
-112.484,996.008,7.808
-121.756,989.42,15.86
-121.756,987.224,38.064
-122.0,975.756,54.412
-113.46,955.504,62.952
-117.12,946.964,68.076
-132.492,951.356,65.88
-139.08,964.288,65.392
-130.296,983.808,66.612
-113.216,995.52,59.536
-109.068,992.348,51.24
-116.632,986.004,45.872
-127.368,988.444,50.02
-141.52,997.228,55.632
-141.764,1002.84,61.732
-129.076,1001.864,66.124
-125.416,993.324,65.88
-126.392,986.248,65.88
-136.396,981.368,60.024
-136.152,977.952,48.312
-151.524,978.196,36.112
-144.448,988.444,27.084
-134.2,1010.648,22.448
-130.296,1025.532,27.328
-142.008,1035.048,34.892
-161.528,1038.22,39.772
-181.536,1038.952,39.284
-205.692,1040.66,30.5
-255.468,1030.168,13.176
-335.012,1023.092,-15.616
-354.288,1028.46,-45.872
-354.288,1022.604,-68.564
-326.228,1016.504,-88.084
-308.172,1010.648,-106.384
-330.132,1007.476,-118.34
-448.228,992.836,-140.3
-488.976,964.288,-171.288
-587.796,930.372,-191.54
-460.672,896.212,-167.384
-273.28,856.44,-170.068
-94.672,814.472,-168.604
39.772,789.096,-204.96
121.268,786.656,-193.492
129.32,736.636,-176.168
273.524,665.876,-129.076
439.932,598.532,-44.896
576.816,541.924,69.784
506.788,426.756,236.192
532.164,365.268,339.404
801.052,356.728,436.76
911.34,327.204,488.732
972.584,276.452,604.876
925.98,269.62,739.076
885.72,267.18,854.244
860.588,263.764,968.436
895.48,286.7,996.252
872.3,256.688,1028.216
807.396,237.656,1117.032
745.908,155.184,1237.812
661.484,5.856,1374.94
512.888,-89.06,1285.148
345.016,-43.432,1150.704
375.516,69.54,926.468
378.2,94.184,585.356
479.704,123.464,258.152
527.04,108.58,-14.64
572.424,146.156,-248.88
715.652,250.1,-487.756
854.976,276.208,-742.004
936.472,325.496,-912.56
984.54,360.388,-967.948
1039.928,294.996,-980.88
1148.996,225.944,-927.932
1218.048,216.428,-858.148
1240.984,288.652,-780.556
1239.764,304.756,-682.224
1253.672,268.4,-550.22
1267.092,190.564,-392.352
1249.28,144.936,-242.78
1183.888,117.364,-78.812
1037.488,92.72,47.092
951.844,118.096,159.82
957.944,119.072,296.704
972.584,82.716,394.06
853.512,29.768,532.408
701.744,-16.836,648.064
590.236,-62.22,701.988
519.476,-69.784,764.452
610.732,-47.58,768.6
652.456,31.232,830.088
526.308,19.032,952.82
467.26,-60.268,1084.58
558.272,-204.472,1225.612
771.284,-279.624,1292.468
857.172,-269.376,1342.732
882.304,-216.672,1365.18
907.924,-224.724,1335.9
1050.42,-259.616,1257.82
1183.644,-258.64,1104.1
1322.236,-227.652,865.712
1367.376,-202.52,590.236
1503.04,-81.496,241.56
1478.884,28.304,-33.916
1442.528,132.98,-267.18
1459.12,235.704,-436.76
1363.716,246.196,-507.52
1230.004,211.792,-454.816
1088.728,160.796,-302.804
1092.144,92.964,-141.764
1147.532,51.24,40.26
1085.8,44.164,171.044
1052.372,81.496,224.48
1078.724,124.196,262.056
1035.048,192.76,274.256
1064.816,253.272,274.5
1115.08,261.812,277.428
1121.18,267.424,291.092
1076.04,279.624,305.976
1054.568,276.208,322.08
1047.492,302.804,329.156
1058.228,332.816,326.228
1101.172,362.096,342.332
1045.784,383.08,356.972
957.212,412.116,368.928
935.252,455.304,345.016
873.276,515.328,314.76
782.508,542.412,293.532
728.34,595.848,263.032
704.916,629.764,238.876
620.492,684.42,218.624
572.18,699.792,197.152
535.824,705.16,179.584
472.14,716.14,164.7
365.756,704.184,165.188
317.2,730.78,148.596
258.884,746.396,148.596
191.052,770.308,167.384
46.36,795.196,200.568
-32.696,807.884,196.42
-56.852,802.028,182.268
-86.376,813.984,183.976
-121.268,830.088,176.9
-165.92,831.064,171.044
-245.464,834.48,191.784
-282.796,851.56,194.712
-245.708,883.28,189.588
-135.664,931.836,180.316
-37.332,970.144,176.412
-40.504,970.876,180.072
-53.924,962.336,170.8
-16.104,967.216,153.72
36.356,989.908,150.304
96.624,1029.924,153.964
108.092,1048.956,159.82
101.016,1039.684,151.768
102.968,1038.708,136.884
77.348,1027.728,129.32
46.36,1023.58,127.124
14.396,1009.428,124.196
3.172,997.472,116.632
15.86,996.984,111.752
22.692,996.984,113.46
32.208,993.08,119.316
40.016,971.852,127.124
37.332,938.18,130.54
41.236,924.272,134.444
31.72,926.712,139.568
17.568,925.736,137.616
17.08,934.032,137.372
18.544,933.544,137.128
24.888,941.596,133.224
19.276,957.212,133.712
13.664,971.852,136.64
31.476,995.52,138.592
50.752,1007.476,142.496
50.996,1012.356,150.06
82.716,1022.116,151.524
97.112,1027.728,152.744
77.348,1012.6,147.62
53.436,997.228,150.304
48.8,986.492,151.036
48.556,980.636,145.912
40.016,972.34,142.74
27.572,960.872,141.764
17.08,956.236,144.936
-0.244,953.308,139.812
-21.716,956.968,127.856
-30.012,973.804,128.344
-17.324,997.472,137.86
27.084,1016.26,143.96
51.728,1018.7,145.912
59.536,1010.16,148.352
38.064,996.008,156.892
19.52,982.1,160.552
15.86,983.808,156.404
22.692,988.444,143.472
6.1,993.08,140.056
16.836,998.448,135.42
24.4,995.276,139.568
19.276,984.296,141.764
11.468,979.904,144.204
10.004,977.22,145.424
22.204,982.832,141.276
30.5,992.104,139.812
20.74,997.716,134.688
15.128,999.668,125.66
14.396,1008.452,118.584
17.08,1015.528,119.804
15.86,1028.46,124.684
2.196,1025.532,125.416
-0.732,1024.312,133.224
-5.856,1030.168,140.056
-14.152,1041.88,139.324
-40.26,1047.98,141.276
-57.828,1055.3,128.1
-98.088,1052.86,112.484
-145.668,1048.468,92.232
-183.244,1049.2,77.836
-209.352,1042.612,75.64
-251.564,1045.052,71.98
-302.072,1040.172,69.052
-342.82,1010.892,43.432
-420.412,999.912,2.196
-466.528,989.664,-37.332
-477.752,986.248,-75.152
-494.832,992.348,-96.136
-470.676,996.496,-112.24
-419.68,976.976,-106.628
-376.98,926.956,-92.964
-254.248,838.872,-88.816
-190.076,767.624,-104.676
-67.588,648.796,-111.996
95.404,588.04,51.972
461.16,434.808,114.924
782.996,319.152,104.92
738.588,307.196,192.272
474.824,316.956,337.208
775.432,222.284,308.416
1188.524,104.432,343.552
1325.164,116.876,449.204
1178.276,170.556,560.956
1007.72,224.724,628.056
927.688,249.612,695.156
933.788,282.064,696.62
982.1,303.048,745.176
968.924,308.172,772.748
866.932,275.964,817.156
852.292,268.644,883.768
847.168,243.512,934.032
836.188,201.056,956.236
772.016,187.636,900.848
735.66,200.08,818.864
686.128,178.608,723.704
588.528,146.888,641.72
472.628,122.732,581.696
433.344,126.148,464.576
486.048,106.628,295.972
588.772,121.512,65.636
635.132,146.888,-151.768
755.912,187.88,-405.04
904.02,222.04,-631.96
997.716,270.352,-771.528
1088.728,299.144,-881.084
1162.416,302.072,-999.424
1251.72,305.732,-1087.508
1363.716,277.916,-1140.212
1410.808,249.612,-1110.932
1364.936,223.504,-966.24
1250.256,117.12,-750.544
1144.116,17.08,-518.988
1054.812,-38.308,-285.236
993.324,-34.892,-113.46
967.216,-45.872,87.108
885.476,-94.184,274.5
673.928,-142.252,500.932
571.936,-178.12,657.58
629.032,-186.66,809.348
711.016,-228.628,921.1
758.108,-214.232,1026.752
682.468,-207.888,1124.84
591.456,-188.368,1170.712
634.644,-183.488,1148.02
743.224,-131.028,1129.964
826.916,-95.404,1136.796
838.384,-114.68,1155.096
927.2,-174.216,1165.344
1022.36,-222.04,1130.452
1124.84,-218.38,1007.232
1212.68,-191.052,843.02
1261.724,-159.576,687.592
1326.628,-128.832,524.6
1345.172,-107.848,372.588
1400.56,-57.34,193.492
1483.032,-22.692,31.964
1390.312,-10.98,-69.54
1248.06,51.24,-132.004
1175.836,99.308,-238.632
1169.736,192.516,-369.66
1161.928,207.644,-390.4
1094.096,173.728,-284.748
1037.732,153.964,-159.576
1076.772,102.236,-21.96
1189.988,61.976,87.108
1208.532,85.888,167.872
1197.064,120.536,217.404
1272.216,159.088,220.576
1376.648,190.32,238.388
1392.996,233.264,258.152
1279.292,244.488,290.848
1209.264,270.352,263.764
1141.676,299.144,251.32
1090.924,351.36,232.044
1001.132,403.576,231.556
955.26,448.96,220.332
900.848,497.028,230.092
843.508,523.38,214.476
774.212,549.976,217.16
676.612,605.608,225.212
572.424,611.464,224.968
560.712,616.1,210.328
553.636,643.184,203.252
482.632,656.604,208.132
454.084,675.88,209.352
395.036,695.644,210.572
303.78,710.04,186.172
207.4,720.776,174.46
232.044,760.792,155.916
196.42,781.776,152.5
135.664,792.512,178.608
83.204,797.88,175.192
22.448,814.228,168.116
-23.18,841.312,156.404
-84.18,850.34,144.692
-178.852,862.784,130.54
-261.568,866.2,119.804
-221.308,890.112,98.088
-183.488,911.584,98.576
-200.812,931.836,108.824
-233.996,935.984,123.22
-228.628,920.612,128.1
-198.616,928.176,132.98
-104.432,958.432,137.372
-5.612,985.028,146.4
70.272,1006.256,140.3
96.136,1014.552,134.2
57.096,1001.62,142.496
30.012,996.008,147.62
32.208,1002.84,142.252
20.008,1001.376,134.932
-11.712,982.588,131.76
-39.528,965.264,134.444
-24.4,958.676,133.712
-9.516,973.804,142.984
22.936,983.076,149.572
30.744,988.688,159.576
10.004,971.852,165.676
14.152,965.752,163.48
26.84,977.464,163.968
30.5,987.224,162.748
53.68,1001.132,162.992
43.676,1000.888,162.748
8.54,983.076,152.744
-30.988,953.308,143.96
-32.94,949.404,141.032
15.86,975.268,145.424
61.976,1001.864,145.912
59.78,1008.94,142.984
27.572,997.228,153.964
22.692,986.248,161.04
38.796,990.396,158.356
38.064,994.056,154.208
34.404,1006.744,153.232
27.328,1000.644,142.74
15.86,992.836,132.98
15.86,993.812,120.536
2.196,991.86,126.148
5.368,977.22,140.3
15.616,956.968,158.844
4.392,933.788,170.068
-6.344,928.664,171.532
-9.272,936.472,162.992
5.124,961.116,154.94
30.256,996.252,148.84
45.628,1025.044,146.4
53.436,1038.464,142.252
42.7,1039.196,142.252
45.384,1037.488,148.352
63.196,1036.512,138.348
40.748,1020.896,128.1
-3.904,998.936,111.996
-38.064,984.784,106.872
-43.188,987.956,115.656
-28.304,982.344,128.588
-18.544,958.676,136.396
-25.62,935.74,141.276
-40.748,921.588,150.792
-30.744,924.272,159.088
7.32,938.424,166.408
39.772,948.672,151.524
40.016,952.332,142.74
23.424,962.092,131.76
9.76,976.732,125.904
5.124,991.616,110.776
2.196,999.668,92.964
12.444,1002.596,85.4
4.392,998.692,93.208
3.66,993.812,105.896
-0.244,978.44,122.0
-9.76,966.24,137.372
-14.396,966.972,147.864
-9.516,960.872,156.648
7.564,962.092,162.748
13.908,967.46,162.016
2.684,970.388,154.696
-10.492,971.364,131.76
-21.96,974.536,115.656
-14.884,991.86,105.652
-0.488,1007.232,101.748
15.616,1013.576,105.896
19.032,1007.72,117.608
28.792,999.668,131.028
34.892,999.18,148.596
25.132,994.3,153.964
16.348,986.98,154.452
12.2,976.976,151.28
1.952,974.292,134.688
-9.272,970.144,121.024
3.172,980.148,108.824
30.988,993.08,106.384
46.848,991.86,103.944
31.232,984.296,104.92
25.864,981.124,106.628
29.524,987.956,108.58
31.72,996.252,114.68
30.5,997.228,120.536
26.84,989.664,129.076
27.572,987.224,134.2
29.524,981.124,139.812
37.576,986.248,134.2
31.72,982.1,133.468
22.936,978.684,133.224
20.74,977.22,129.808
19.276,978.928,125.416
18.788,976.244,116.144
19.52,980.636,112.972
15.372,983.564,112.24
14.884,986.98,114.436
15.128,990.396,114.192
12.932,995.032,118.828
20.496,993.812,118.34
8.052,987.468,121.024
-4.392,986.004,123.22
-0.976,989.664,129.32
19.764,988.444,133.224
27.572,978.928,137.128
22.936,972.096,136.884
23.18,970.144,136.152
18.544,970.632,129.32
16.104,977.708,114.924
21.472,987.468,96.868
28.06,994.3,83.692
29.28,1002.596,83.204
39.04,1007.476,85.888
31.476,1000.4,100.284
33.184,992.348,114.436
35.868,981.368,122.0
31.964,977.708,127.856
22.936,974.78,132.492
24.888,975.756,127.124
18.544,976.244,122.976
16.592,977.464,113.46
9.272,980.148,106.872
13.664,986.98,106.384
19.276,995.276,102.724
17.324,999.18,102.48
11.712,991.372,111.508
8.784,985.028,119.072
-2.928,979.416,125.904
-9.028,976.732,126.148
3.904,983.808,133.956
16.348,987.224,137.616
20.74,984.052,132.248
23.18,977.952,125.416
13.176,977.708,116.876
7.076,988.688,113.46
3.66,998.692,111.752
2.684,1000.156,104.188
-4.392,994.056,102.236
-1.952,991.128,109.312
15.372,990.152,116.632
10.98,982.588,118.096
0.732,981.368,113.948
-27.328,978.44,112.972
-23.912,979.904,112.972
-2.44,982.588,118.584
15.128,991.86,122.488
15.372,989.908,119.804
10.248,982.344,113.216
12.444,985.76,109.8
2.196,989.664,110.288
-5.368,994.056,110.776
-14.396,994.056,115.412
-5.124,998.936,124.196
-15.616,1017.48,138.836
-29.28,1043.344,148.84
-29.768,1083.36,148.596
-53.192,1141.188,145.668
-118.584,1214.388,144.692
-211.304,1254.404,127.368
-223.504,1242.936,105.408
-267.18,1184.132,83.936
-356.484,1084.58,42.212
-478.484,1030.656,18.544
-492.392,999.18,6.832
-444.324,983.076,-12.2
-383.568,968.192,-41.968
-219.356,922.564,-59.78
-299.388,823.744,-131.028
-180.804,786.656,-88.084
31.72,675.636,-72.712
118.584,583.892,-39.772
157.868,528.748,-19.032
312.32,466.528,108.824
432.856,351.848,78.08
699.548,375.028,133.956
787.388,360.876,144.448
912.56,340.624,163.724
1142.408,264.008,202.52
1284.172,249.612,309.88
1227.076,267.424,428.952
1061.644,307.684,525.332
1041.392,368.928,532.652
1108.98,442.128,534.848
1055.544,463.6,541.68
974.048,456.524,614.148
891.332,446.764,660.996
834.968,445.788,710.04
812.032,458.964,765.916
773.724,423.34,825.696
688.08,363.072,906.704
588.528,279.38,971.608
518.5,202.032,971.12
527.04,195.444,908.656
530.7,216.184,770.552
523.136,227.408,616.832
464.576,195.2,474.58
518.5,186.904,264.984
604.144,142.74,77.836
669.292,124.684,-78.812
681.98,141.764,-233.996
791.536,178.12,-427.244
962.092,179.34,-655.14
1098.0,194.956,-847.656
1162.66,225.456,-966.484
1243.424,259.616,-1048.468
1335.9,273.524,-1090.924
1413.248,276.696,-1055.544
1370.792,249.856,-920.124
1218.048,185.196,-725.412
1048.712,146.4,-458.232
939.644,117.608,-215.94
958.188,105.164,30.988
977.952,-11.956,258.396
935.008,-69.052,449.936
833.26,-52.704,608.78
670.024,-38.064,708.332
632.936,23.912,756.888
703.452,30.012,831.796
800.076,34.404,903.532
842.044,27.816,1046.272
759.816,-6.344,1131.916
712.236,-17.568,1147.532
832.772,-4.636,1117.276
909.632,22.204,1073.844
913.78,42.944,1025.044
934.276,37.576,978.44
996.74,8.052,956.236
1101.66,2.928,886.94
1285.88,38.796,711.748
1323.456,55.388,534.36
1326.628,71.004,465.308
1325.896,58.072,370.636
1376.648,98.576,184.952
1392.752,114.68,32.452
1381.528,142.008,-112.972
1243.912,145.912,-238.388
1169.736,222.772,-346.236
1196.82,240.828,-352.824
1218.78,227.652,-294.752
1185.108,144.448,-108.824
1250.5,92.72,-5.124
1251.964,106.628,75.884
1229.76,169.824,101.504
1220.976,227.652,122.488
1239.764,264.496,178.852
1243.18,279.136,243.756
1246.84,272.792,293.776
1204.384,275.72,332.572
1112.152,312.808,327.204
980.148,354.776,297.924
938.668,427.0,292.8
915.976,478.972,265.228
908.656,498.98,256.688
874.008,533.14,262.056
735.172,546.072,266.448
609.268,547.78,245.708
586.088,599.508,236.436
564.128,644.16,226.188
597.8,671.0,219.6
579.5,676.368,216.184
558.028,676.612,228.872
505.08,692.96,217.404
434.32,695.156,219.356
367.708,714.676,210.328
381.128,726.876,197.396
311.344,756.4,184.22
239.364,770.308,170.068
187.392,810.812,151.036
164.456,833.26,137.86
87.596,874.496,140.3
34.648,892.064,143.716
-5.124,898.408,148.352
-29.768,897.676,138.836
-69.052,904.752,111.996
-108.58,903.532,101.504
-160.552,909.144,109.312
-224.724,908.168,118.828
-269.62,906.216,126.88
-323.544,907.436,135.176
-252.784,926.956,158.112
-123.708,942.328,158.112
-29.036,943.304,159.088
8.54,955.504,155.916
3.172,970.388,165.188
-17.812,963.312,170.8
-15.616,964.532,152.988
18.788,990.64,134.444
55.876,1013.576,120.78
72.224,1023.336,109.312
49.776,1015.284,119.072
14.64,994.056,135.176
16.348,982.588,143.96
45.384,987.712,151.524
50.996,992.836,155.916
19.276,984.296,168.116
2.44,983.564,172.996
25.132,981.368,171.532
41.236,983.564,165.432
49.532,978.196,161.04
47.092,983.076,161.772
23.424,978.44,163.724
-6.832,974.78,157.38
-14.152,970.632,152.256
2.44,978.684,153.72
9.76,984.784,154.208
30.744,980.392,140.056
43.676,985.76,135.176
47.336,988.688,137.128
57.828,990.152,138.836
54.9,994.544,150.06
60.756,993.08,143.716
55.388,986.004,133.956
26.352,986.248,134.932
5.856,980.636,133.224
0.488,972.828,135.664
5.612,971.364,134.688
20.252,979.904,136.64
25.376,981.368,140.3
18.056,976.976,147.864
9.028,974.292,148.596
5.612,974.292,145.424
27.328,978.196,144.448
28.06,981.368,149.084
37.088,978.196,148.108
36.112,981.856,141.276
21.472,984.784,136.64
9.516,984.54,130.052
20.74,992.348,128.344
43.188,993.08,123.464
43.188,988.932,125.66
36.356,984.784,130.784
18.544,978.928,146.156
5.856,970.388,147.62
1.952,966.728,142.74
21.716,970.144,133.468
41.48,978.44,129.808
42.456,987.224,126.392
27.572,987.224,129.808
7.808,979.66,131.516
6.588,978.196,126.88
16.836,982.1,129.32
31.72,986.492,135.42
33.428,986.004,140.3
20.984,981.612,143.96
1.708,971.608,145.424
0.488,968.192,147.132
7.564,966.972,148.108
14.64,972.828,145.18
23.424,982.344,133.712
14.396,984.784,132.98
13.664,989.42,135.176
20.008,985.516,141.032
22.936,981.856,142.252
26.108,981.124,136.884
24.644,983.564,136.884
23.912,986.492,134.688
15.128,988.688,135.664
18.544,984.54,134.688
37.332,993.568,144.448
32.696,997.228,155.916
21.96,998.448,161.04
15.128,989.42,159.576
9.76,983.808,149.328
5.612,983.32,141.276
15.128,996.252,141.276
17.08,1002.352,147.864
-1.22,1003.084,155.672
-14.884,1019.92,168.36
-27.816,1047.98,183.488
-38.796,1066.524,188.612
-83.448,1099.22,195.932
-129.564,1122.644,190.076
-180.072,1127.768,150.06
-232.044,1130.94,105.652
-198.128,1141.676,71.248
-101.992,1132.16,61.976
-30.744,1125.328,33.184
-112.24,1081.164,-1.22
-317.2,1037.976,-31.964
-395.524,994.3,-58.804
-143.96,955.016,-28.548
207.888,875.472,-49.288
171.776,767.136,-111.508
-64.904,811.788,4.636
-152.012,740.54,-8.296
244.244,709.796,-38.796
664.656,679.052,-24.644
676.368,598.044,12.932
449.204,551.196,105.896
463.356,528.748,151.768
694.668,523.868,131.028
802.028,517.036,163.724
872.056,486.78,199.104
820.572,470.676,271.084
648.064,492.148,338.916
739.564,500.444,326.96
847.656,541.436,322.568
841.556,545.828,329.644
830.088,507.032,379.908
788.608,492.148,407.968
747.372,511.668,406.748
744.444,516.792,388.448
656.36,478.972,451.644
823.744,368.196,476.288
934.032,284.748,529.236
884.256,244.732,583.648
964.532,213.988,596.092
966.484,239.12,582.428
1001.132,266.936,547.292
992.348,272.06,525.088
1007.72,257.908,527.04
1043.832,236.924,550.22
1049.444,235.216,565.104
1023.336,251.564,563.884
976.0,280.356,561.688
911.34,303.78,539.24
881.084,328.912,517.28
891.576,329.644,507.276
906.46,320.616,508.984
925.98,284.504,553.148
902.8,278.648,610.732
826.672,255.224,676.856
848.144,249.368,753.716
821.792,220.82,840.092
770.796,141.276,916.464
645.136,83.692,983.808
570.716,66.612,963.8
616.344,71.492,899.628
618.54,67.1,792.512
599.752,60.512,613.172
532.164,21.472,409.92
575.84,102.48,149.572
569.252,84.912,-50.264
682.224,94.428,-292.312
773.48,69.54,-504.592
932.08,142.496,-738.588
1012.6,137.128,-910.12
1097.268,175.192,-1105.076
1147.776,166.652,-1226.1
1271.24,161.772,-1274.168
1335.168,133.956,-1183.4
1275.144,154.94,-1000.156
1128.256,64.66,-697.108
1118.252,-12.688,-438.956
1128.744,-91.744,-167.384
1161.196,-70.272,23.18
1015.772,-51.484,205.204
746.64,-59.536,411.384
757.62,-70.028,532.652
842.288,-127.368,655.384
807.152,-141.764,762.988
744.932,-173.24,846.192
776.164,-151.28,909.144
777.384,-110.532,920.368
762.012,-62.464,887.672
798.612,-71.98,865.224
874.496,-65.88,877.18
883.768,-102.236,947.696
847.656,-126.636,1008.452
906.46,-126.88,1031.388
1072.624,-132.492,1004.304
1161.928,-113.216,989.176
1175.348,-153.232,993.812
1246.596,-218.624,960.14
1378.844,-245.952,796.416
1486.692,-221.552,596.58
1408.368,-176.656,428.22
1340.048,-115.9,189.832
1371.768,-46.36,-39.772
1312.72,-17.812,-136.884
1258.552,-24.156,-167.872
1208.776,-23.668,-230.092
1149.972,-29.768,-253.272
1087.752,4.88,-278.16
977.952,73.444,-269.132
983.808,114.192,-283.772
1067.5,141.764,-239.364
1143.14,146.4,-134.688
1212.68,125.66,16.592
1160.22,111.264,150.06
1139.724,121.756,219.6
1172.42,149.328,261.568
1237.568,196.176,291.336
1241.472,216.428,314.028
1188.768,234.972,338.184
1099.464,243.512,345.992
1011.624,265.472,315.98
965.02,330.376,313.052
976.0,382.348,304.512
1008.696,415.776,296.46
891.576,439.932,315.736
791.292,438.956,316.468
747.372,457.744,304.756
753.96,514.352,282.308
754.692,555.1,259.372
718.092,604.388,249.368
667.34,631.96,245.708
583.892,639.28,250.832
590.724,653.188,226.676
545.34,664.9,218.38
530.7,693.692,212.524
494.344,733.708,197.884
429.196,751.032,181.048
350.628,765.184,171.288
324.032,784.704,155.672
290.116,801.54,133.224
204.716,822.036,139.568
122.732,853.268,152.5
76.86,871.324,159.82
50.02,861.564,162.748
74.664,863.272,153.72
48.312,865.956,148.108
-55.144,859.368,138.836
-182.756,855.22,138.836
-255.956,852.048,149.084
-234.484,860.588,149.084
-210.328,881.572,140.056
-171.044,915.244,128.344
-200.568,947.208,133.468
-253.76,951.844,148.596
-250.588,949.16,164.944
-173.972,958.676,164.7
-101.748,973.072,155.672
-102.236,991.86,166.896
-155.184,988.444,175.436
-249.612,948.672,190.076
-280.844,937.936,182.756
-263.764,932.568,179.34
-247.904,936.472,185.196
-242.048,942.572,177.388
-239.12,938.912,170.8
-247.66,927.688,165.92
-216.672,927.444,166.408
-204.228,928.664,183.488
-199.104,929.396,181.78
-211.548,917.44,171.532
-248.392,906.46,165.92
-269.62,911.828,162.992
-239.364,945.5,165.92
-175.192,982.344,165.188
-144.936,998.936,165.676
-133.956,1002.596,161.528
-147.864,992.592,159.332
-163.968,977.464,155.428
-165.676,979.904,151.28
-161.528,981.124,147.376
-174.704,980.88,144.204
-187.148,974.292,133.956
-205.204,966.24,125.172
-216.916,961.36,121.756
-219.844,952.332,132.248
-191.296,950.868,140.544
-147.62,974.292,152.256
-122.976,995.764,156.404
-119.804,989.176,155.184
-114.68,984.784,162.992
-116.876,982.588,172.752
-130.052,968.192,167.384
-148.108,957.212,150.304
-163.968,944.768,136.64
-179.096,942.328,125.66
-178.364,949.648,122.0
-160.064,962.58,113.46
-157.868,962.58,103.7
-174.46,959.164,103.456
-182.024,960.628,112.484
-175.192,965.02,126.636
-167.384,968.68,140.3
-164.944,965.02,140.3
-173.24,953.552,138.592
-175.68,956.968,144.204
-172.264,961.848,149.328
-174.46,971.608,144.448
-172.752,972.34,137.616
-159.82,972.828,132.98
-158.112,967.704,133.956
-164.456,963.556,134.688
-179.34,956.968,134.932
-189.832,952.576,128.344
-190.808,954.772,125.66
-174.948,962.824,131.028
-148.596,968.436,133.712
-138.348,971.364,136.152
-152.988,971.364,131.028
-176.9,962.092,121.756
-207.156,948.916,123.22
-208.62,950.868,128.1
-209.84,968.192,136.396
-201.056,992.348,144.936
-189.588,1009.428,147.62
-193.98,1016.26,149.572
-205.448,1027.972,152.256
-243.756,1045.784,154.208
-296.704,1050.664,161.284
-300.12,1058.96,151.28
-265.472,1074.576,144.448
-197.152,1052.128,117.364
-169.336,1037.244,81.008
-257.664,1033.34,58.316
-402.844,1029.436,48.8
-427.732,1029.924,44.408
-189.832,1034.56,49.532
9.516,1006.988,41.48
43.676,982.1,27.328
-46.604,950.136,0.244
-157.624,926.956,-20.252
-207.644,909.876,-46.116
-99.064,915.976,-15.616
186.66,916.22,26.352
297.436,858.88,27.816
223.504,817.4,15.616
77.836,828.38,88.816
55.388,758.84,121.268
324.276,742.492,148.596
588.04,681.004,179.096
619.028,645.624,194.224
450.912,631.472,258.152
351.116,608.048,318.42
582.916,527.04,302.072
748.592,495.32,355.996
854.488,449.204,410.408
774.212,409.92,502.884
815.692,370.148,565.836
896.212,332.816,625.86
947.696,294.264,680.516
1020.164,271.816,727.608
1006.256,254.248,806.664
937.936,244.0,848.632
884.988,223.26,904.752
836.92,239.852,920.368
823.256,219.112,893.284
815.936,206.912,896.944
737.124,182.024,907.68
697.108,160.064,851.56
660.996,144.204,766.892
619.028,146.156,658.8
613.416,169.824,486.78
629.52,183.244,312.076
596.824,197.396,172.752
630.74,246.44,-27.816
713.944,274.5,-206.668
789.828,308.416,-350.14
856.196,321.348,-481.168
942.816,323.3,-596.824
1025.776,339.648,-669.292
1087.752,319.152,-722.972
1175.348,330.376,-770.796
1255.136,318.664,-857.66
1316.868,330.376,-880.84
1321.504,339.16,-805.2
1246.84,299.632,-681.248
1147.532,207.156,-501.42
1082.384,144.204,-324.52
911.34,80.52,-168.116
902.556,87.108,4.148
798.368,13.908,230.336
685.884,-31.72,397.232
660.996,-64.416,528.504
656.604,-46.604,621.712
651.724,-13.42,656.116
675.636,-43.432,714.676
657.336,-74.664,780.312
624.396,-149.084,910.852
725.412,-157.38,953.796
833.992,-148.84,971.852
853.268,-79.3,980.636
885.476,-76.128,981.856
936.228,-91.012,1020.896
989.664,-114.436,1048.468
1151.436,-155.672,1020.408
1263.188,-172.02,983.808
1288.808,-164.212,934.032
1327.116,-142.984,818.376
1434.964,-118.096,594.384
1463.268,-89.548,388.448
1476.2,-46.36,222.04
1380.552,5.368,20.252
1296.86,74.908,-121.756
1270.752,68.076,-194.956
1220.244,86.62,-250.1
1144.848,78.08,-261.324
1052.128,104.432,-251.076
1014.064,99.308,-198.128
991.128,94.672,-125.416
1000.888,80.52,-31.964
1008.452,71.248,55.876
993.324,81.984,124.928
982.344,100.04,188.124
999.912,115.412,215.94
1065.548,135.176,226.188
1094.584,137.616,258.396
1083.604,131.272,278.404
1064.084,136.884,309.636
1153.144,139.812,321.348
1194.868,130.784,330.864
1223.416,145.424,341.356
1226.344,164.944,350.384
1166.808,173.728,345.748
1115.08,213.744,332.816
1086.044,252.296,329.4
1081.164,297.924,312.32
1004.06,333.548,309.636
949.16,390.156,288.896
913.536,438.712,271.084
864.004,478.728,288.408
885.232,526.796,272.06
889.38,573.888,262.544
829.844,593.896,271.328
749.08,603.168,277.672
660.02,609.024,260.836
584.38,640.988,238.388
528.992,689.056,235.216
485.072,730.048,216.428
434.808,750.3,184.22
355.996,771.284,207.888
306.22,789.828,222.528
291.824,799.832,221.552
305.732,795.684,216.184
325.496,816.912,213.5
273.28,816.424,215.94
224.724,827.892,212.036
208.62,847.656,199.836
163.968,861.32,179.584
102.236,864.004,162.992
69.784,877.912,140.056
28.06,890.844,114.924
-30.744,902.8,100.528
-50.508,907.924,81.74
-77.836,897.432,73.932
-102.968,890.112,72.224
-147.864,891.088,64.416
-172.264,916.708,66.856
-215.696,926.712,63.44
-205.692,926.468,24.4
-211.06,940.62,25.132
-260.592,950.136,22.204
-298.656,955.992,27.572
-287.188,963.068,20.984
-257.42,966.728,18.788
-186.172,995.52,29.036
-136.396,1017.968,40.748
-115.656,1018.7,57.828
-99.064,1010.892,74.908
-82.228,1002.84,83.936
-58.804,992.592,74.664
-66.368,989.664,57.34
-104.676,972.096,38.796
-123.464,973.072,37.576
-96.38,985.516,33.428
-86.62,985.028,26.108
-67.1,976.244,21.716
-67.344,973.072,40.504
-77.592,976.488,49.532
-104.432,977.464,57.34
-98.82,976.244,56.852
-80.764,980.392,52.948
-62.952,996.252,45.384
-57.34,1006.012,30.012
-81.984,1005.28,23.912
-102.48,996.74,29.036
-100.04,992.836,42.944
-84.18,989.176,48.312
-81.252,979.904,50.02
-83.448,972.584,48.068
-96.136,966.972,54.168
-110.776,962.336,52.948
-99.552,966.24,50.508
-88.816,976.244,46.36
-83.936,980.392,37.82
-79.788,987.468,30.256
-95.648,986.98,30.256
-98.82,984.54,30.744
-86.132,989.42,35.624
-82.228,995.764,37.82
-83.692,989.664,38.552
-85.156,982.344,43.92
-87.596,982.1,53.68
-96.38,982.588,55.876
-93.696,978.44,45.872
-79.3,982.1,43.432
-70.272,984.784,40.504
-69.54,986.492,36.356
-67.1,987.956,31.964
-76.128,989.42,26.596
-96.868,980.148,26.108
-113.216,975.268,36.112
-108.58,972.096,44.896
-100.772,970.876,46.848
-92.72,971.852,45.872
-83.448,980.636,50.752
-84.18,986.248,55.388
-80.032,991.128,49.776
-84.912,989.176,46.36
-87.84,986.248,38.308
-85.4,990.64,34.648
-79.544,995.032,41.48
-74.176,993.568,46.604
-89.792,986.492,45.14
-100.04,977.22,47.824
-110.288,969.656,49.532
-110.288,972.096,53.68
-93.94,982.832,47.824
-84.668,992.348,45.384
-87.108,992.348,49.288
-94.672,987.712,52.46
-106.628,976.976,47.58
-105.408,977.464,42.944
-97.356,982.588,45.384
-81.984,988.2,49.288
-76.86,989.176,50.508
-83.692,985.028,46.848
-80.52,982.832,42.944
-74.176,987.224,47.092
-65.88,991.372,53.192
-63.928,991.128,56.364
-68.808,989.908,48.312
-81.74,983.564,43.188
-78.324,985.76,47.336
-65.392,986.98,49.532
-67.588,987.468,50.996
-76.86,982.1,43.676
-84.912,981.124,44.164
-92.72,983.564,43.92
-88.572,988.932,46.116
-90.524,988.444,45.872
-89.792,981.612,42.212
-95.648,982.832,43.676
-101.992,983.32,44.164
-99.552,984.296,44.408
-101.748,984.784,46.36
-111.996,978.196,41.724
-127.124,976.732,44.896
-139.08,980.88,48.556
-140.544,984.784,51.24
-183.244,973.804,44.896
-221.064,959.896,41.968
-224.724,947.452,34.404
-217.16,948.184,23.18
-196.664,973.804,20.74
-144.204,1000.644,22.936
-87.596,1007.964,21.472
-74.176,1006.012,22.936
-105.408,1003.328,32.452
-155.672,1013.332,53.436
-109.8,1040.416,87.596
1.22,1056.032,103.944
100.04,1070.672,117.852
130.784,1077.992,115.9
70.028,1074.82,122.0
-27.084,1065.304,142.252
-7.076,1037.488,164.456
88.084,1030.656,192.516
203.252,1018.456,242.292
254.736,988.2,267.912
123.708,924.76,315.492
34.648,898.652,361.364
148.352,856.44,368.44
243.756,808.128,351.116
329.156,789.828,368.44
294.02,712.724,418.216
327.448,598.044,480.192
437.492,471.164,540.216
527.04,348.188,618.296
637.084,315.98,600.728
717.116,324.032,531.188
718.58,382.592,499.956
764.696,372.344,456.28
881.816,301.828,468.236
1008.208,224.968,482.632
1024.556,223.26,501.176
980.88,272.304,494.1
936.472,323.3,449.692
966.972,360.632,423.584
925.248,373.808,454.816
919.148,351.116,513.62
895.48,332.084,566.08
833.016,338.184,612.196
793.732,353.312,656.116
758.84,355.264,699.304
695.4,286.456,782.02
706.868,209.108,869.86
691.984,123.464,1002.352
676.124,64.172,1032.852
660.752,46.604,993.08
657.336,56.852,880.84
628.788,107.604,720.044
610.0,100.528,568.276
617.076,62.952,392.108
685.396,98.82,207.644
701.256,88.328,30.744
803.98,146.888,-160.308
846.68,158.112,-321.348
885.72,162.26,-451.888
968.436,129.32,-565.104
1077.016,89.792,-667.828
1183.156,47.58,-733.464
1246.596,55.632,-796.66
1286.368,100.284,-816.912
1318.576,142.74,-781.288
1285.88,128.344,-702.476
1189.012,60.512,-548.756
1084.336,21.96,-380.396
1124.84,8.296,-219.356
1084.336,-15.86,-67.344
995.52,-13.176,91.256
817.644,-57.828,327.204
650.016,-142.984,562.664
756.888,-157.868,676.368
880.108,-224.968,774.456
843.996,-156.648,814.716
756.644,-79.056,816.18
644.892,-38.308,909.876
677.1,-51.484,947.696
746.64,-131.272,1001.376
835.944,-187.88,1025.776
880.108,-189.588,1050.42
906.704,-172.02,1078.968
950.624,-180.316,1088.728
1020.164,-216.916,1049.444
1142.896,-232.776,969.9
1194.38,-239.12,845.704
1253.916,-216.916,716.14
1334.68,-194.468,539.972
1344.44,-168.36,367.22
1429.352,-114.924,211.06
1407.148,-88.816,114.192
1308.084,-81.74,44.164
1269.776,-17.324,-11.468
1196.576,-29.524,-30.256
1127.524,-9.516,-40.748
1048.956,16.104,-54.168
1033.096,28.06,-69.296
1041.392,38.796,-61.244
1009.428,45.872,-7.076
999.668,76.128,48.068
1040.904,59.536,136.64
1081.896,65.148,192.028
1123.376,94.428,248.636
1116.544,101.992,302.316
1121.18,95.892,356.484
1143.872,89.06,390.156
1185.84,100.772,420.412
1189.012,112.484,449.692
1169.248,133.712,452.864
1087.508,153.72,446.764
1019.92,216.428,415.288
1035.048,263.032,391.132
1046.272,299.876,385.764
1007.964,323.788,397.964
973.072,350.872,380.64
912.072,370.88,366.0
858.148,417.484,367.708
847.168,452.62,345.748
839.604,494.588,311.344
779.824,521.916,302.316
739.32,546.072,289.14
660.996,567.3,291.336
569.74,589.26,277.916
547.292,620.736,256.932
509.472,642.208,244.732
495.808,691.74,224.236
459.208,725.412,220.576
406.992,746.64,217.892
369.66,743.468,214.232
324.52,752.74,189.832
246.684,772.504,175.924
167.14,823.744,169.336
159.576,861.32,152.988
139.324,884.256,167.628
102.236,869.616,152.988
37.576,871.568,131.272
-36.112,880.84,106.14
-136.884,907.924,106.628
-190.076,926.956,93.208
-190.564,914.756,70.516
-173.484,924.272,62.952
-142.252,924.76,53.436
-183.0,916.22,73.688
-223.26,916.708,89.792
-294.996,912.072,87.84
-372.344,910.364,71.98
-330.132,925.248,36.356
-256.2,958.676,39.284
-226.432,991.372,47.58
-247.904,987.468,55.632
-248.392,973.072,74.42
-213.744,959.164,102.236
-175.68,956.236,123.952
-135.908,968.68,130.052
-118.828,981.124,133.712
-108.824,976.244,114.192
-113.46,975.512,93.452
-94.672,999.18,78.812
-116.388,996.984,65.88
-132.492,995.032,55.144
-160.552,990.152,49.044
-173.972,979.172,42.456
-180.316,967.216,55.388
-170.556,960.628,72.956
-155.184,955.26,82.716
-114.924,976.976,84.424
-123.952,985.516,86.62
-149.572,991.128,84.912
-158.6,995.52,93.696
-152.012,982.588,86.132
-141.52,981.612,72.712
-149.572,983.32,57.34
-158.6,979.416,50.02
-159.82,977.464,47.58
-159.332,972.34,50.02
-164.212,966.972,52.46
-181.536,959.408,57.828
-194.956,946.72,69.296
-201.3,932.812,83.936
-196.42,926.712,92.964
-180.56,932.08,90.524
-163.724,952.576,86.132
-152.988,979.66,78.568
-152.256,994.788,79.3
-166.408,1001.376,80.764
-180.072,993.08,73.932
-183.732,983.076,77.592
-170.8,964.776,85.644
-165.432,951.356,97.112
-173.24,939.644,99.308
-186.416,937.204,83.692
-177.876,952.088,66.856
-167.384,973.072,58.316
-155.428,983.076,52.216
-137.372,982.832,51.728
-124.928,983.808,50.752
-141.032,986.736,45.872
-163.236,989.176,48.068
-169.092,988.688,64.172
-175.68,974.78,76.372
-160.796,961.36,82.472
-154.696,951.356,88.084
-162.016,945.012,84.912
-162.504,952.332,84.424
-150.548,964.776,83.448
-146.888,976.488,73.2
-150.548,987.468,63.44
-152.256,989.664,49.044
-145.18,990.152,41.236
-140.3,992.836,44.408
-131.516,1002.352,55.388
-132.004,994.788,62.952
-144.204,975.756,62.952
-153.232,963.312,61.732
-159.82,955.992,64.416
-157.624,957.7,67.832
-149.816,965.264,67.832
-156.16,961.848,69.052
-152.012,965.752,61.732
-139.324,972.34,54.656
-140.3,981.612,45.872
-132.492,992.592,43.92
-126.88,994.788,41.968
-138.592,989.908,41.724
-143.96,987.956,40.504
-144.692,984.54,45.628
-148.352,983.808,52.948
-146.156,978.928,59.292
-158.112,969.412,62.464
-161.528,959.164,66.124
-152.5,958.92,65.392
-150.304,965.508,64.172
-163.968,963.312,51.972
-162.26,968.924,42.944
-160.796,977.464,42.456
-167.628,977.952,47.336
-158.6,972.096,51.728
-141.276,972.096,54.9
-149.328,968.68,58.072
-151.28,971.364,62.708
-147.62,971.852,65.636
-142.496,973.56,71.492
-145.424,972.096,73.688
-151.28,966.484,64.904
-162.992,964.776,59.78
-167.628,967.704,51.728
-168.848,973.316,47.824
-172.264,976.488,45.872
-158.356,980.148,49.288
-146.4,983.076,57.096
-145.912,977.708,62.708
-151.28,976.0,67.588
-158.844,981.368,67.344
-158.844,987.956,66.856
-157.868,997.96,66.124
-159.088,999.18,64.66
-175.192,1002.108,62.464
-216.672,1003.816,59.292
-296.948,1011.868,49.288
-389.424,1030.412,37.088
-345.016,1035.048,42.456
-277.916,1028.46,35.38
-262.056,1028.46,44.164
-215.208,1041.392,47.092
-172.508,1050.42,25.376
-185.684,1064.572,15.616
-173.728,1098.976,15.128
-91.5,1070.916,18.3
-0.488,1029.68,31.476
47.092,1027.728,66.856
76.372,993.324,99.552
47.824,914.756,110.044
55.388,878.888,146.156
139.324,821.304,164.7
314.76,778.848,179.34
454.328,713.944,208.62
512.644,633.424,160.064
335.256,536.8,222.772
229.848,477.02,305.488
601.704,412.604,299.876
919.88,291.824,224.236
827.648,278.16,293.044
679.296,240.34,389.912
864.492,162.26,433.344
1126.06,53.68,513.132
1209.02,21.472,604.876
1174.128,54.412,663.68
1040.904,111.02,677.832
991.86,195.688,649.772
1042.368,235.948,629.032
1069.696,239.12,654.164
1034.56,202.52,689.056
902.556,195.444,732.244
878.156,225.212,773.48
802.516,223.016,777.628
753.716,231.068,752.984
750.056,236.924,716.872
743.956,205.692,638.304
702.232,141.032,559.736
634.644,142.252,439.2
672.708,153.232,296.216
710.284,177.876,132.736
729.56,209.84,20.984
803.492,226.92,-141.032
871.568,222.284,-298.168
911.584,211.792,-413.824
953.796,214.232,-486.78
974.048,208.62,-543.144
1018.944,190.564,-606.34
1108.004,152.012,-664.412
1160.708,137.128,-685.884
1162.416,149.816,-691.74
1115.568,176.412,-644.16
1035.536,163.236,-589.504
984.54,157.136,-549.732
908.412,138.592,-508.008
986.492,167.384,-457.5
1111.664,90.28,-315.492
1038.952,-85.888,-91.012
724.924,-178.852,237.656
573.4,-203.496,480.68
861.32,-238.876,637.572
1037.976,-264.74,808.128
818.376,-264.008,925.248
691.74,-214.476,984.052
690.276,-201.788,1035.536
809.104,-193.98,1054.08
917.928,-165.432,1056.276
947.208,-167.872,1049.932
960.14,-192.028,1033.096
1026.752,-163.724,1016.748
1140.456,-149.816,967.216
1238.544,-142.496,938.424
1220.976,-168.36,934.276
1189.744,-179.584,869.128
1190.232,-193.736,767.38
1305.4,-166.652,591.7
1435.452,-132.492,379.176
1424.716,-85.4,172.508
1374.452,-21.472,-54.9
1234.884,55.144,-193.248
1194.868,117.852,-293.776
1178.276,143.96,-347.456
1097.268,96.624,-307.684
1028.216,66.856,-242.048
1001.62,14.396,-116.388
1004.548,12.932,-56.608
1008.696,47.336,-10.98
1070.672,112.24,38.796
1103.612,125.172,85.888
1122.4,127.612,132.004
1146.068,111.752,198.616
1186.572,122.0,236.436
1192.916,157.624,286.7
1220.0,165.92,313.052
1249.524,159.088,339.892
1235.128,170.312,350.14
1237.812,172.508,348.676
1256.844,198.128,348.676
1227.808,254.736,350.384
1134.844,283.284,373.564
1072.868,303.048,375.516
1005.28,327.692,363.56
945.744,358.436,346.236
846.436,403.576,333.548
787.632,437.248,316.956
735.904,466.528,289.872
673.196,507.276,267.912
573.4,540.216,260.348
462.868,579.744,257.908
416.996,616.588,256.2
368.196,677.588,248.88
401.136,697.108,240.096
401.136,726.388,242.78
386.008,742.248,226.92
372.1,776.164,213.744
298.656,787.632,205.448
274.5,808.86,175.924
227.408,818.864,177.876
200.324,826.672,162.504
135.908,823.256,153.476
43.92,817.4,142.984
6.344,817.156,117.608
-34.648,819.108,83.936
-70.028,840.336,62.22
-146.4,861.564,62.464
-176.168,882.548,63.928
-174.46,904.264,51.728
-211.792,929.152,48.8
-228.384,951.6,35.136
-251.076,970.876,33.184
-265.96,969.412,32.208
-242.292,988.688,24.888
-217.16,1005.768,31.72
-186.904,1029.436,46.36
-137.372,1039.928,73.2
-127.856,1006.256,89.06
-115.9,975.756,100.284
-115.656,962.824,99.552
-136.884,960.384,89.06
-121.024,981.612,79.3
-99.552,1006.5,73.444
-71.98,1010.892,61.976
-86.132,995.764,55.876
-113.948,976.976,56.12
-136.152,961.848,59.048
-133.956,965.752,63.44
-99.552,986.98,64.172
-67.344,996.252,69.296
-62.22,989.176,73.444
-73.2,972.096,73.688
-88.572,969.9,69.54
-88.328,982.344,70.028
-86.62,991.86,60.268
-96.136,983.808,55.144
-104.92,973.56,59.048
-112.484,963.312,63.44
-122.488,960.384,60.756
-132.492,959.164,61.244
-131.516,963.312,65.148
-127.124,965.752,76.616
-95.892,974.048,84.912
-61.488,983.808,91.744
-25.376,991.128,96.136
-13.176,995.764,87.108
-34.16,996.496,76.128
-55.876,1005.036,69.296
-68.808,1018.212,71.004
-61.732,1020.164,67.1
-58.072,1010.892,61.732
-54.656,1000.156,55.144
-63.684,994.3,56.12
-76.372,993.324,61.732
-73.688,994.544,71.004
-75.64,983.076,74.664
-74.908,977.22,84.668
-56.364,979.172,85.644
-57.828,976.976,79.056
-77.104,974.78,70.028
-84.668,980.636,65.148
-80.764,987.468,68.808
-64.66,996.252,80.764
-46.116,998.936,79.544
-58.56,986.492,71.98
-90.28,978.196,70.76
-106.628,982.832,75.396
-98.576,986.736,78.08
-101.504,984.784,77.836
-87.352,984.296,78.08
-78.568,977.708,78.324
-71.98,979.66,77.104
-68.32,988.688,69.54
-62.464,1000.4,61.0
-56.608,1003.816,59.78
-46.36,997.96,62.22
-51.728,988.932,64.66
-74.664,971.364,57.34
-102.48,951.844,52.948
-125.172,940.62,54.656
-140.544,932.568,55.144
-145.668,934.764,52.704
-138.348,952.82,58.316
-104.676,968.436,67.1
-75.884,974.292,71.004
-63.928,980.636,74.42
-67.588,986.248,75.152
-71.248,1001.864,71.248
-73.688,1009.916,63.44
-72.468,1010.648,52.948
-72.712,1008.452,48.8
-72.712,1005.28,47.092
-71.004,1001.376,46.36
-80.276,992.348,53.924
-78.568,984.296,57.828
-73.2,977.22,63.928
-71.492,970.876,62.952
-71.736,968.924,61.732
-81.74,972.096,61.976
-81.008,980.148,65.392
-66.856,986.98,64.416
-68.32,987.712,63.196
-76.616,990.152,60.512
-74.42,993.568,61.488
-69.784,992.836,61.732
-65.636,994.3,67.344
-59.048,993.08,68.808
-65.392,991.372,66.612
-79.544,988.444,66.612
-95.404,985.272,69.296
-101.504,984.54,73.444
-95.648,979.904,73.2
-84.18,975.756,61.976
-82.96,979.66,55.632
-82.716,982.1,52.46
-84.18,980.392,47.336
-83.204,984.784,48.8
-81.984,984.052,46.116
-79.3,982.344,43.92
-83.448,983.32,44.652
-88.084,981.124,47.58
-91.988,983.076,54.168
-89.792,983.32,65.148
-88.572,978.684,71.004
-92.964,968.192,72.956
-97.356,967.216,78.324
-93.452,974.048,79.3
-94.428,982.832,77.104
-89.06,991.86,69.54
-84.18,990.64,59.048
-77.592,991.128,50.996
-70.516,994.544,52.46
-63.44,1000.156,57.096
-61.732,996.74,53.924
-69.296,989.664,51.972
-78.324,986.98,54.412
-86.132,991.372,60.756
-94.916,990.884,69.052
-96.136,990.396,74.176
-101.26,997.472,81.008
-127.612,1006.744,88.816
-154.696,1028.948,97.356
-186.66,1061.888,105.896
-197.64,1096.048,115.168
-153.72,1115.812,124.928
-168.36,1114.592,110.532
-150.792,1104.344,100.772
-203.496,1058.716,81.496
-287.188,1026.264,63.684
-349.164,1006.256,54.9
-331.84,990.152,49.288
-217.648,986.004,24.888
-164.456,964.044,2.44
-175.192,970.144,-22.936
-179.584,977.464,-23.668
-279.624,947.94,-43.92
-155.916,930.616,-36.6
39.04,910.852,-52.216
171.288,849.12,-67.344
231.068,858.148,-54.168
129.808,811.544,-67.832
16.836,768.844,-21.716
104.188,699.06,16.836
364.536,621.956,34.404
599.508,601.216,44.652
723.46,568.276,14.64
641.476,518.5,-10.736
450.912,534.848,1.952
575.352,520.696,-36.844
815.692,444.568,-68.564
1022.604,336.72,-15.86
1177.544,162.992,87.352
1031.632,77.592,225.456
823.744,85.156,310.856
1050.664,127.124,280.844
1316.136,167.14,251.808
1345.416,151.768,293.532
1297.348,154.452,363.072
1203.408,144.936,459.452
1142.896,158.6,472.628
1157.292,203.252,504.836
1197.064,204.96,554.124
1173.396,193.248,596.824
1126.304,161.772,670.512
1069.696,153.72,709.064
977.952,133.712,703.452
909.144,142.984,668.072
853.756,135.908,599.752
827.404,120.292,484.096
747.372,81.74,338.428
692.472,121.024,240.828
655.14,158.6,117.852
633.424,158.844,-5.368
673.684,134.932,-198.86
718.58,110.776,-325.252
804.956,104.188,-447.252
836.432,103.456,-559.736
876.936,126.392,-664.9
933.544,116.144,-742.248
991.86,106.628,-808.86
1050.664,84.912,-847.9
1135.82,97.356,-841.8
1188.28,99.064,-782.264
1120.692,74.42,-678.32
980.148,31.232,-543.388
914.024,10.98,-419.68
871.568,3.172,-308.904
931.104,19.764,-231.312
1000.888,4.392,-110.776
941.84,-80.276,58.072
756.4,-178.12,297.924
684.908,-181.292,452.132
702.72,-161.528,537.044
831.796,-122.976,649.04
874.008,-98.576,761.768
805.2,-121.756,821.792
791.536,-188.368,924.028
954.772,-190.564,942.816
1112.884,-152.744,974.048
1142.652,-125.416,962.824
1154.364,-151.28,899.872
1324.676,-160.796,864.736
1437.892,-203.252,834.236
1438.136,-221.796,773.968
1462.292,-232.532,686.128
1494.012,-221.308,520.696
1548.424,-190.564,294.02
1566.48,-145.912,74.908
1404.464,-118.096,-76.372
1323.944,-56.608,-205.936
1301.252,-41.724,-386.984
1186.084,-37.332,-438.224
1039.928,0.732,-449.692
935.008,23.18,-407.236
894.992,9.516,-342.088
932.568,-23.18,-266.204
1071.16,-15.372,-198.372
1221.464,-10.248,-103.456
1233.664,21.96,-22.692
1220.976,62.22,55.388
1220.0,112.972,114.924
1225.124,152.256,149.572
1272.704,175.68,183.0
1314.916,165.432,218.624
1256.356,198.372,241.56
1200.724,230.092,224.724
1122.644,263.276,217.404
1047.492,306.708,210.084
984.54,351.604,194.224
924.272,399.184,193.492
889.624,457.5,175.924
830.82,477.508,185.928
815.204,499.956,196.664
793.244,544.852,192.516
755.668,583.16,197.396
765.672,623.664,185.196
668.316,626.592,193.004
582.916,650.992,182.024
475.312,651.236,175.924
365.024,663.68,186.66
287.676,696.864,199.592
216.916,731.512,192.028
209.108,756.644,168.116
160.064,765.428,167.384
44.896,802.272,157.868
14.396,819.108,120.048
0.244,845.948,83.448
-23.668,877.424,66.124
-76.372,899.384,55.388
-176.656,907.436,47.336
-207.888,905.728,27.816
-162.504,908.9,17.812
-75.64,930.616,18.544
-1.22,954.772,23.424
14.152,975.512,36.6
28.06,970.144,47.58
56.852,976.976,69.052
100.04,982.344,78.568
130.54,987.468,83.448
134.444,1004.548,82.228
125.904,1018.212,84.668
114.924,1026.508,102.48
79.544,1015.528,113.46
53.192,999.424,125.416
27.084,995.52,142.008
28.06,974.048,147.62
28.304,952.576,144.936
31.72,950.624,130.296
37.576,963.312,113.704
65.88,988.932,97.844
107.848,1023.58,95.404
142.984,1034.316,88.084
120.048,1015.04,82.96
61.0,995.276,83.692
-2.44,981.856,86.132
-32.208,984.54,85.888
-3.904,1005.768,93.94
50.508,1020.896,102.724
103.7,1013.332,96.624
104.92,993.812,101.748
91.012,980.392,107.604
65.392,966.728,115.168
43.676,952.82,113.216
22.204,945.012,99.552
-1.952,950.624,93.452
-17.568,964.532,86.376
-14.884,976.244,73.444
-4.88,981.124,66.368
19.52,983.808,62.464
27.816,984.54,66.612
21.96,983.564,71.492
18.3,979.172,73.444
9.516,962.824,63.196
-4.88,958.676,53.192
-31.72,954.528,41.968
-47.58,963.312,40.504
-40.016,989.176,50.508
-18.056,1006.744,83.692
19.764,1013.82,112.972
53.924,1000.4,130.296
71.736,982.1,137.86
75.64,976.488,142.008
76.128,982.588,139.812
82.716,986.492,130.296
81.008,986.98,113.46
70.516,987.224,91.012
43.432,983.564,68.564
27.084,988.2,60.024
19.032,993.08,61.488
44.896,1003.084,70.516
81.252,1008.94,81.984
106.14,1008.94,91.012
114.436,1007.476,101.992
114.924,1007.964,103.212
95.648,1007.476,95.648
77.836,1000.888,85.156
65.88,997.96,84.424
61.976,996.74,83.936
63.44,1001.132,89.792
71.98,991.86,91.988
92.232,973.804,91.744
89.792,954.284,87.84
66.856,947.452,75.152
33.428,950.38,61.0
24.644,960.384,52.704
37.82,982.1,53.436
57.828,990.396,50.996
65.636,999.424,56.852
67.1,1006.5,60.268
75.396,1011.136,58.56
91.744,1018.7,50.752
102.968,1019.92,48.068
106.384,1015.04,50.02
106.14,1008.94,55.632
87.352,998.448,57.828
64.904,984.052,55.632
49.776,979.66,49.288
50.264,988.932,47.824
55.144,992.592,47.336
64.66,995.764,50.996
68.564,992.836,55.876
56.12,987.468,53.436
38.308,976.244,51.484
28.792,969.168,55.876
30.744,964.532,61.0
33.672,967.216,62.464
38.796,970.632,60.512
45.14,982.832,58.804
49.288,992.836,52.216
49.532,997.716,37.82
44.652,1001.864,24.888
28.548,1002.84,15.86
12.2,1004.304,8.052
7.076,999.912,14.884
12.932,996.74,31.232
22.204,986.492,45.384
11.956,975.024,55.388
2.44,973.316,64.416
9.516,982.344,72.712
32.696,1000.4,77.836
53.924,1012.112,76.128
64.904,1020.164,68.32
69.052,1019.92,57.828
54.168,1013.088,50.752
22.692,1006.012,45.628
-9.272,1001.864,46.604
-40.26,999.912,44.408
-67.1,1016.26,46.604
-89.548,1042.612,50.996
-90.036,1075.064,57.34
-97.844,1115.812,70.76
-103.456,1153.632,81.252
-146.644,1172.42,82.228
-166.408,1158.024,84.668
-177.632,1105.32,61.244
-192.028,1044.32,37.576
-201.056,1016.016,9.028
-213.744,984.54,-44.896
-255.224,959.164,-113.948
-248.392,952.82,-145.668
-95.892,956.724,-131.272
107.848,927.688,-109.068
223.748,869.86,-96.624
220.576,833.504,-73.932
186.172,797.636,-55.144
93.452,741.76,-62.952
138.836,703.94,-42.212
267.424,660.508,-62.952
450.18,642.452,-39.04
477.508,614.636,-2.44
479.948,586.332,25.864
461.404,505.568,80.764
554.368,437.492,180.804
734.928,335.5,243.268
927.932,286.212,291.092
983.564,255.468,332.084
1025.044,262.3,364.048
1070.916,287.432,355.508
1136.552,298.656,353.068
1189.988,299.144,360.632
1210.972,296.216,366.732
1153.144,301.34,370.392
1058.472,323.056,396.744
1048.224,358.436,411.872
1019.188,362.34,445.788
959.896,379.176,482.388
907.68,401.868,553.88
852.78,387.716,626.348
894.992,372.832,707.356
906.46,339.648,797.148
857.172,287.92,839.116
835.456,252.784,910.12
735.172,172.508,957.456
752.74,111.264,945.256
761.524,68.076,873.764
741.028,44.164,716.14
668.072,70.272,517.524
665.144,112.24,347.944
726.876,81.74,164.456
799.832,93.696,-54.9
799.1,84.912,-183.732
793.244,75.396,-288.164
808.372,64.416,-423.34
891.576,65.88,-569.984
949.648,43.188,-678.076
1058.472,72.468,-778.116
1098.732,119.072,-830.332
1106.296,143.716,-861.564
1103.612,182.512,-838.384
1085.8,185.928,-756.888
1065.304,168.604,-665.388
1030.656,173.972,-512.888
960.628,142.74,-390.156
932.08,163.236,-265.96
928.664,142.496,-117.608
966.972,120.78,32.696
889.624,84.668,197.884
792.512,54.168,350.384
811.056,35.38,456.036
886.94,36.6,571.936
941.84,19.764,675.148
946.476,16.836,711.504
985.516,20.008,740.54
941.108,17.08,768.844
881.572,48.312,820.572
896.7,41.236,861.32
952.088,8.052,893.04
996.008,-20.496,869.86
1027.728,-8.052,859.856
1086.288,23.912,829.356
1109.224,28.06,813.984
1142.896,9.272,787.632
1185.596,-23.424,708.576
1290.516,-25.376,638.06
1327.848,-15.86,579.012
1302.228,-7.32,514.108
1273.436,-7.076,423.584
1204.628,-18.788,308.416
1162.66,6.832,207.888
1128.5,7.808,145.18
1130.696,26.352,58.56
1108.736,34.16,-9.76
1075.796,51.24,-57.096
1012.6,42.944,-66.368
985.272,57.096,-52.216
995.032,62.708,-33.916
1025.776,62.464,-24.4
1035.78,61.244,7.564
1084.092,83.204,45.628
1163.392,84.668,97.112
1198.772,104.188,162.26
1226.344,108.58,224.236
1246.84,132.248,280.844
1272.216,147.132,321.592
1258.308,157.38,353.312
1231.956,163.724,377.712
1240.74,190.564,366.488
1212.924,209.596,367.464
1154.852,257.908,364.292
1111.908,300.852,343.796
1062.376,341.6,307.928
964.288,384.788,294.02
850.096,404.308,287.92
825.94,427.976,267.424
835.456,460.672,255.956
785.436,504.348,256.688
704.184,541.436,248.148
667.096,553.88,229.604
632.692,578.768,219.112
600.24,622.688,198.372
561.2,656.116,194.224
552.416,690.764,185.684
508.252,702.476,180.316
488.0,709.552,160.552
451.4,741.516,162.504
405.04,768.356,158.112
358.436,790.804,166.164
372.1,809.592,157.38
386.008,823.012,161.528
378.688,838.14,162.26
340.136,840.336,160.064
284.992,839.36,147.132
232.776,845.46,130.54
186.172,857.172,117.852
140.544,868.152,104.188
115.656,871.08,84.912
87.84,884.256,79.544
40.016,892.552,75.884
24.156,911.584,75.64
31.232,928.42,73.688
23.912,928.42,71.004
35.136,923.54,61.488
11.956,924.76,52.216
-75.152,922.808,30.256
-156.404,921.344,2.44
-215.94,932.324,-28.304
-288.164,956.48,-39.04
-274.988,1005.036,-29.768
-203.008,1033.096,-5.368
-170.312,1029.436,15.372
-157.38,1019.188,38.064
-151.036,999.912,56.608
-111.996,990.64,67.832
-78.568,963.556,51.728
-59.048,963.312,36.356
-81.984,977.22,25.132
-131.76,981.856,16.104
-145.424,985.76,12.932
-135.42,976.488,10.98
-114.68,977.22,13.176
-69.54,995.764,14.884
-26.352,1016.504,12.932
-20.74,1014.064,1.708
-28.06,1017.724,-6.588
-47.336,1016.504,-5.368
-76.372,1004.06,-10.492
-85.4,986.736,-13.176
-92.964,967.216,-9.272
-80.032,970.144,-6.344
-57.34,973.804,-22.448
-47.824,975.268,-37.332
-55.144,978.684,-43.188
-69.784,983.564,-50.508
-73.688,987.712,-54.412
-73.688,991.616,-53.436
-87.84,984.54,-44.896
-100.528,976.732,-38.308
-97.6,972.828,-34.16
-79.544,978.44,-19.52
-65.392,981.856,-8.54
-65.636,983.564,-9.516
-63.928,988.688,-12.444
-63.928,989.908,-16.836
-73.932,985.028,-25.376
-86.864,991.372,-27.328
-88.084,999.668,-21.96
-66.612,1003.328,-14.152
-57.34,998.692,-9.028
-54.656,997.228,-4.88
-54.9,990.64,-0.244
-74.664,984.784,9.028
-89.548,984.052,17.08
-87.352,989.664,23.668
-73.2,985.516,26.108
-61.244,978.196,16.104
-61.976,976.976,3.416
-66.612,977.464,-1.464
-69.784,978.44,-1.952
-68.32,977.708,-10.004
-76.372,972.096,-13.176
-92.964,976.244,-11.468
-90.036,982.1,-5.368
-72.712,980.392,-6.588
-65.88,979.172,-12.444
-75.884,987.956,-12.2
-82.472,999.18,-8.296
-85.4,1003.084,-0.732
-92.476,998.692,11.224
-102.236,987.712,20.496
-120.536,973.56,26.596
-131.516,970.144,31.964
-134.444,975.268,26.352
-131.76,989.664,21.96
-114.192,1003.328,17.812
-80.764,1009.428,19.52
-62.22,1002.596,16.836
-56.12,998.692,13.176
-55.144,984.54,5.368
-62.22,971.608,-4.88
-81.984,958.676,-12.688
-93.452,960.384,-14.152
-85.156,965.996,-13.42
-74.664,970.632,-9.028
-71.736,974.78,0.976
-81.74,977.22,6.832
-101.504,973.804,13.42
-115.9,976.244,20.008
-118.828,979.904,22.448
-101.504,991.372,21.228
-80.52,1002.84,27.084
-66.368,1005.524,27.328
-63.196,1000.4,28.792
-73.688,987.712,29.524
-91.5,977.464,30.988
-107.36,968.192,20.984
-109.068,967.46,5.368
-99.308,980.392,0.244
-77.104,1006.012,-0.244
-61.0,1009.428,0.488
-66.856,1004.548,-2.44
-101.748,992.348,-8.784
-128.1,984.54,-9.028
-128.344,985.516,3.416
-106.384,981.612,18.788
-92.232,966.24,25.62
-103.212,951.356,32.94
-113.46,942.084,36.112
-125.172,940.864,35.38
-132.004,945.744,32.94
-128.1,948.916,21.716
-114.436,955.992,7.076
-103.7,979.66,8.784
-81.74,1003.328,13.42
-62.708,1021.14,23.424
-51.484,1028.46,34.892
-59.78,1035.048,40.016
-65.636,1039.196,42.456
-63.196,1050.42,45.14
-78.08,1062.864,43.188
-92.232,1077.992,49.044
-113.216,1080.676,47.824
-120.78,1070.184,43.92
-149.084,1060.912,43.676
-154.94,1050.908,43.432
-144.692,1036.756,40.016
-140.788,1026.264,34.404
-150.792,1016.504,29.524
-190.32,1010.16,15.128
-215.452,1016.504,5.856
-189.588,1019.432,-4.392
-153.72,1010.404,-19.764
-119.072,1013.332,-16.348
-119.804,1016.26,-6.344
-163.724,1008.208,-8.54
-220.088,987.468,-17.324
-268.888,976.244,-18.544
-208.376,954.528,-4.148
-140.544,911.828,-7.32
-126.88,871.812,-6.832
-75.152,854.244,22.692
1.708,825.696,22.936
186.66,774.7,53.436
377.956,720.044,54.656
427.976,700.524,20.984
436.272,753.472,64.416
419.436,716.14,34.404
433.1,692.96,24.4
578.768,693.204,9.272
745.42,704.916,-22.204
786.168,704.916,-22.692
754.936,697.84,-29.524
680.272,661.484,-0.488
702.232,639.524,18.3
833.992,628.056,29.28
893.04,615.368,29.036
885.232,606.096,72.224
812.52,571.204,113.216
737.124,533.872,193.004
883.768,456.768,254.004
1047.492,408.944,335.012
1013.82,393.572,418.948
965.02,380.152,487.512
927.688,321.592,597.068
923.784,309.392,680.76
955.748,280.844,743.956
998.936,261.08,817.644
935.008,243.512,875.96
898.408,214.232,941.352
881.572,142.496,1008.696
855.464,113.46,1024.312
791.048,88.572,965.508
725.656,91.744,861.808
707.112,118.828,688.08
723.704,132.004,508.74
696.132,142.252,394.06
635.376,127.612,322.812
550.708,73.932,195.932
594.14,54.9,-71.248
671.732,53.192,-261.324
739.32,87.352,-410.652
758.596,113.704,-624.64
840.58,130.296,-852.78
950.38,161.772,-973.072
1032.608,178.364,-1053.592
1080.676,198.372,-1102.148
1084.336,233.264,-1116.788
1085.312,234.728,-1078.724
1111.908,208.376,-1003.328
1172.664,154.696,-886.208
1190.964,100.528,-713.7
1067.256,43.432,-494.1
928.176,3.904,-296.704
935.252,21.228,-160.308
974.048,40.992,53.192
939.888,-27.816,283.772
849.364,-124.684,526.796
691.74,-189.344,698.084
773.48,-101.748,818.376
882.792,-33.428,851.072
892.308,-0.976,945.5
780.556,-12.444,1034.804
756.888,-25.132,1117.52
868.152,-40.504,1165.344
949.16,-44.652,1181.204
1046.516,-54.9,1207.068
1106.54,-67.344,1209.02
1135.576,-110.532,1196.088
1193.648,-153.964,1118.008
1245.864,-168.848,956.968
1329.8,-168.604,763.72
1353.224,-157.136,559.492
1433.744,-122.732,310.856
1365.18,-102.968,64.172
1362.984,-12.2,-229.848
1297.104,34.404,-374.052
1185.596,88.572,-398.94
1102.636,82.472,-443.104
1041.392,99.796,-499.712
1024.312,99.064,-486.78
1060.912,115.9,-415.776
1067.256,121.268,-315.98
1108.004,105.652,-217.404
1227.076,110.532,-120.292
1257.332,110.776,-9.516
1264.652,144.936,79.3
1282.708,161.772,168.604
1291.248,175.924,240.096
1304.668,158.112,309.148
1319.552,118.584,366.244
1274.168,131.272,372.588
1249.28,187.88,345.992
1154.852,257.176,331.596
1021.628,321.592,316.224
928.664,350.384,304.512
935.496,389.424,292.312
942.816,426.512,273.768
897.188,456.524,243.512
810.08,467.992,245.464
664.412,500.688,270.596
590.968,541.924,266.204
596.092,574.62,241.56
621.224,601.216,203.496
612.684,633.668,183.732
571.204,665.144,173.972
439.444,691.252,156.648
361.364,707.356,124.196
378.932,746.884,88.084
398.208,794.22,58.072
385.52,800.076,39.528
349.652,803.492,16.836
271.084,794.464,10.248
205.692,821.792,38.064
188.612,864.492,60.268
134.932,900.848,84.424
70.76,920.856,109.8
35.136,923.052,122.732
1.952,929.884,130.296
-80.032,928.42,162.26
-151.524,916.22,179.584
-173.24,905.972,174.948
-118.34,906.216,142.252
-77.836,937.448,112.728
-70.028,970.144,109.068
-47.58,988.688,94.428
-18.544,986.736,73.444
18.056,987.468,54.168
41.236,985.272,51.24
72.224,1002.596,55.876
106.14,1008.208,55.632
138.836,1006.988,55.876
157.38,1005.036,61.976
133.712,993.812,68.564
100.04,980.636,77.592
71.004,973.804,76.128
71.004,965.264,63.196
84.18,969.9,59.292
115.168,975.512,43.188
105.896,981.368,34.404
124.196,991.86,37.088
129.076,1000.888,48.312
140.544,994.788,40.748
134.688,993.568,35.136
119.316,990.396,40.992
111.264,996.74,48.068
98.82,1003.084,59.292
92.232,1007.72,71.248
92.232,1007.232,83.692
89.792,1006.744,91.256
104.432,1003.816,101.992
115.9,994.056,116.876
131.272,984.784,122.732
141.032,973.56,117.364
129.808,966.728,114.192
104.188,967.704,117.852
80.032,967.704,114.924
79.544,966.24,100.04
89.548,970.144,92.72
86.132,975.756,90.28
74.176,982.344,87.84
78.08,980.392,86.864
82.472,979.904,89.792
68.32,978.928,94.672
71.004,977.708,99.796
71.248,976.976,110.044
79.788,971.852,109.312
85.644,963.8,105.408
91.012,965.02,104.676
86.132,971.364,100.772
81.984,975.268,92.232
91.256,985.516,84.912
98.332,990.396,88.328
99.064,991.616,104.676
107.848,990.884,119.804
119.56,986.248,127.368
111.752,983.808,129.564
98.088,980.148,129.564
99.552,985.516,125.66
107.116,989.42,122.244
118.584,993.812,120.292
130.296,986.492,117.12
132.98,979.172,114.68
118.096,963.068,111.02
96.136,955.504,109.068
76.86,961.848,106.872
81.984,983.32,103.7
104.432,1003.572,107.848
143.716,1017.236,113.46
164.944,1014.796,129.076
172.264,1005.768,141.032
156.648,988.2,148.352
130.54,971.608,150.06
107.36,959.408,149.328
91.744,956.236,148.84
93.208,955.26,138.348
102.724,955.016,122.244
110.776,961.36,113.46
122.244,976.0,104.676
119.56,984.784,96.38
116.876,991.86,89.792
127.368,997.472,92.964
137.616,1002.596,103.7
137.372,1004.06,114.68
126.88,997.228,121.512
119.56,987.956,120.536
107.116,978.44,125.172
103.7,972.096,128.832
101.992,968.924,122.976
98.332,973.072,118.584
96.136,996.252,119.316
97.112,1010.16,125.904
96.624,1017.236,135.908
90.036,1007.964,140.056
80.032,1008.452,149.084
74.664,1015.04,150.548
60.024,1032.12,152.012
63.196,1045.296,146.4
97.356,1059.692,129.808
125.66,1052.128,110.776
139.568,1042.612,101.016
122.488,1035.048,97.6
53.436,1031.632,93.208
-1.22,1021.872,90.28
-36.6,1018.7,100.772
-37.576,1007.72,99.064
-27.816,1004.06,79.544
-66.612,1001.62,61.244
-136.884,1018.456,44.896
-153.232,1037.488,32.208
-167.872,1025.776,15.86
-207.156,1012.844,-0.244
-266.448,996.008,-12.932
-313.54,977.952,-26.108
-303.292,952.82,-31.72
-267.424,941.596,-28.792
-261.324,922.808,-32.696
-251.076,899.384,-57.584
-270.352,887.428,-83.936
-311.344,864.492,-119.072
-323.3,869.616,-129.564
-279.38,842.776,-138.348
-134.932,807.152,-122.244
21.716,773.724,-104.676
49.288,666.12,-128.588
-40.26,623.176,-82.228
11.956,570.472,-54.412
244.732,477.996,-51.972
532.408,382.592,-21.716
808.128,331.596,-1.464
893.284,320.372,-18.544
968.924,380.64,-50.996
976.976,314.76,-26.596
966.24,246.928,42.456
1217.804,159.576,70.76
1493.524,140.544,118.584
1514.996,185.928,142.008
1381.528,224.724,231.312
1213.412,229.36,344.528
1075.064,190.564,487.268
1164.368,145.668,621.956
1255.868,73.932,745.664
1113.128,23.668,875.96
975.268,6.832,901.824
950.868,-4.636,866.444
959.896,24.4,802.516
947.208,27.816,710.284
905.484,10.248,538.508
757.376,-21.472,387.472
736.392,77.592,276.94
747.86,44.408,131.272
829.356,68.564,-79.544
791.78,36.844,-299.632
814.96,60.512,-517.524
856.684,103.212,-640.744
915.732,120.048,-782.996
950.868,106.384,-911.34
997.472,91.5,-1034.56
1048.224,99.552,-1108.492
1079.944,114.436,-1092.632
1079.212,126.392,-1006.012
1041.392,106.872,-850.584
1036.512,70.028,-686.86
1010.648,78.08,-539.24
957.944,95.16,-400.16
933.544,33.672,-269.62
929.884,15.372,-40.992
992.592,-50.264,139.568
1023.092,-71.492,335.744
896.456,-74.42,461.404
814.96,-39.528,527.528
833.992,-39.284,600.728
869.372,-42.212,617.32
970.876,-46.116,688.324
985.272,-50.264,758.108
875.716,-79.056,826.672
859.856,-46.604,886.208
995.52,-52.216,908.168
1157.78,-80.764,939.644
1204.872,-128.832,956.48
1259.04,-139.324,917.928
1274.168,-160.552,831.064
1296.616,-173.728,728.828
1334.924,-150.548,645.624
1331.264,-163.724,517.28
1438.624,-49.532,141.276
1403.244,-2.684,-79.3
1295.152,92.232,-296.46
1248.06,200.324,-441.396
1234.884,243.756,-496.296
1211.948,203.252,-453.84
1155.828,136.396,-346.236
1097.512,68.076,-213.744
1133.868,115.656,-185.684
1163.88,187.148,-140.056
1127.768,253.028,-94.428
1080.188,281.82,-47.336
1117.032,272.792,-19.276
1177.056,266.448,27.328
1222.928,269.62,97.112
1239.032,279.868,139.812
1169.492,294.264,157.38
1106.052,317.932,170.068
1099.464,322.812,185.44
1107.028,338.916,189.832
1098.0,366.488,184.952
1051.64,402.356,179.096
949.648,433.1,174.948
914.512,465.796,172.02
910.364,494.344,180.804
930.86,515.084,178.364
887.428,524.6,191.54
811.544,528.992,192.76
744.444,555.1,195.444
670.268,562.176,194.224
636.352,586.332,190.076
529.724,623.664,184.22
392.84,642.208,166.408
315.004,666.12,159.088
346.968,703.94,137.86
410.652,734.44,144.448
382.104,741.516,160.064
106.872,732.0,157.38
-29.036,726.388,178.852
73.444,734.684,137.372
161.04,732.976,132.004
16.104,732.0,125.66
-353.312,756.888,90.036
-684.908,822.28,51.972
-613.66,871.324,-24.156
-450.18,924.272,-73.688
-347.7,1019.676,-26.352
-269.376,1049.932,43.188
-155.428,1019.188,79.056
-71.248,955.504,40.504
-97.112,950.136,0.732
-167.628,976.244,-19.276
-257.176,986.004,-30.5
-310.856,969.9,-30.744
-304.756,921.588,-25.376
-256.932,878.156,-11.224
-190.564,889.868,16.348
-179.584,930.372,49.288
-186.416,959.408,74.176
-172.752,971.608,73.688
-151.036,987.956,63.196
-173.728,985.516,46.36
-153.476,991.616,39.284
-112.972,1008.696,29.768
-80.032,1018.944,43.432
-111.752,1020.896,77.104
-131.516,1004.548,87.352
-139.812,981.124,91.988
-140.3,983.808,67.832
-134.932,1000.4,37.82
-115.9,1020.652,14.152
-97.356,1022.116,-0.488
-105.408,991.616,-0.488
-113.948,942.572,2.196
-125.172,911.828,16.348
-145.424,895.724,36.112
-132.004,904.752,45.384
-114.436,913.292,36.356
-102.236,934.032,18.788
-100.04,964.776,14.64
-120.292,997.228,20.008
-120.048,1028.216,21.716
-100.772,1044.076,33.672
-94.428,1042.368,41.48
-82.96,1035.536,43.676
-55.876,1027.484,31.72
-31.72,1014.552,16.836
-42.7,1000.644,21.96
-58.804,983.32,30.744
-84.912,963.068,47.336
-112.24,946.964,61.488
-132.004,933.788,57.096
-132.248,932.812,40.016
-124.196,951.844,35.136
-117.852,966.972,34.404
-98.088,976.488,33.184
-80.032,984.296,30.988
-82.228,995.276,25.62
-110.288,1010.648,18.056
-146.156,1031.388,10.736
-162.504,1042.856,12.932
-149.328,1033.584,16.836
-129.076,1003.328,21.472
-113.216,958.92,25.376
-123.708,926.956,29.036
-127.368,913.292,25.62
-117.12,924.516,20.008
-110.044,949.648,9.272
-125.904,974.78,10.004
-145.912,989.176,19.032
-151.768,1001.132,32.94
-160.308,1011.868,55.876
-164.212,1015.284,72.224
-167.384,996.252,73.688
-151.28,976.732,61.244
-127.612,966.972,48.8
-113.704,966.484,25.864
-114.68,968.192,9.272
-124.928,968.68,5.124
-132.492,968.192,5.368
-139.324,968.192,11.712
-144.936,970.388,16.592
-138.104,979.172,25.864
-155.672,985.272,26.352
-163.724,986.004,40.504
-162.748,980.636,50.996
-165.188,968.68,55.632
-166.408,965.02,55.144
-182.756,984.296,56.364
-196.908,1004.304,55.144
-214.232,1021.384,43.676
-250.588,1037.244,27.084
-257.42,1059.448,21.716
-272.548,1079.7,29.524
-289.628,1103.368,36.6
-329.4,1117.764,41.968
-403.82,1117.52,50.752
-383.324,1077.992,51.484
-308.172,1039.684,26.84
-261.324,1032.364,23.668
-222.04,1037.244,13.176
-213.988,1024.8,9.76
-260.104,999.18,9.272
-210.816,959.408,1.952
-33.916,934.032,14.152
149.572,918.904,37.088
193.98,861.564,48.556
81.496,774.212,54.656
40.26,694.912,56.852
180.804,649.772,39.284
234.728,611.708,39.284
324.032,589.748,55.144
412.848,531.92,52.216
444.812,469.212,90.524
530.212,398.696,137.372
672.464,396.012,171.044
773.968,349.408,135.42
995.276,352.58,166.652
1041.636,354.288,230.092
1066.036,381.372,296.704
1085.312,391.864,372.344
1144.36,407.48,388.448
1176.08,433.1,389.18
1155.34,476.776,400.16
1186.572,488.732,392.84
1171.932,471.652,422.12
1169.248,451.644,467.504
1140.456,422.12,515.572
1147.288,388.936,584.136
1147.044,321.104,642.208
1052.372,266.936,618.296
912.072,249.856,586.088
813.496,271.084,528.26
803.004,302.804,462.38
783.728,299.144,401.136
725.168,281.576,312.32
652.456,285.968,195.444
578.036,304.268,69.296
569.74,322.812,16.592
627.812,318.908,-126.88
703.452,277.184,-284.016
739.32,272.304,-370.636
767.624,241.56,-473.36
833.748,250.1,-628.3
872.788,225.212,-750.056
923.784,272.304,-843.752
1013.576,310.612,-913.536
1084.824,295.972,-946.232
1170.468,269.62,-930.616
1161.928,211.304,-816.668
1064.084,147.62,-669.536
999.18,137.86,-524.6
974.78,148.84,-404.796
1025.532,132.248,-285.724
1050.176,114.192,-120.78
895.724,-22.448,106.14
685.64,-65.88,318.42
664.9,-39.528,445.544
851.072,-6.344,519.232
910.364,44.652,590.968
806.664,39.772,649.772
728.096,-11.712,715.896
825.94,-66.368,776.164
889.624,-54.412,828.868
908.656,-15.86,851.804
876.936,-33.184,863.028
990.64,-57.584,821.304
1161.196,-22.448,802.272
1154.12,-35.136,795.684
1246.596,-8.784,777.384
1326.628,-36.356,784.216
1400.56,-55.632,726.632
1404.464,-103.944,705.404
1377.38,-151.524,649.528
1403.976,-129.32,448.228
1419.104,-64.66,213.5
1333.216,-6.344,6.832
1281.0,55.632,-162.992
1209.02,123.22,-273.28
1123.62,137.128,-339.648
1039.684,123.708,-349.652
1016.992,99.064,-340.624
999.424,98.088,-348.92
973.804,107.848,-320.128
970.144,121.024,-305.732
969.412,129.32,-251.076
1068.476,121.512,-201.3
1237.568,77.592,-82.472
1378.356,84.668,1.464
1358.348,133.712,76.128
1279.048,153.72,160.796
1247.816,183.0,209.108
1279.048,206.424,230.336
1293.932,241.316,232.044
1266.116,268.156,229.848
1158.024,317.688,196.664
1008.94,373.808,170.556
951.844,445.544,165.92
974.78,471.652,205.692
959.164,467.016,236.436
939.4,469.212,247.416
928.42,483.608,240.096
846.192,493.368,261.812
758.352,540.46,274.744
686.616,560.468,285.724
652.944,575.596,290.36
668.072,586.332,272.06
625.86,606.096,264.008
561.688,619.272,270.84
500.444,643.428,282.308
414.068,663.68,288.896
346.48,677.1,278.16
338.672,687.348,249.368
337.452,708.82,242.78
350.872,738.832,247.416
325.008,766.648,269.864
263.276,786.656,277.672
178.364,781.288,254.248
87.84,776.652,213.256
-16.836,792.756,159.088
-139.324,812.764,97.6
-247.416,852.78,22.936
-341.6,889.136,-39.284
-396.012,919.148,-61.0
-374.052,939.644,-81.008
-313.052,966.24,-86.62
-263.032,990.884,-41.724
-223.016,1026.996,1.952
-192.028,1017.968,41.968
-211.304,978.684,80.764
-248.88,927.2,99.552
-179.584,921.588,115.168
-74.42,956.724,126.636
-21.228,976.0,137.616
-40.748,984.296,135.908
-62.22,976.0,121.756
-54.168,976.488,118.828
-32.94,980.636,107.604
-32.208,977.952,81.984
-39.772,978.44,57.828
-44.652,993.812,53.436
-37.576,1012.844,64.172
-15.616,1023.58,76.86
3.66,1019.92,83.204
-3.904,990.396,76.128
-39.772,966.484,81.984
-71.98,968.924,104.188
-76.372,983.076,122.0
-29.28,991.372,122.0
11.468,991.128,117.608
18.544,983.808,106.14
-21.716,985.516,93.452
-52.46,983.564,76.128
-53.68,992.104,62.952
-35.624,992.348,61.0
-21.96,992.104,68.808
-16.104,986.004,76.372
-12.688,985.272,91.744
-14.64,979.416,94.672
-28.548,970.632,94.672
-52.46,965.996,103.212
-57.828,971.852,104.676
-30.988,984.052,93.94
-19.764,991.86,87.84
-22.204,996.008,87.596
-28.548,994.3,81.74
-21.716,996.496,78.08
-26.352,995.032,78.08
-24.644,990.64,76.372
-24.4,989.664,82.472
-23.912,986.98,89.792
-32.94,979.172,94.916
-48.556,968.924,103.944
-53.68,966.484,106.628
-43.92,962.336,88.816
-28.548,974.048,75.64
-28.792,989.176,76.86
-27.816,999.18,67.1
-12.2,1006.744,66.124
-3.66,1012.6,70.516
-6.1,1009.184,76.372
-19.52,994.544,75.64
-40.26,985.272,80.276
-50.508,989.42,86.62
-50.752,994.056,88.328
-43.676,991.616,81.008
-48.556,980.636,81.252
-48.556,981.856,85.888
-39.528,982.1,87.108
-35.136,985.516,83.692
-35.868,981.856,74.42
-37.576,975.512,71.736
-37.332,968.436,70.516
-41.724,972.828,79.544
-35.136,980.392,94.184
-21.96,984.54,95.648
-26.596,979.172,84.668
-37.576,977.952,77.592
-35.38,987.712,71.736
-26.108,1000.4,65.148
-29.524,1002.352,56.364
-23.18,996.984,64.416
-7.076,995.032,74.664
-21.472,988.688,87.84
-31.964,980.392,89.304
-26.352,978.928,81.008
-24.4,981.124,72.468
-31.476,990.396,68.808
-33.184,1000.156,70.028
-17.08,1003.084,70.76
-6.344,1000.4,70.76
-3.172,994.056,74.664
-10.492,989.664,80.032
-27.816,990.396,78.812
-47.824,996.74,74.42
-43.92,1010.892,74.664
-37.332,1017.968,77.104
-31.964,1019.92,77.348
-41.968,1019.188,72.712
-65.88,1022.116,73.932
-80.276,1029.924,77.104
-95.16,1054.324,76.86
-110.776,1078.724,80.276
-152.256,1086.776,81.496
-213.256,1094.34,70.028
-249.368,1101.172,54.412
-215.208,1090.68,44.164
-169.58,1069.208,34.648
-133.468,1069.696,41.968
-103.212,1076.04,56.608
-118.828,1061.888,53.68
-140.544,1035.048,43.188
-170.8,1006.988,21.228
-132.004,987.712,11.956
-49.044,972.34,18.544
-27.328,939.156,4.636
-57.34,891.332,-9.272
-78.324,831.308,-6.588
-54.9,821.06,11.712
81.496,731.756,20.252
209.108,675.88,22.448
340.136,636.108,67.588
414.8,596.336,35.624
375.76,612.196,20.252
361.12,590.48,51.972
519.232,551.44,46.116
717.848,497.028,50.264
894.992,453.84,13.908
1023.824,447.496,2.44
875.228,455.06,32.452
804.956,471.164,35.868
929.396,432.368,74.908
1100.196,383.324,131.516
1147.044,358.68,241.072
1086.044,352.336,349.408
1040.904,332.084,479.704
1007.476,282.064,617.32
1055.544,212.28,773.724
1046.272,169.092,910.852
1059.692,121.268,988.688
923.784,101.26,1034.804
880.352,112.728,1013.82
921.1,109.068,976.0
909.632,107.604,893.284
796.172,83.936,773.968
691.496,113.46,665.144
675.392,118.34,499.468
700.768,124.684,279.38
744.932,157.624,94.672
697.84,162.016,-26.596
681.492,173.728,-233.264
737.124,180.804,-425.78
819.352,185.44,-584.868
850.584,189.832,-697.84
889.38,202.52,-807.396
899.14,193.98,-896.7
948.184,180.56,-938.18
1016.26,205.936,-974.78
1033.828,225.212,-969.9
1055.3,250.1,-916.464
1029.68,214.964,-812.032
1011.624,187.636,-660.996
985.76,159.088,-466.284
967.704,112.972,-287.432
1000.644,69.296,-200.568
1059.936,100.772,-63.684
991.86,80.032,56.852
878.644,83.936,175.436
825.452,43.188,286.7
816.912,54.656,387.472
815.936,76.128,480.924
864.736,51.24,528.992
879.376,3.416,607.56
810.568,-38.064,678.564
817.4,-30.5,729.316
870.836,1.708,750.788
923.052,17.324,776.408
950.868,4.88,821.06
996.984,-34.16,868.396
1069.94,-78.324,894.748
1199.992,-99.308,870.592
1309.792,-111.02,827.892
1329.8,-112.972,783.972
1342.732,-130.54,736.392
1377.38,-154.94,663.192
1429.596,-152.256,488.244
1467.66,-127.856,286.944
1420.08,-83.692,166.408
1286.124,-49.044,53.68
1223.416,-37.82,-60.512
1189.012,-36.844,-167.628
1191.208,14.64,-296.704
1156.56,43.92,-320.616
1099.464,45.384,-310.124
1089.216,34.892,-294.264
1085.8,39.772,-264.984
1117.032,16.836,-201.788
1165.588,35.868,-144.692
1166.564,64.172,-87.108
1169.004,85.888,-27.572
1187.792,106.628,10.98
1213.168,134.2,71.004
1270.264,166.164,124.684
1285.636,177.144,172.264
1251.232,188.856,225.212
1185.352,196.176,255.712
1119.228,203.496,255.712
1074.088,251.808,228.872
1059.204,322.08,181.048
1014.796,383.08,159.82
952.576,398.452,164.7
894.26,410.408,160.308
903.044,422.852,156.892
882.304,467.504,125.904
838.384,502.152,109.068
801.296,535.092,91.012
732.976,578.036,83.936
619.272,609.024,95.404
573.4,632.448,83.448
575.352,653.432,60.024
538.996,680.272,65.392
426.268,699.06,91.012
398.94,712.968,99.308
345.016,742.248,96.624
314.272,750.056,106.384
247.416,781.044,126.392
179.828,799.344,113.216
107.604,787.632,98.332
25.132,805.932,105.652
-78.812,835.7,120.048
-138.348,872.788,125.172
-158.844,884.988,110.776
-198.616,900.848,110.776
-283.772,913.536,127.368
-346.236,911.34,123.952
-390.888,935.496,114.68
-351.848,975.756,107.604
-304.512,987.956,107.116
-269.132,982.588,107.36
-214.72,956.48,98.088
-158.6,939.4,97.112
-51.972,955.26,82.228
40.992,990.396,70.028
77.348,1007.232,52.46
72.956,1006.5,40.016
54.168,1008.452,40.016
31.72,1012.112,40.504
42.944,1003.816,26.596
22.204,992.592,27.328
1.708,980.148,40.992
-17.08,977.952,59.78
-19.52,964.532,75.396
10.248,989.176,79.3
26.108,978.44,70.028
61.732,1008.452,67.832
47.336,1011.38,64.66
31.476,1014.064,55.876
11.224,1017.236,47.824
1.464,1012.6,46.604
-1.952,1005.524,56.12
-5.368,981.368,59.78
-23.912,962.092,75.884
-20.008,953.064,80.764
-6.588,956.724,78.568
-0.976,959.652,75.396
-3.172,969.168,75.64
-1.464,973.804,70.272
0.488,981.368,62.708
4.88,994.544,54.168
0.0,999.424,46.36
-14.152,1005.524,50.996
-13.908,1006.012,64.66
8.052,1002.596,71.736
30.988,995.032,72.468
44.408,994.788,79.544
45.872,992.104,88.328
45.14,990.396,83.692
30.012,982.832,65.392
12.2,980.636,51.484
-6.1,982.832,47.58
-12.2,986.492,53.436
-1.952,985.272,56.852
13.176,982.1,55.388
21.96,987.468,59.048
20.252,994.056,66.856
14.152,1002.108,74.176
26.108,1004.792,72.468
35.136,1004.304,68.564
28.304,998.936,70.76
7.076,995.52,76.86
-10.248,989.176,74.664
-10.736,977.464,67.832
-7.32,976.732,63.44
-1.464,978.928,65.636
-1.708,985.028,67.1
17.812,987.712,66.856
18.056,989.176,67.832
16.592,986.736,66.856
7.564,987.468,69.296
-1.464,988.2,67.344
-5.368,988.932,66.368
-1.464,990.884,61.488
5.368,993.812,59.292
28.304,997.716,63.928
40.504,1000.644,73.688
30.988,993.324,84.18
20.008,980.636,87.352
38.308,976.976,79.544
43.432,986.492,68.32
27.816,988.688,56.852
17.324,1001.864,55.144
18.544,1009.184,60.512
10.492,999.18,53.192
6.1,991.616,51.484
-1.464,992.592,61.488
11.956,997.472,72.712
17.568,996.008,78.08
2.196,986.492,79.056
-2.928,982.832,79.3
11.712,991.372,77.836
30.256,998.936,73.444
33.916,999.424,70.76
37.82,988.2,65.88
36.844,978.928,59.292
26.84,977.708,50.264
10.98,983.076,40.504
6.588,989.908,40.504
10.004,996.74,46.604
19.032,995.764,44.896
4.636,988.2,46.116
-10.736,990.152,46.36
-8.784,993.812,48.556
-2.684,1009.916,59.536
8.052,1020.652,74.42
20.252,1030.656,78.324
-5.368,1054.08,80.52
-54.412,1081.164,86.376
-103.7,1082.384,73.932
-208.376,1107.028,52.948
-240.34,1126.548,42.944
-238.144,1118.74,31.476
-204.96,1092.876,40.748
-190.076,1081.652,62.464
-238.144,1043.832,62.464
-315.248,999.424,28.06
-412.116,974.292,-14.152
-386.008,969.656,-39.04
-264.252,953.552,-60.512
-88.572,939.888,-47.336
-44.164,875.472,-42.456
-201.3,816.424,-35.38
-208.864,739.32,24.644
-46.36,633.424,-2.196
260.104,544.608,41.968
422.364,505.568,56.12
534.116,436.516,55.632
561.932,356.972,51.484
693.204,335.988,92.72
853.512,306.464,113.46
1146.8,228.14,116.632
1291.004,166.408,162.992
1344.928,136.152,205.204
1163.148,166.164,276.94
1133.624,232.532,256.688
1302.96,254.736,243.756
1364.936,274.5,260.104
1236.104,291.58,304.268
1136.552,323.544,349.164
1054.812,373.076,376.004
1026.02,413.092,395.768
1018.212,404.064,449.204
977.464,372.1,526.308
977.708,307.684,607.316
984.54,221.308,666.608
975.756,189.1,692.228
923.54,163.968,712.48
843.752,145.18,723.216
755.912,97.844,685.64
670.512,22.204,565.348
647.332,-31.964,367.22
569.252,-28.06,109.556
533.384,-0.244,-74.908
548.512,47.58,-276.696
606.584,43.676,-528.504
692.228,34.404,-779.58
783.728,101.748,-984.052
859.368,153.72,-1112.64
895.968,216.672,-1268.8
945.256,209.108,-1348.832
1083.848,193.492,-1303.692
1187.304,145.424,-1127.28
1182.18,44.408,-894.748
1060.18,-31.476,-640.5
980.392,-28.792,-462.136
992.348,-5.856,-348.188
1006.988,23.668,-250.832
1056.276,-0.976,-129.076
903.532,-71.98,74.908
798.124,-98.088,241.316
856.928,-111.264,351.36
951.356,-59.78,464.82
900.604,-41.48,559.736
850.584,-70.272,629.276
917.928,-71.248,683.688
952.332,-51.972,713.212
957.212,-51.484,737.856
994.3,-30.5,784.46
1011.868,-43.188,829.356
1109.468,-33.428,838.14
1151.436,-19.276,842.044
1162.904,-45.14,830.332
1223.66,-102.724,819.352
1332.24,-139.08,745.664
1420.324,-155.672,624.64
1406.904,-144.448,526.308
1436.428,-96.136,303.292
1438.624,-66.612,-11.224
1387.628,-12.444,-155.184
1348.1,26.352,-224.236
1345.904,20.496,-332.328
1302.228,-10.736,-449.692
1211.948,27.328,-469.7
1178.52,52.46,-446.032
1133.38,71.98,-438.712
1175.592,91.256,-410.896
1241.228,88.816,-336.232
1252.452,96.624,-247.172
1239.764,129.076,-145.18
1280.268,180.072,-73.932
1314.916,220.332,-19.032
1320.528,254.492,35.136
1282.708,262.3,103.7
1233.908,270.352,162.016
1151.436,267.912,198.372
1048.712,340.868,187.148
977.22,388.936,169.58
843.02,445.544,139.568
760.548,487.756,132.98
710.04,501.664,145.912
647.088,522.16,148.108
621.956,546.804,147.132
580.964,570.228,124.44
540.704,588.772,118.584
522.648,629.52,109.556
447.74,646.356,106.872
408.456,690.276,110.776
394.06,701.256,128.588
410.408,720.776,140.3
385.764,721.996,154.94
304.512,722.972,160.552
182.512,740.784,182.268
105.896,759.084,182.024
103.212,784.704,155.428
54.656,813.984,149.328
-17.324,840.58,130.784
-135.176,838.14,125.416
-191.296,856.684,80.764
-195.444,889.624,41.968
-162.992,943.548,9.76
-206.424,992.348,-7.808
-265.716,1030.412,-5.612
-278.404,1031.388,-7.564
-170.068,1026.996,-2.684
-49.288,1017.724,11.468
6.344,1008.452,44.652
71.248,1003.572,89.548
138.104,1000.4,121.024
180.072,986.248,125.172
196.176,987.468,118.828
152.5,988.932,98.332
89.792,1004.06,98.332
61.0,1002.84,81.252
72.956,1000.644,71.248
82.716,980.148,70.272
82.716,974.536,80.52
92.964,975.024,107.848
89.06,983.564,122.976
50.508,976.0,110.044
33.184,979.66,111.264
-12.2,982.344,116.144
-9.272,979.904,113.948
-7.076,971.364,117.608
-7.564,970.388,136.396
-11.712,960.872,139.08
-2.44,960.628,132.248
35.624,974.536,112.24
76.372,994.056,98.088
96.624,1008.696,92.476
77.104,1018.944,84.18
50.508,1006.744,90.28
22.936,985.76,93.208
25.132,978.684,104.676
61.488,986.492,116.632
78.812,978.44,126.148
61.244,969.9,127.856
40.26,964.776,122.488
13.664,961.36,112.24
25.62,969.9,98.088
50.996,983.32,86.62
49.776,986.248,78.08
62.22,993.812,76.86
94.184,998.936,85.156
97.356,993.568,99.308
90.036,986.492,98.088
62.22,981.856,94.428
48.556,991.372,93.452
81.252,1004.06,95.16
89.06,1000.888,91.5
76.616,988.932,94.428
76.616,980.88,101.016
81.984,984.296,106.14
65.88,984.296,109.312
45.872,979.172,106.14
44.896,977.708,95.648
55.144,983.808,96.868
72.224,994.056,102.724
63.928,987.468,110.532
56.364,983.808,114.436
71.492,985.76,108.092
64.66,985.516,100.284
56.608,982.344,100.04
66.612,984.54,95.16
81.008,987.956,101.748
93.696,988.2,102.724
83.448,982.832,103.7
62.464,980.148,104.432
49.288,985.028,108.58
65.392,994.544,105.164
79.056,997.472,99.796
88.084,995.52,102.724
88.328,991.372,115.168
78.812,983.808,126.636
77.104,976.732,123.952
63.928,976.244,117.12
55.388,983.32,108.58
63.684,987.956,103.456
66.124,988.444,95.648
68.076,986.004,99.064
56.364,981.612,110.044
54.9,981.368,110.288
71.248,988.2,112.484
69.784,993.324,111.996
67.344,991.616,111.264
56.852,988.444,114.436
67.344,989.42,119.804
97.356,991.616,122.976
111.752,996.008,122.0
101.748,983.808,113.704
67.588,985.76,105.896
68.076,996.008,91.5
93.696,1010.16,88.816
119.316,1021.872,92.232
124.196,1023.58,92.72
125.172,1012.844,102.968
112.484,1004.06,102.236
100.04,1001.62,108.824
76.372,1005.524,112.728
66.124,1011.624,109.556
81.252,1019.188,95.16
95.404,1028.948,85.4
92.964,1043.588,83.692
61.0,1052.616,91.256
10.98,1058.228,109.556
5.612,1055.3,116.632
17.812,1030.9,115.412
-8.54,992.348,102.724
-55.388,966.972,94.672
-87.108,925.492,81.984
-83.448,885.232,77.348
-20.496,842.044,76.372
98.82,796.66,82.96
159.332,697.596,73.932
245.22,747.128,104.676
468.48,708.82,105.408
637.084,690.52,103.212
623.908,636.596,64.416
517.524,642.696,77.592
515.816,593.896,42.944
719.8,611.464,22.204
894.748,601.216,23.18
1037.0,527.284,19.764
998.204,498.98,62.952
828.136,488.244,140.3
823.744,462.868,193.492
1037.0,430.416,175.436
1109.468,408.456,218.136
1116.056,413.336,247.66
1006.012,413.824,294.996
933.3,432.368,330.376
982.344,422.852,383.324
999.18,412.116,477.996
964.776,377.712,599.02
935.008,268.156,764.208
966.728,194.224,825.452
943.06,183.732,864.248
924.272,208.864,858.88
857.66,193.736,826.184
742.492,166.896,807.152
662.216,107.116,733.952
693.692,108.824,509.716
667.34,109.068,313.784
670.756,106.628,111.02
690.032,126.392,-140.544
736.148,202.032,-375.272
787.388,229.116,-535.58
831.796,253.272,-667.096
851.072,237.9,-766.16
933.3,228.628,-837.164
990.396,218.868,-879.132
1057.984,252.296,-895.48
1128.256,284.748,-890.112
1182.18,275.72,-820.328
1172.664,223.504,-688.568
1118.496,161.284,-512.156
1086.776,99.064,-356.484
1107.272,81.984,-225.7
1124.108,85.156,-109.556
1072.868,89.548,24.888
937.692,51.972,153.476
843.508,13.176,284.016
839.604,-28.792,353.068
865.468,-27.084,419.192
766.892,-17.08,502.396
694.668,-13.908,580.476
739.076,-8.784,625.616
796.416,-29.768,673.928
857.904,-20.008,721.752
813.252,-63.684,780.312
838.872,-97.844,818.132
994.056,-94.916,852.78
1082.384,-83.448,874.74
1108.248,-68.564,858.148
1158.512,-88.816,832.528
1239.276,-103.944,816.424
1343.708,-151.036,784.704
1456.68,-171.532,671.976
1462.78,-188.368,557.052
1483.032,-168.604,414.068
1502.308,-120.048,174.704
1417.396,-69.052,-9.516
1318.332,-42.456,-180.56
1258.064,-3.904,-283.772
1151.68,5.856,-354.288
1080.432,-7.076,-384.3
1017.724,24.4,-406.504
1001.376,35.136,-387.96
1012.356,42.7,-349.408
1049.688,55.388,-296.704
1052.372,65.392,-196.176
1050.176,84.668,-87.108
1087.752,91.012,-10.736
1146.312,99.064,56.364
1215.364,93.94,111.752
1278.316,87.352,164.212
1292.712,68.076,219.112
1271.972,84.668,240.34
1222.44,114.192,242.292
1195.112,133.712,244.732
1174.372,164.212,236.192
1134.844,194.224,254.492
1102.148,225.212,262.3
1049.688,223.504,278.404
1052.372,255.712,277.916
1042.612,282.552,292.312
1027.484,307.44,296.46
947.696,352.092,291.58
855.22,382.592,288.896
787.388,424.56,281.088
740.296,471.652,251.808
722.972,540.704,224.968
669.292,586.576,223.992
572.668,612.196,239.364
500.444,641.232,234.24
483.852,665.876,217.16
517.524,702.72,219.844
458.476,736.148,239.608
415.044,736.636,239.608
363.56,743.468,242.048
328.18,746.152,246.684
304.024,771.528,212.768
191.784,757.376,196.908
49.532,764.208,163.236
-45.14,757.864,130.052
-156.16,790.072,121.024
-334.28,828.624,156.16
-429.684,822.28,134.444
-321.104,811.056,52.948
-241.316,850.584,37.576
-289.14,890.356,55.144
-382.836,935.496,69.54
-491.66,903.532,54.412
-495.32,890.6,45.628
-337.94,938.18,33.184
-292.312,978.928,55.632
-352.824,976.976,74.176
-321.836,948.428,58.804
-280.6,925.004,43.676
-247.904,942.328,28.792
-221.552,980.636,20.496
-218.136,1002.108,27.816
-253.028,989.176,29.28
-310.124,946.232,8.052
-293.532,948.184,4.392
-296.704,942.572,21.716
-308.66,934.032,48.8
-266.692,916.464,44.652
-243.512,923.296,50.996
-240.34,933.544,40.748
-238.388,948.672,26.352
-242.048,964.044,18.788
-273.524,954.528,5.612
-285.48,952.332,6.588
-254.736,969.168,13.42
-251.32,975.024,24.4
-314.76,928.42,32.208
-326.716,903.776,49.288
-308.416,913.536,73.688
-262.544,937.204,75.152
-266.448,934.52,65.148
-270.596,936.472,47.824
-271.328,942.328,46.36
-255.468,942.328,30.988
-243.756,958.188,20.984
-234.728,979.416,13.664
-228.872,996.008,14.152
-268.156,980.148,29.524
-267.912,953.064,34.16
-223.26,953.064,39.04
-212.768,968.436,64.66
-225.212,967.948,74.176
-247.172,947.94,78.568
-255.956,933.056,68.32
-250.1,937.936,53.436
-239.852,957.212,43.92
-229.604,977.22,37.82
-231.556,976.0,25.376
-257.908,967.216,24.4
-268.4,953.552,33.428
-272.304,942.572,41.48
-268.644,946.476,56.12
-247.66,959.896,59.292
-228.872,966.728,55.388
-252.296,966.972,41.968
-268.156,967.948,29.768
-296.46,976.976,35.624
-302.316,1000.644,47.824
-268.888,998.448,57.828
-240.34,979.904,51.484
-264.008,971.364,51.24
-280.112,956.236,60.024
-284.748,948.916,69.296
-256.688,954.284,63.44
-208.62,979.416,63.196
-158.112,985.76,42.456
-170.312,973.316,43.92
-130.54,970.632,38.308
-57.828,987.468,31.72
-35.868,1000.644,34.648
-56.12,1014.308,48.312
-64.172,1011.38,47.824
3.172,1003.084,31.72
25.62,996.984,43.432
24.156,992.592,61.244
53.436,978.196,72.956
95.16,966.24,85.644
97.844,953.308,105.896
109.556,936.716,111.752
61.976,941.352,109.8
73.688,932.08,118.34
195.932,901.824,77.836
239.364,890.6,59.78
273.28,921.832,59.048
105.652,892.552,83.204
103.212,869.372,78.812
293.288,849.608,61.488
377.956,824.964,61.976
440.176,803.004,40.26
254.248,742.492,83.692
188.124,709.064,108.336
420.9,718.336,62.464
723.216,670.268,30.988
825.696,644.404,64.172
662.704,550.952,99.064
681.248,497.028,124.928
877.668,496.54,100.528
983.808,510.692,66.368
991.128,467.26,77.592
980.636,407.236,109.068
980.88,404.064,115.168
1108.98,382.348,112.24
1177.056,379.664,130.296
1169.736,323.788,187.636
1134.112,304.268,244.244
1113.128,313.54,292.556
1089.948,353.312,315.248
1048.712,395.768,308.66
1044.32,417.728,322.324
1034.072,406.992,363.072
1060.912,355.752,420.9
1045.784,322.812,484.096
1016.504,289.384,562.908
1013.576,267.424,609.024
956.968,231.556,635.376
884.5,209.108,657.58
789.34,169.336,593.652
733.22,163.724,469.944
698.084,155.428,384.056
668.804,113.46,254.248
668.804,109.312,14.396
629.032,117.364,-181.048
645.136,126.636,-322.324
712.236,171.532,-500.2
780.556,192.516,-681.736
847.656,219.6,-844.484
907.436,269.376,-927.444
939.156,281.82,-967.46
967.948,251.564,-965.508
1000.156,200.568,-944.28
1074.088,181.536,-867.664
1106.54,169.824,-762.744
1077.992,131.028,-661.972
1038.952,130.784,-550.464
1086.044,144.448,-446.276
1165.1,100.528,-341.112
1174.128,49.532,-188.124
980.148,8.784,-37.088
833.26,13.42,91.988
828.38,16.592,187.88
828.868,46.36,257.42
815.692,56.608,346.236
753.472,12.932,439.444
700.768,-3.904,533.872
724.68,19.032,632.204
886.208,47.336,701.5
950.136,20.496,765.672
970.632,-31.476,850.096
1009.672,-60.756,921.832
1143.384,-38.308,951.112
1237.568,-21.96,900.116
1346.636,-14.884,796.904
1406.172,-4.392,672.952
1437.404,-4.88,600.24
1458.144,-47.092,530.456
1461.072,-78.568,386.008
1395.192,-87.84,288.652
1332.24,-90.28,170.556
1277.34,-46.848,-45.872
1195.112,-9.028,-223.992
1214.876,31.72,-371.368
1155.584,68.32,-466.284
1091.412,84.18,-469.944
1109.956,72.712,-465.064
1160.952,64.416,-412.848
1171.2,83.692,-366.0
1190.964,108.58,-286.212
1270.508,102.968,-190.32
1368.108,98.088,-91.744
1443.26,120.292,-26.352
1422.52,147.62,39.04
1295.152,167.384,78.812
1221.22,236.436,118.34
1203.652,272.06,132.004
1251.72,300.852,133.712
1176.324,291.092,156.892
1047.98,315.98,169.824
901.092,368.684,139.812
878.4,423.584,96.624
878.888,475.556,74.176
809.836,541.924,67.832
761.524,574.864,51.972
675.392,588.528,70.516
587.796,599.02,91.256
520.452,614.88,98.576
518.012,651.724,92.964
472.628,672.464,104.432
443.592,720.288,85.644
380.152,762.5,79.544
241.316,771.04,62.22
119.56,797.392,53.68
121.756,825.696,59.048
143.96,837.652,54.9
218.38,843.508,59.78
184.464,849.12,81.984
119.072,846.436,92.232
12.2,870.836,109.068
-81.496,874.008,134.688
-42.456,875.228,125.66
-3.66,861.564,122.976
27.816,875.96,132.98
-91.744,866.688,156.404
-171.044,878.644,175.68
-131.028,851.316,165.92
-83.936,836.676,158.112
-98.576,854.0,145.912
-270.108,865.712,152.5
-474.58,897.92,157.868
-473.36,891.576,150.792
-379.176,882.304,127.368
-254.004,930.128,148.596
-212.036,945.988,165.676
-277.672,946.964,171.044
-359.9,945.012,186.416
-335.744,924.272,170.556
-212.524,952.82,161.772
-126.148,999.668,154.696
-114.436,1016.26,150.548
-115.168,1016.26,161.04
-171.044,977.464,165.676
-180.316,950.38,137.128
-184.952,938.424,128.588
-191.296,949.648,129.32
-160.796,963.556,113.216
-161.284,965.996,101.748
-152.012,975.268,95.16
-138.104,979.172,84.668
-137.616,980.88,76.372
-149.816,985.76,75.152
-197.64,982.832,77.592
-205.448,992.592,82.228
-172.996,1001.376,77.592
-158.844,1004.548,95.404
-131.028,1002.596,116.632
-95.648,980.148,136.396
-91.744,945.012,140.056
-97.356,916.22,123.708
-111.508,913.048,92.964
-123.952,920.612,58.804
-120.292,952.576,44.652
-108.824,977.22,36.112
-99.552,997.96,36.356
-101.748,1003.084,47.092
-146.156,980.88,65.88
-160.064,969.656,81.252
-134.444,977.952,76.616
-138.348,1000.4,72.224
