acc_x[mg],acc_y[mg],acc_z[mg]
-118.096,960.14,-12.932
-110.288,968.68,-30.256
-103.456,985.76,-40.016
-136.884,988.688,-20.984
-129.564,995.032,-35.136
-130.052,991.128,-37.088
-119.316,983.076,-25.376
-126.148,981.124,-8.54
-114.68,986.248,-23.912
-110.288,994.3,-41.724
-103.7,997.96,-59.292
-130.784,996.252,-36.356
-132.736,984.052,-11.468
-125.66,981.124,-6.588
-111.508,972.584,-11.224
-95.404,977.464,-32.94
-118.828,984.784,-24.888
-119.316,986.248,-39.284
-125.416,989.42,-42.212
-126.148,977.464,-22.204
-123.708,974.536,-24.888
-140.3,971.852,-25.62
-140.3,969.168,-35.136
-151.768,965.264,-28.304
-162.748,965.508,-25.376
-128.344,970.876,-55.144
-152.5,968.192,-41.236
-166.896,973.316,-27.328
-157.868,974.048,-28.792
-164.212,974.78,-28.548
-140.788,979.904,-54.656
-66.368,982.588,-111.264
-115.656,996.496,-77.104
-177.632,985.028,3.172
-193.492,969.656,34.648
-152.256,971.852,4.636
-120.048,966.972,-24.644
-93.696,967.704,-33.916
-117.608,982.832,-20.496
-158.356,986.98,12.2
-137.616,992.836,-3.172
-120.78,989.42,-11.468
-113.216,982.588,-7.808
-101.504,981.124,-9.028
-87.108,978.928,-21.228
-112.24,988.444,-12.932
-103.7,977.708,-15.86
-93.452,978.928,-36.112
-130.54,978.684,-24.4
-135.908,968.68,-15.616
-125.416,966.972,-34.16
-137.86,966.972,-34.16
-132.492,964.532,-24.4
-155.184,965.264,-7.808
-152.744,964.776,-14.64
-142.008,970.876,-33.184
-141.276,976.976,-46.116
-135.42,977.708,-47.092
-145.668,980.392,-31.72
-148.352,976.488,-27.084
-129.808,983.32,-42.212
-142.74,982.832,-38.064
-129.32,970.144,-32.94
-135.176,969.412,-21.472
-131.272,978.196,-23.18
-132.98,982.344,-24.156
-132.736,978.44,-19.764
-120.536,978.684,-17.812
-116.388,989.908,-29.28
-114.68,992.104,-35.38
-105.408,993.812,-53.68
-109.8,986.492,-50.02
-114.192,980.636,-32.452
-123.22,981.612,-21.228
-126.88,977.464,-12.2
-110.044,973.56,-19.032
-125.416,971.852,-20.984
-129.808,973.316,-18.544
-129.808,982.344,-23.18
-130.784,991.372,-34.648
-115.9,979.66,-40.26
-112.484,978.928,-37.088
-131.028,977.952,-16.104
-136.884,982.344,-16.104
-134.444,988.2,-28.548
-131.516,997.96,-37.088
-115.656,991.128,-42.944
-116.144,990.152,-41.48
-124.928,981.368,-28.304
-126.392,973.316,-15.128
-111.752,975.512,-17.812
-105.164,987.224,-18.3
-113.216,994.544,-24.888
-121.268,1001.132,-17.568
-134.932,1013.088,-19.52
-144.936,1019.676,-14.884
-165.432,1044.076,-28.792
-196.42,1058.228,-63.928
-249.124,1087.752,-98.576
-314.028,1073.6,-68.564
-331.596,1056.276,-45.628
-312.076,1040.416,-29.768
-170.556,1036.512,-94.672
-173.484,1048.468,-103.944
-337.452,1042.856,-28.548
-147.62,1003.084,-107.604
-104.676,937.936,-58.316
-133.712,895.968,-6.832
-57.828,817.156,20.008
-142.008,724.68,38.552
-400.404,588.528,93.94
-259.128,278.892,170.556
394.548,44.896,202.276
873.52,-78.568,296.948
946.964,-116.876,269.376
1123.864,8.052,182.268
1188.036,60.512,-3.904
1193.404,-93.452,219.112
1350.784,-229.116,457.256
1315.16,-257.176,551.196
1288.808,-179.096,509.228
1264.896,-94.672,421.876
1195.112,-54.656,321.348
1262.7,-27.572,293.044
1251.232,-40.748,339.16
1211.948,-12.2,310.124
1158.756,41.48,265.472
1119.96,85.888,217.892
937.692,127.856,246.928
932.568,153.232,279.38
1059.204,116.876,218.136
1053.104,123.708,176.9
1025.044,120.292,203.252
966.728,120.536,211.792
969.412,127.124,205.448
1035.78,138.348,182.512
1077.26,134.932,193.248
1067.012,136.64,217.892
1070.672,137.616,263.764
1015.04,166.408,329.888
1049.2,192.272,407.236
1083.848,194.712,427.0
1091.9,215.94,438.468
1047.492,233.996,491.416
984.052,226.432,580.964
954.284,227.408,600.728
942.572,244.488,595.848
946.476,254.492,584.38
884.988,252.052,592.188
800.32,243.512,619.76
809.836,222.04,597.312
839.116,218.136,527.528
847.9,197.884,510.692
799.588,184.952,531.432
732.244,168.36,534.848
773.724,133.468,495.076
747.86,102.968,414.8
654.164,74.664,432.612
619.272,48.068,481.9
608.78,7.564,475.068
629.52,-27.572,384.056
703.208,-22.204,274.744
663.192,-8.784,241.804
651.236,-23.424,202.764
604.144,-61.244,215.696
702.476,-62.708,159.82
742.736,25.62,104.432
701.988,-20.496,153.232
801.54,-80.764,51.728
960.628,-113.948,-72.712
1067.5,-80.52,-133.224
799.1,-53.436,24.156
821.06,-83.448,-3.172
983.076,-118.096,-163.48
1092.876,-113.46,-309.636
1102.392,-74.42,-385.276
1067.5,-92.232,-368.196
1162.66,-153.964,-386.008
1285.148,-163.968,-469.456
1393.728,-139.324,-550.708
1392.264,-118.096,-533.872
1390.556,-150.792,-501.176
1420.324,-221.064,-475.312
1375.916,-283.284,-425.536
1378.844,-241.072,-377.712
1364.448,-221.796,-356.728
1370.548,-314.76,-284.504
1367.62,-399.184,-153.72
1307.108,-441.396,-45.872
1280.756,-378.2,-74.908
1167.54,-390.644,-102.236
1199.26,-416.508,-101.748
1147.776,-412.604,-21.228
1039.196,-353.8,67.344
1075.552,-392.352,146.888
992.104,-457.256,291.58
901.336,-505.812,390.644
721.02,-497.516,449.936
544.12,-436.76,495.32
616.588,-379.176,427.488
606.584,-360.876,442.86
600.24,-354.776,440.664
531.188,-368.196,457.256
436.272,-368.684,474.336
545.34,-419.924,538.264
665.388,-485.316,656.848
555.588,-526.064,802.76
433.588,-543.144,956.968
484.828,-573.888,1043.1
740.54,-531.676,972.096
1032.364,-535.58,925.004
984.784,-585.356,1037.0
1055.3,-678.564,1111.664
1157.536,-709.552,1109.468
1102.392,-726.876,1069.696
1377.624,-730.048,913.048
1509.628,-724.192,815.448
1430.084,-756.4,815.448
1373.72,-860.344,839.116
1279.292,-961.848,871.324
1273.924,-1004.792,754.692
1545.008,-884.988,290.36
1740.452,-754.204,-254.98
1518.168,-710.284,-256.2
1257.82,-768.112,17.324
1308.328,-779.824,-72.224
1169.98,-785.924,-91.988
1100.44,-659.044,-221.064
1035.048,-467.748,-388.448
1158.756,-298.9,-508.74
1317.6,-171.532,-559.492
1169.492,-190.564,-383.08
1152.168,-247.416,-297.192
1051.396,-314.76,-164.7
872.788,-347.7,-50.996
716.384,-306.708,-21.716
545.828,-254.492,-59.292
519.964,-213.256,-69.784
540.46,-214.964,-3.172
649.04,-204.96,-0.732
727.608,-202.032,45.872
710.772,-194.712,144.936
625.616,-135.176,150.06
738.344,-90.524,111.996
743.468,-121.268,231.8
832.04,-142.252,297.68
847.412,-145.18,372.344
888.16,-163.724,395.28
994.788,-157.38,349.408
940.864,-147.62,374.784
922.808,-155.672,389.912
948.672,-175.924,396.988
962.336,-207.888,436.516
1025.532,-200.812,413.824
991.86,-198.372,414.8
944.524,-191.784,426.024
900.116,-178.364,428.22
992.836,-175.68,389.18
973.072,-189.344,385.764
1050.908,-188.856,304.512
1028.46,-179.584,376.004
1003.572,-180.56,421.388
1157.048,-222.04,373.808
1478.884,-330.62,448.228
1775.344,-520.696,598.532
1922.476,-731.268,732.732
1455.948,-792.024,1025.288
922.808,-532.652,697.108
636.108,-24.644,-52.46
14.152,449.204,-187.148
-724.436,966.728,40.748
89.06,998.692,-302.56
364.292,908.9,-380.884
251.808,790.316,-124.196
408.456,685.152,22.692
445.056,697.596,56.12
410.408,780.312,-11.712
334.28,857.416,-70.516
304.268,882.304,-91.988
319.884,862.54,-99.308
401.868,868.152,-157.868
417.728,847.412,-103.7
516.548,880.596,-154.208
520.208,933.544,-166.164
492.148,973.072,-137.86
435.296,970.632,-138.104
423.34,935.252,-111.752
498.248,891.332,-83.692
734.928,970.876,-223.504
716.628,1072.38,-159.82
645.38,1052.616,-48.312
576.816,1027.728,-47.336
544.852,1044.32,-161.284
469.944,1030.412,-191.54
485.56,1012.844,-249.612
462.868,1021.384,-307.196
426.268,1054.568,-358.192
391.864,1033.584,-340.38
347.456,1008.94,-326.96
361.852,1023.336,-375.76
431.148,1004.06,-399.916
433.1,965.752,-270.84
483.12,943.548,-193.004
477.02,944.28,-164.944
454.084,923.54,-127.368
486.536,917.928,-127.124
486.292,929.884,-132.248
410.896,914.756,-43.676
377.224,893.04,46.848
401.624,910.364,6.832
393.084,936.716,-51.24
455.06,941.108,-42.944
387.472,915.976,41.724
334.768,917.928,46.848
398.94,904.508,-13.664
406.26,893.04,-2.196
416.996,875.96,20.252
463.6,899.628,-24.888
417.728,907.924,47.58
373.808,920.612,98.576
321.836,955.992,79.788
291.58,955.26,56.852
341.844,971.364,-27.572
264.008,967.46,15.86
247.172,964.288,36.112
225.944,965.996,57.096
198.616,978.928,42.456
183.976,956.968,49.776
207.156,906.948,91.988
191.784,880.352,144.204
134.2,856.44,217.404
218.136,876.692,142.252
121.024,901.58,139.812
59.78,917.928,120.292
28.792,923.54,102.724
30.988,928.908,104.676
61.488,922.564,58.56
23.912,919.88,62.464
-1.952,924.76,82.472
-15.128,898.408,123.708
15.86,863.516,146.644
6.588,863.028,142.252
-30.256,866.2,141.276
-30.988,878.644,111.996
-39.528,864.004,114.192
-32.696,854.488,117.608
-49.044,846.436,141.276
-51.972,849.12,179.096
-3.416,873.276,148.84
11.224,904.752,85.4
-5.368,928.42,57.34
7.076,959.164,4.148
-20.252,978.196,-1.952
-27.816,971.12,18.056
-53.436,954.528,48.556
-46.604,948.916,87.84
-73.688,935.74,111.264
-99.552,938.668,118.34
-78.568,980.88,103.944
-68.076,992.836,54.412
-19.276,1016.016,-25.132
-20.74,1029.924,-58.072
-39.04,1011.868,-39.284
-26.352,991.86,-30.5
-35.624,980.148,-8.784
-32.696,964.776,-4.392
-35.38,973.804,-11.712
-5.856,992.836,-23.668
-9.028,1030.412,-50.508
-41.236,1034.072,-40.504
-67.588,1026.996,-16.836
-77.104,1026.508,12.2
-25.376,1021.384,-5.124
-31.476,1042.124,-40.016
-70.516,1045.052,-33.184
-74.664,1036.512,-18.544
-106.872,1024.556,10.248
-101.016,1008.452,11.712
-87.108,1007.964,-6.832
-67.832,1011.136,-49.044
-146.888,1059.448,-98.82
-191.54,1059.448,-83.448
-175.68,1008.208,-24.888
-131.76,959.408,26.596
-56.12,948.672,-12.444
-117.12,931.836,17.324
-225.944,936.716,63.196
-339.16,934.764,-26.108
-195.2,852.048,-129.808
-240.096,743.956,-141.52
-488.732,509.716,144.448
-110.776,181.536,372.588
392.108,-20.496,457.988
818.62,-108.58,279.868
1210.484,-177.388,192.76
1662.86,8.54,-72.468
1483.52,124.44,-202.764
1462.78,25.376,109.556
1565.504,-97.6,233.264
1534.028,-143.472,373.808
1354.932,-114.68,449.936
1304.18,-33.184,409.432
1234.152,32.208,319.64
1165.344,86.132,274.988
1042.124,93.208,354.776
995.764,144.448,367.952
957.944,188.856,323.3
872.788,271.328,299.144
874.984,325.74,312.564
843.508,326.96,365.512
835.7,337.94,434.076
926.956,355.752,506.544
985.516,350.628,548.268
986.492,343.064,650.748
921.344,336.232,708.088
808.86,318.42,736.636
842.776,299.632,733.708
732.0,240.34,708.088
579.5,221.796,797.636
554.612,130.54,852.536
617.076,86.62,736.636
615.124,51.972,601.948
463.844,41.236,541.68
501.664,16.836,507.032
553.636,-50.508,457.988
625.128,-88.328,294.02
666.12,-112.24,108.824
767.136,-112.484,-40.992
572.668,-96.868,80.52
488.244,-211.548,183.0
675.636,-272.304,1.952
1009.428,-267.18,-238.632
1179.496,-208.376,-410.164
1004.304,-146.4,-388.204
956.48,-147.376,-395.28
938.912,-191.052,-387.96
1148.264,-265.472,-425.048
1301.74,-216.428,-629.764
1223.904,-219.844,-622.444
1350.54,-257.176,-652.456
1569.164,-262.3,-832.04
1689.456,-270.596,-1033.096
1731.668,-262.788,-1021.628
1564.772,-319.396,-800.32
1416.176,-366.488,-526.552
1315.892,-430.172,-306.22
1240.984,-435.296,-246.928
1225.612,-430.416,-194.224
1036.024,-439.444,-43.188
908.656,-436.76,50.752
835.7,-483.852,146.888
872.544,-510.204,225.7
908.656,-521.428,345.016
789.828,-516.548,437.736
598.776,-471.896,421.388
586.332,-463.356,449.204
626.592,-479.704,537.288
765.184,-474.336,584.624
641.964,-498.248,646.844
236.924,-516.548,753.472
424.072,-563.396,847.9
559.492,-615.612,908.9
752.496,-697.108,944.036
816.912,-747.372,1093.852
735.904,-767.624,1132.404
680.516,-841.8,1168.272
1082.384,-947.452,1154.852
1379.088,-1000.888,1022.604
1400.316,-990.396,1040.416
1361.276,-992.104,1075.308
1439.356,-965.02,818.864
1572.58,-997.96,643.916
1521.584,-1078.48,642.94
1532.808,-993.08,433.832
1562.576,-855.22,35.868
1783.884,-743.712,-357.46
1669.936,-730.536,-421.144
1434.232,-735.66,-226.92
1346.148,-672.464,-227.652
1566.236,-550.708,-470.432
1542.568,-458.476,-574.132
1184.62,-370.636,-522.892
1099.464,-331.596,-436.76
991.372,-326.716,-397.964
765.184,-350.384,-222.772
739.076,-370.636,-119.072
751.032,-386.252,-15.372
848.144,-418.46,50.508
750.056,-388.692,78.812
854.244,-357.948,39.528
896.7,-420.168,202.276
1175.592,-549.244,441.64
1502.552,-747.86,678.808
1720.688,-1018.212,723.704
1622.112,-1124.108,428.464
1080.92,-914.756,369.416
101.748,-492.88,598.532
-838.872,173.728,354.288
-697.108,937.692,-490.44
4.88,1169.98,-883.768
-322.324,993.568,-416.996
-104.92,716.14,-121.024
119.56,626.104,0.488
255.956,700.768,-71.004
210.084,789.584,-88.328
196.664,873.52,-165.676
212.036,900.604,-185.928
285.236,821.548,-115.9
377.224,765.184,-38.308
324.276,764.452,4.636
319.884,850.828,-118.584
415.288,951.356,-348.188
297.436,994.3,-281.088
294.752,963.556,-248.392
470.676,941.108,-320.616
460.428,857.416,-151.036
402.112,857.66,-5.124
423.584,858.88,-64.416
515.816,952.576,-183.488
470.676,976.488,-120.048
451.644,1026.264,-110.288
433.832,950.38,-46.604
472.384,893.528,-48.068
505.812,902.312,-88.328
451.644,903.044,-77.348
442.372,904.996,-73.932
441.64,898.164,-91.012
442.128,861.076,-92.964
416.02,848.144,-79.056
426.512,859.124,-118.34
407.236,877.912,-128.344
401.136,887.184,-119.56
407.48,885.964,-95.892
427.488,894.748,-123.708
448.228,908.656,-168.116
393.084,912.316,-128.588
371.612,895.48,-96.868
414.556,882.304,-104.188
446.032,895.236,-102.724
439.932,891.82,-82.716
460.184,919.88,-124.196
386.74,917.196,-77.348
410.164,907.192,-108.336
416.508,913.292,-111.508
454.328,919.392,-127.368
466.772,922.564,-125.904
449.204,917.928,-102.48
451.888,925.248,-152.256
416.264,942.572,-194.224
379.42,934.764,-190.076
386.252,948.916,-230.336
373.076,966.972,-249.368
427.488,968.68,-270.352
440.42,976.732,-261.812
405.04,987.468,-239.608
410.896,1008.94,-276.452
388.692,1003.328,-256.932
383.812,985.028,-243.268
410.164,970.876,-233.508
431.88,948.428,-192.272
439.688,941.596,-166.652
459.696,957.7,-197.64
445.544,990.64,-203.984
416.02,992.592,-187.636
434.32,991.86,-214.232
435.784,1004.06,-221.308
428.22,986.248,-206.18
441.396,985.516,-202.032
434.32,986.736,-198.128
416.264,989.664,-165.676
424.072,1022.116,-157.868
459.208,1024.8,-177.144
460.916,1020.652,-177.876
429.196,1009.916,-126.88
426.512,1010.16,-129.076
431.392,1027.24,-201.056
437.98,997.472,-149.084
439.2,953.552,-30.012
396.744,959.408,6.1
403.576,982.588,-42.212
386.008,986.736,-50.508
360.388,985.516,-37.088
330.376,992.592,-61.732
322.568,1023.58,-111.264
323.544,1026.752,-107.604
277.184,973.072,-11.224
235.704,965.264,30.012
285.724,981.612,-76.616
273.768,987.712,-124.196
283.772,965.752,-98.332
200.568,947.94,1.952
142.252,941.596,55.632
140.3,942.572,5.856
141.52,915.976,-1.464
127.612,884.012,27.572
75.396,874.496,79.3
37.332,876.936,96.868
37.088,858.148,96.624
63.196,836.188,100.772
57.34,824.72,119.804
8.784,807.884,187.88
-4.392,820.816,224.724
-18.544,815.692,230.336
19.276,821.304,187.636
37.576,818.864,151.036
-41.968,823.012,236.436
19.276,825.94,252.052
23.18,850.828,212.524
-27.572,869.128,210.572
35.624,870.592,158.844
0.488,891.088,158.112
-34.16,908.9,156.892
-20.496,897.188,166.896
-44.896,893.284,203.74
-39.528,919.392,176.656
-47.58,927.932,142.74
-62.464,939.888,102.968
-79.056,945.744,116.388
-90.768,936.716,161.772
-102.968,911.828,193.98
-73.2,905.484,188.856
-78.568,925.736,172.752
-82.228,967.46,141.276
-77.348,1000.888,92.232
-60.756,1020.652,58.072
-75.396,1024.556,77.592
-71.736,1010.892,107.116
-72.468,1013.576,141.032
-79.056,1010.16,152.988
-45.872,1016.504,105.896
-86.864,1022.848,100.04
-107.116,1022.36,102.968
-136.152,1011.868,144.936
-178.852,1026.996,156.892
-185.684,1054.08,117.364
-149.816,1051.64,49.044
-257.664,1052.128,21.96
-302.316,1070.916,-96.38
-489.22,1033.34,-96.624
-750.3,911.34,7.32
-698.816,693.448,108.092
-579.5,454.572,266.204
-294.508,181.292,501.42
129.32,-105.896,716.14
593.896,-358.192,511.912
1320.284,-90.28,-222.284
1142.164,148.352,-237.656
1113.86,90.036,123.952
1209.02,89.06,96.38
1481.568,50.508,42.456
1602.104,-65.148,179.584
1419.836,-110.044,416.02
1404.22,-44.652,417.24
1405.196,14.64,376.98
1275.632,81.496,398.452
1215.12,111.996,443.348
1185.108,137.86,488.0
1125.816,183.732,477.508
1093.608,241.316,493.856
1109.712,272.792,549.244
1115.812,281.088,647.82
1103.612,269.132,736.392
1080.432,218.38,866.444
971.12,178.12,926.224
1041.148,95.16,901.092
971.852,82.96,803.248
838.872,102.48,774.7
622.932,104.92,758.108
535.336,78.568,727.364
520.208,52.948,619.272
407.968,33.184,548.024
323.788,-39.772,560.468
376.004,-103.7,380.152
395.768,-150.304,183.488
552.172,-164.456,-23.424
630.008,-94.428,-275.232
448.472,-80.52,-313.784
463.844,-111.996,-375.028
734.684,-95.892,-695.4
955.504,-25.132,-971.364
927.444,-3.416,-971.608
961.848,-10.736,-999.912
1070.428,-30.744,-1078.236
1287.344,-62.464,-1159.488
1364.936,-35.38,-1268.068
1366.4,-57.096,-1233.664
1488.4,-68.076,-1242.692
1455.948,-110.776,-1173.152
1422.764,-204.96,-1040.172
1304.668,-309.636,-795.928
1154.608,-350.628,-628.056
1009.672,-394.792,-405.528
784.704,-458.476,-124.44
803.736,-517.768,-87.352
796.66,-569.496,21.228
566.08,-623.176,352.824
569.496,-619.272,381.372
509.716,-694.424,478.728
642.452,-692.716,545.096
455.304,-768.6,707.6
462.624,-775.432,913.048
587.552,-798.612,999.668
694.424,-789.34,1041.392
811.544,-765.672,1101.904
956.48,-797.636,1086.532
1187.548,-716.872,904.508
1167.296,-733.708,828.38
1438.624,-772.992,792.756
1368.352,-854.0,922.808
1477.176,-859.368,1005.28
1612.108,-838.628,867.664
1625.284,-773.968,534.116
1607.96,-737.612,414.068
1647.732,-752.984,396.988
1785.836,-696.132,132.736
1799.256,-616.588,-245.464
1708.976,-519.964,-483.852
1507.432,-510.936,-471.408
1542.812,-512.4,-479.46
1657.248,-500.932,-580.964
1385.188,-583.16,-383.324
1203.408,-564.86,-303.048
908.656,-492.148,-300.852
1054.324,-396.988,-337.452
810.324,-335.012,-274.744
751.032,-291.092,-236.436
935.252,-264.252,-243.268
1051.64,-333.06,-132.492
1186.816,-412.116,80.52
1075.796,-423.828,179.34
1036.268,-363.804,135.176
1387.14,-366.488,-86.132
1593.564,-453.596,1.952
1463.756,-545.096,281.82
1103.124,-500.444,547.048
370.392,-190.076,571.204
157.38,363.316,4.88
699.06,758.352,-467.504
196.176,813.74,-245.464
155.428,857.66,-252.784
66.856,863.028,-243.268
231.312,828.38,-280.356
141.764,789.584,-131.76
152.256,795.684,-81.984
137.372,787.144,-47.336
183.0,807.152,-77.592
193.248,812.764,-47.092
238.144,802.516,36.6
321.104,843.996,7.808
321.348,893.528,-32.696
327.448,911.34,-68.076
328.912,947.208,-61.244
313.54,922.564,-92.964
365.024,961.116,-181.536
347.456,978.684,-164.212
370.88,943.548,-98.332
412.116,877.424,0.488
469.7,888.404,-45.384
418.216,923.296,-52.46
425.536,925.248,-83.692
397.72,921.344,-17.324
392.108,889.136,-15.372
393.816,904.264,-73.2
391.132,959.896,-120.048
358.436,938.912,-138.348
368.44,950.624,-125.416
409.188,946.232,-114.924
425.048,960.14,-129.808
407.724,972.096,-106.872
398.208,964.532,-97.844
365.024,963.312,-73.932
369.172,962.58,-100.284
363.316,964.044,-114.924
355.02,983.564,-131.028
354.532,1008.94,-155.428
353.8,1026.02,-191.052
303.78,1022.848,-173.484
368.196,1011.38,-245.22
378.2,1074.576,-299.632
306.464,1061.888,-227.652
368.928,1025.776,-214.476
426.024,1044.076,-181.78
404.552,1042.856,-141.764
435.052,1039.44,-218.868
386.496,1090.68,-260.836
304.268,1089.704,-209.352
412.604,1085.8,-270.352
452.132,1111.176,-247.904
346.724,1058.716,-88.572
342.576,1025.044,-60.756
320.372,1020.408,-67.588
315.004,1037.976,-115.168
412.848,1077.26,-259.372
364.78,1058.472,-188.856
352.824,998.936,-85.644
322.324,976.244,5.124
339.892,1000.644,18.3
340.868,1007.232,-6.344
351.848,1001.864,-45.14
286.944,990.64,55.388
262.3,947.452,142.252
274.744,938.424,138.592
284.992,948.184,88.816
275.232,994.056,25.62
168.604,1008.452,63.928
130.784,961.604,121.268
145.912,908.412,130.052
119.804,870.104,127.124
127.368,868.396,83.692
55.632,876.936,92.476
29.036,865.956,94.916
33.428,853.024,92.72
4.392,860.832,110.288
6.588,843.752,90.768
-37.088,841.312,102.236
-73.688,835.212,127.368
-63.196,815.448,129.808
-72.468,825.94,133.712
-61.0,851.804,75.64
-84.18,864.736,76.128
-89.792,843.996,99.552
-104.92,835.7,145.912
-95.16,809.104,179.096
-61.732,809.836,186.904
-38.552,847.656,153.72
-108.824,889.136,162.504
-167.628,901.336,162.016
-228.384,899.14,157.38
-54.9,892.796,7.564
53.436,918.66,-64.172
-141.764,921.1,67.344
-254.004,915.732,160.064
-151.524,912.316,126.392
-16.348,899.384,54.412
3.904,931.836,38.796
-93.452,946.232,93.452
-143.228,941.84,155.428
-97.356,957.212,153.72
-38.308,959.164,113.216
101.26,977.952,9.76
53.436,1002.596,39.284
-50.02,1008.208,101.992
-78.08,1012.356,94.184
-145.18,1020.652,107.36
-46.116,1023.336,26.596
-31.964,1045.296,-68.564
7.32,1030.412,-114.436
-0.976,1000.644,-79.544
-64.416,980.148,21.472
-141.276,961.848,51.24
-148.108,998.448,27.572
-187.636,986.004,-20.984
-207.888,927.932,-78.812
-355.02,815.936,-53.924
-177.632,601.948,-27.084
173.728,406.748,-8.784
306.952,324.764,121.268
273.28,250.588,201.544
865.956,200.324,129.564
911.34,208.376,-106.14
1059.692,362.34,-346.724
1079.7,310.124,-145.424
1113.616,164.456,331.84
1342.976,33.916,417.24
1381.04,5.368,487.512
1203.408,14.64,651.724
1264.896,6.832,812.764
1303.692,5.856,877.912
1274.9,35.136,924.028
1182.18,100.04,1019.188
1077.26,116.144,972.34
1087.264,118.828,928.908
1088.972,140.788,740.296
848.632,87.84,835.7
893.284,75.152,787.388
831.796,58.804,671.0
805.444,54.9,646.844
716.384,67.1,547.78
623.664,95.648,478.728
637.328,71.736,434.32
656.604,67.588,449.204
629.276,29.768,437.492
689.3,45.14,239.852
617.808,16.348,220.088
455.304,-25.132,202.032
473.604,-33.184,156.648
556.564,-76.616,55.632
531.676,-40.016,-153.964
640.988,-38.064,-238.144
633.912,-71.736,-237.9
878.156,-54.9,-588.772
1052.128,-25.376,-854.488
1099.464,16.348,-961.604
1111.42,-6.1,-945.012
1255.38,-50.996,-956.48
1339.804,-71.492,-1062.376
1369.816,-91.988,-988.688
1393.484,-73.444,-976.732
1384.456,-98.088,-874.252
1367.376,-173.728,-732.0
1361.764,-253.516,-666.852
1385.92,-320.128,-626.348
1266.116,-333.548,-510.692
1182.18,-312.564,-366.0
1008.208,-329.156,-279.136
1081.896,-399.916,-175.924
967.46,-462.136,-41.724
896.944,-495.32,101.26
753.716,-474.58,175.436
652.456,-431.148,151.036
538.02,-454.328,179.096
449.692,-478.24,179.096
449.936,-515.084,307.44
636.84,-625.86,494.588
373.076,-679.296,753.96
450.18,-736.636,973.804
542.9,-751.764,976.488
445.056,-818.62,1044.564
905.484,-812.52,955.992
854.0,-778.116,1001.62
1045.296,-771.284,1037.976
1209.752,-823.744,990.64
1436.184,-779.58,752.74
1587.464,-701.988,624.884
1591.368,-695.4,647.82
1574.532,-721.264,661.972
1673.108,-721.508,564.372
1694.336,-754.204,472.872
1708.732,-752.74,359.168
1651.148,-746.884,259.616
1348.1,-796.416,360.388
1378.112,-827.404,277.184
1388.604,-719.8,-64.904
1554.524,-540.46,-516.304
1332.728,-448.96,-566.812
1173.64,-455.548,-484.584
1043.344,-443.592,-437.98
924.272,-428.22,-426.512
817.4,-358.924,-433.344
827.16,-300.364,-467.504
866.688,-282.796,-489.708
755.912,-332.572,-259.616
715.164,-375.76,-54.168
683.2,-376.736,24.644
750.544,-368.684,13.42
733.464,-364.292,100.04
815.692,-378.2,94.916
1014.064,-439.932,189.1
1006.5,-462.624,356.24
1065.548,-434.32,327.448
1241.228,-363.316,227.164
1455.46,-438.712,287.676
1510.116,-515.328,339.16
1552.816,-540.216,282.064
1583.56,-565.836,300.852
1526.708,-509.472,279.136
1045.784,-320.128,416.02
875.96,-77.592,301.584
466.04,149.084,343.064
30.744,413.092,300.364
260.348,685.152,-61.732
158.6,763.72,-168.116
58.56,714.92,-107.36
302.56,712.236,-227.652
184.22,708.82,-48.068
182.268,745.42,-44.896
185.684,761.524,-101.016
245.464,835.212,-252.784
194.224,857.172,-197.64
131.272,828.868,-78.324
379.664,853.756,-103.944
336.72,843.02,60.512
320.86,849.364,65.636
484.34,905.484,-171.044
374.052,938.18,-156.16
447.008,971.12,-260.836
528.016,929.64,-219.844
396.744,902.556,-14.396
402.6,871.08,-23.912
430.416,915.976,-126.392
308.416,869.372,-50.508
283.284,825.452,-60.024
485.072,843.996,-267.668
416.02,890.6,-168.604
349.896,886.208,-57.096
477.752,920.368,-158.844
519.232,921.344,-179.828
466.04,906.216,-116.632
505.812,910.364,-153.72
416.264,894.504,-99.308
510.204,905.24,-184.952
449.692,897.676,-137.372
370.88,874.74,-72.468
389.18,861.076,-81.008
467.26,885.476,-152.744
476.288,884.012,-165.188
499.712,919.392,-176.656
481.9,927.444,-157.624
468.968,905.728,-137.128
475.556,886.94,-114.68
498.248,894.992,-144.448
495.32,927.932,-165.188
490.196,943.792,-186.172
466.528,932.324,-178.852
446.276,918.416,-160.064
421.388,904.996,-139.324
455.548,919.392,-193.248
449.448,938.18,-198.372
465.552,952.088,-202.52
434.564,925.736,-142.74
446.52,880.352,-110.288
445.544,849.12,-79.544
452.132,824.964,-62.708
490.928,838.628,-123.464
484.828,898.408,-167.384
421.632,923.54,-156.892
411.384,964.776,-188.368
410.652,984.296,-217.404
426.512,998.692,-240.584
430.416,1029.924,-251.076
428.22,1088.728,-274.256
448.472,1140.456,-298.9
453.352,1132.648,-248.88
494.832,1083.604,-197.64
507.032,1066.036,-170.312
472.14,1065.792,-129.564
470.676,1098.0,-145.912
441.884,1113.128,-173.24
415.044,1088.972,-169.58
459.696,1053.348,-178.12
416.02,1021.384,-111.996
408.212,1043.344,-116.388
325.984,1058.228,-116.632
279.136,1046.516,-113.46
325.252,1035.536,-156.648
429.196,999.668,-204.228
425.78,972.828,-132.492
370.88,971.852,-41.724
259.128,966.484,39.04
242.292,940.376,73.932
263.764,904.02,61.488
324.276,898.164,-34.16
328.912,900.116,-68.32
233.02,935.74,-44.896
188.368,946.72,-45.14
178.608,950.624,-63.928
199.836,915.732,-19.52
181.78,877.668,39.04
108.336,902.068,66.368
128.344,961.116,46.604
135.908,958.432,31.964
120.292,898.652,56.852
189.588,867.42,22.692
206.668,822.036,47.58
109.8,726.876,233.996
143.228,663.924,333.548
126.88,663.436,312.32
126.88,712.724,223.748
123.22,741.516,181.292
98.332,747.616,180.56
62.708,733.22,208.864
104.92,743.224,144.204
42.456,805.688,78.812
60.512,838.384,26.108
73.2,866.2,-9.028
39.284,887.916,2.684
38.064,898.896,20.496
74.42,900.116,23.18
59.536,932.568,21.716
86.376,962.092,9.028
68.32,969.656,26.352
66.368,990.152,20.74
62.708,995.032,11.712
105.652,979.66,17.568
64.66,984.784,70.76
64.66,1002.84,89.792
79.3,1014.552,85.4
88.084,1017.968,76.616
100.04,1007.72,71.248
140.544,1001.132,64.66
154.696,1002.596,69.052
127.612,1006.256,80.276
127.856,999.424,89.792
128.832,982.1,106.628
96.38,972.096,134.932
136.64,965.02,111.752
171.776,974.78,80.276
142.74,999.668,75.884
91.5,1007.476,80.52
80.032,1010.16,81.984
72.224,1010.648,80.52
58.56,1008.452,93.696
-10.98,1034.072,84.668
-16.104,1077.748,-2.44
-96.868,1123.376,-90.28
-136.884,1095.804,-41.48
-252.784,1039.44,48.312
-375.272,988.2,81.496
-207.888,848.632,64.416
-167.872,712.48,99.308
-249.856,486.292,208.376
284.992,196.42,284.748
1163.392,100.284,74.908
1255.38,301.828,-77.592
1627.724,367.708,-206.424
1252.208,396.012,149.084
1194.136,370.392,530.7
1416.908,374.052,664.412
1470.344,310.368,783.728
1512.312,282.552,894.504
1124.84,278.648,937.448
917.928,240.096,1082.14
790.072,152.744,1103.368
661.728,24.4,1100.928
513.864,-64.416,1020.896
602.436,-64.66,714.92
416.996,-18.3,444.08
317.444,-14.396,288.652
243.268,-61.488,125.66
299.144,-136.152,25.376
522.892,-106.628,-216.916
434.808,-88.084,-415.044
365.512,-109.556,-446.764
483.12,-184.708,-471.652
726.388,-213.5,-565.592
776.408,-291.824,-528.992
882.548,-272.548,-692.228
942.572,-215.94,-841.312
980.636,-220.088,-789.584
1103.368,-298.412,-729.072
1206.092,-371.612,-704.184
1352.004,-394.06,-689.788
1618.452,-377.956,-920.612
1840.492,-398.208,-996.74
1821.46,-481.168,-882.548
1717.516,-579.744,-748.348
1542.568,-620.248,-466.04
1269.288,-589.504,-266.204
1092.388,-549.976,-131.028
922.32,-556.32,-87.352
745.908,-595.116,66.124
728.584,-585.112,284.748
622.444,-512.156,409.432
300.608,-456.036,400.404
184.22,-416.02,415.532
485.316,-489.22,381.616
430.416,-533.628,484.096
273.524,-519.232,618.296
-87.84,-558.272,716.872
-104.92,-678.564,950.868
324.764,-880.352,1240.496
426.756,-1022.604,1385.188
488.732,-1085.312,1396.168
708.088,-1136.552,1291.004
967.948,-1196.088,1219.756
1060.668,-1258.308,1273.924
1250.012,-1250.256,1136.552
1256.844,-1273.68,1053.836
1335.9,-1235.616,870.836
1385.676,-1249.28,783.972
1330.288,-1263.188,744.932
1434.476,-1179.74,402.6
1551.352,-1158.512,90.524
1490.596,-1174.372,124.196
1392.264,-1242.936,219.6
1348.588,-1192.428,25.376
1557.208,-1019.92,-277.916
1674.328,-844.728,-524.6
1744.112,-648.064,-585.112
1520.12,-592.432,-372.832
1372.744,-539.24,-356.972
1186.328,-544.12,-280.112
1111.664,-546.316,-178.12
1021.384,-550.952,-227.408
1197.796,-496.296,-348.432
1120.692,-558.028,-85.644
1205.116,-693.692,152.012
1287.588,-825.94,374.54
1686.284,-952.82,138.104
1327.116,-1008.208,191.784
962.58,-887.184,132.004
783.972,-813.984,46.36
361.364,-488.976,165.188
-197.396,-249.612,400.648
-473.848,179.584,94.672
-266.936,599.02,-327.692
-456.768,669.048,-109.8
-471.164,691.984,-133.468
-142.496,675.88,-180.316
-117.12,682.712,-1.22
57.096,753.472,6.1
46.116,790.072,107.848
136.152,869.86,10.98
159.576,975.024,-72.224
248.636,974.536,-71.004
306.708,950.136,25.376
371.856,911.096,51.24
409.432,947.208,13.664
289.872,972.34,29.768
268.888,1014.796,-79.056
251.076,1021.628,-136.64
167.14,980.148,-64.904
128.588,912.072,-6.588
316.956,871.812,-49.044
322.568,842.044,39.04
258.396,870.348,48.068
343.064,943.792,-96.624
427.976,1029.436,-195.2
316.224,1021.872,-71.736
389.424,1063.596,-64.66
367.464,972.096,67.344
336.232,927.932,119.804
431.392,935.252,0.244
334.768,922.808,36.6
285.48,901.336,67.1
359.9,899.628,-10.004
386.496,905.972,-42.944
312.808,909.144,12.932
384.3,942.572,-56.12
383.324,936.716,-32.94
365.512,940.864,-8.052
384.544,946.232,-17.812
397.964,940.864,-7.32
392.84,933.056,17.324
431.636,959.164,-39.528
381.86,966.24,-23.668
385.764,963.8,-45.14
366.0,968.68,-26.352
397.964,965.508,-52.46
389.912,983.808,-38.796
409.432,984.296,-36.6
399.672,995.032,-64.904
426.512,1051.152,-206.18
398.452,1123.132,-312.808
362.828,1150.216,-330.62
404.064,1130.696,-308.66
420.412,1098.244,-240.584
423.828,1092.144,-198.86
444.812,1094.34,-226.92
431.636,1091.168,-208.376
408.7,1102.392,-179.584
432.612,1091.656,-190.808
440.908,1084.336,-207.888
422.608,1082.628,-224.236
395.28,1050.176,-161.528
394.304,1005.768,-76.616
379.664,1003.084,-59.78
386.496,986.248,-91.988
399.184,932.324,-69.54
341.112,921.588,-49.288
317.444,973.56,-118.584
392.84,1019.676,-230.824
372.588,987.712,-109.312
311.832,932.08,57.828
348.432,931.592,64.904
351.116,943.792,62.22
377.468,984.296,-16.104
435.784,1021.872,-146.644
441.64,1029.192,-172.996
372.344,976.488,4.148
356.728,969.656,72.712
343.552,972.34,93.208
226.92,998.448,92.72
239.852,1000.4,-7.32
279.624,965.264,-73.932
277.916,929.152,-46.116
260.592,880.108,50.508
294.752,861.808,98.82
314.76,844.972,125.172
406.016,805.932,135.664
345.992,786.412,269.376
287.432,780.312,345.748
257.664,812.764,289.628
158.112,879.864,216.428
176.656,844.972,154.94
166.408,743.956,261.08
174.216,694.912,327.448
102.48,702.476,355.752
61.0,733.708,323.544
79.788,769.576,247.416
30.744,769.576,191.296
5.124,754.204,239.12
-0.488,701.988,382.348
94.916,746.396,349.164
113.216,825.208,238.144
114.192,873.032,153.232
42.212,908.412,136.64
25.62,934.276,152.988
39.772,945.256,174.46
61.732,970.144,143.472
69.296,969.168,140.788
68.32,963.312,152.012
34.404,930.372,191.296
27.328,960.384,208.864
39.284,993.812,173.972
30.988,1011.868,142.984
34.648,999.912,147.132
79.544,984.296,132.736
103.7,990.884,105.164
114.68,993.568,137.86
118.828,997.472,153.232
98.332,991.372,146.644
107.848,992.348,116.876
102.968,991.128,144.692
97.6,964.776,168.36
106.384,969.9,168.848
100.772,983.564,157.624
98.576,998.936,125.904
115.9,1005.524,78.568
118.096,1006.256,57.828
96.868,985.76,90.524
73.444,976.244,129.808
81.74,970.388,123.708
48.556,966.972,116.388
45.872,961.604,119.316
16.348,970.388,127.856
13.908,1007.72,77.348
-21.716,1023.092,42.212
-36.6,1022.604,46.604
-62.464,972.34,103.212
-108.336,940.132,165.92
-19.52,914.268,152.012
92.232,937.692,25.132
118.828,970.388,-105.164
49.532,925.98,-67.344
-170.312,850.584,98.088
-74.664,763.72,168.604
69.784,731.268,94.184
-95.404,630.496,108.58
80.032,448.96,92.476
129.076,267.424,144.692
174.46,47.824,376.004
764.94,-126.148,486.048
1182.668,-202.276,299.876
1284.416,-137.86,149.816
1525.732,-3.904,-11.468
1418.128,-32.94,69.296
1415.688,-97.6,242.536
1313.696,-128.1,321.104
1374.452,-80.52,284.016
1236.836,-59.048,234.24
1310.524,-38.552,275.964
1281.976,-40.748,363.804
1359.568,9.272,376.98
1235.616,63.44,370.392
1169.98,91.744,439.932
1026.996,91.012,591.7
1132.648,95.648,608.048
1083.116,59.78,671.732
915.244,21.228,732.0
931.348,47.092,786.656
919.636,-0.488,752.008
898.896,7.564,708.82
834.48,-22.204,676.856
622.444,-53.436,704.184
450.668,-90.036,690.52
340.624,-109.068,738.588
462.38,-145.912,586.82
519.72,-162.992,312.32
509.96,-130.296,112.24
358.924,-149.084,187.636
477.996,-196.42,123.952
607.56,-165.432,-108.58
663.436,-99.064,-341.6
739.808,-75.152,-432.856
714.676,-135.176,-420.168
795.684,-181.536,-481.9
914.756,-250.1,-493.856
1106.784,-276.696,-534.36
1204.872,-305.732,-568.764
1383.724,-329.156,-597.8
1474.98,-391.132,-500.932
1628.456,-435.296,-486.048
1721.664,-447.252,-530.456
1675.304,-434.076,-433.832
1601.616,-446.764,-305.488
1433.256,-479.216,-246.928
1388.36,-509.472,-171.288
1336.388,-527.284,-137.616
1189.988,-563.884,-31.72
995.52,-574.376,88.084
771.772,-549.976,181.048
701.256,-491.66,203.496
724.436,-492.636,266.448
592.676,-533.384,454.816
491.66,-517.036,524.6
427.244,-491.416,533.872
438.956,-472.14,495.32
470.676,-472.628,474.824
339.892,-509.472,512.4
299.144,-559.736,657.336
324.276,-692.716,854.244
551.928,-741.028,823.256
583.404,-780.556,873.764
424.316,-908.9,1017.968
608.048,-1084.336,1247.328
935.984,-1195.356,1327.116
1089.704,-1263.92,1369.328
1324.92,-1290.516,1261.236
1484.008,-1217.56,941.84
1516.46,-1119.96,705.648
1464.0,-1026.264,560.956
1580.632,-965.996,345.748
1512.312,-941.596,255.224
1532.808,-902.556,151.524
1656.028,-813.74,-114.436
1609.668,-754.448,-295.728
1534.76,-759.572,-208.376
1371.768,-806.664,-12.688
1366.888,-782.996,-53.192
1120.204,-722.24,-134.932
1108.98,-662.46,-220.088
1099.464,-638.792,-232.776
1113.616,-559.736,-256.444
869.86,-520.696,-187.88
911.828,-496.54,-130.54
786.9,-506.544,-11.712
608.78,-397.72,-47.092
623.664,-313.54,-91.5
598.776,-249.368,-83.692
550.952,-236.68,3.416
565.592,-243.756,93.94
754.692,-308.904,238.144
828.136,-317.444,329.156
999.912,-276.696,243.512
1176.324,-258.64,224.968
1335.168,-279.38,270.596
1604.056,-368.928,237.412
1653.832,-529.48,393.328
1623.088,-641.232,572.668
1827.804,-593.164,348.92
1231.224,-444.08,471.896
-253.028,-114.924,923.784
-1130.94,511.668,903.776
-42.212,961.36,-173.484
-195.932,912.072,-421.144
-291.824,930.372,-425.292
-268.4,726.388,-237.168
-348.92,646.356,-28.06
-243.268,619.272,2.44
-132.98,665.388,-44.896
67.344,740.052,-203.252
173.484,964.288,-278.16
116.144,1019.188,-133.956
200.324,966.728,-97.844
417.484,963.556,-114.924
371.856,946.964,83.936
373.564,924.76,92.964
399.184,962.824,-45.872
281.332,993.812,-20.252
247.66,978.684,-59.048
272.792,935.008,-142.496
256.688,971.852,-163.968
177.876,943.06,-84.668
225.944,915.732,-118.584
242.78,926.468,-81.252
310.612,925.98,-79.056
425.292,959.896,-156.404
393.084,985.028,-47.092
373.076,969.168,19.764
387.96,974.536,-11.956
324.764,954.284,14.152
339.404,912.072,16.348
448.96,941.108,-83.448
367.708,921.588,-13.42
366.244,940.376,-57.34
335.256,990.64,-116.876
304.756,1032.12,-167.872
318.664,1041.636,-195.688
359.412,1037.732,-234.728
355.752,1014.064,-202.52
321.592,1014.308,-133.956
342.82,1042.612,-164.456
326.472,1051.64,-197.884
381.128,1043.1,-257.664
463.844,1052.616,-361.12
418.216,1067.988,-345.992
378.2,1077.26,-279.624
390.156,1086.776,-247.904
455.792,1113.86,-305.0
469.212,1092.144,-289.628
445.3,1084.336,-225.456
459.208,1081.164,-202.52
459.94,1054.08,-191.784
405.284,1032.364,-146.888
471.164,1022.116,-156.892
490.196,1016.992,-172.264
488.732,1013.332,-196.42
379.176,1010.404,-126.88
252.54,1025.044,-78.324
384.3,1024.068,-175.436
547.536,1036.512,-294.996
565.348,1029.192,-289.14
513.132,1026.264,-213.744
544.852,963.312,-100.284
620.736,873.764,27.816
670.756,819.596,130.54
589.992,810.812,182.512
400.16,833.016,220.088
380.64,854.244,124.196
387.96,847.168,23.912
394.06,822.768,-6.832
322.08,797.88,60.512
253.76,750.3,119.316
343.796,680.76,122.732
441.152,688.568,-10.98
247.172,719.556,58.072
234.484,771.04,66.856
226.676,752.008,61.976
211.792,740.784,83.204
219.6,704.672,137.616
196.42,706.868,200.08
188.124,730.292,228.872
185.928,738.832,228.14
136.884,767.624,209.84
105.408,797.636,172.264
133.956,816.912,160.308
161.284,891.82,160.308
245.464,924.76,81.008
219.112,945.744,69.784
211.792,955.26,49.776
178.12,945.5,99.064
162.504,932.568,111.508
195.444,936.472,97.844
206.18,923.784,126.636
213.744,937.204,109.312
196.664,949.648,81.74
165.676,968.436,67.1
187.88,969.9,37.088
221.064,996.252,-22.692
246.684,992.592,-29.768
208.864,986.98,10.004
206.912,996.496,-2.44
222.772,973.072,-22.936
226.92,971.852,-53.68
233.02,978.928,-69.784
229.36,979.904,-85.4
204.96,983.076,-25.864
232.044,979.416,-28.304
224.236,965.752,-25.376
205.204,959.896,-15.616
212.036,970.144,-22.936
242.292,975.024,-54.168
242.292,963.8,-40.016
242.292,956.968,-26.596
203.496,962.336,-20.984
207.4,965.02,-30.744
188.612,966.484,-41.724
95.16,980.392,-62.464
177.632,984.052,-123.22
15.86,1039.196,-157.868
-192.028,1044.076,-111.752
-46.116,910.364,1.708
-244.732,863.516,103.7
-407.724,757.864,48.556
122.976,503.86,-121.756
333.06,300.12,162.504
614.148,238.388,161.04
922.564,275.232,-62.952
984.296,209.108,55.388
887.916,187.148,179.34
1237.324,195.2,-103.456
1312.232,116.876,-141.764
1382.26,28.06,74.176
1413.004,-33.916,122.0
1369.084,-9.76,174.46
1349.564,17.568,178.608
1244.4,0.244,271.328
1353.224,18.056,294.02
1213.9,67.832,308.416
1201.456,128.832,380.64
1105.564,176.656,446.764
1055.788,179.584,537.532
1068.964,188.612,603.168
873.52,179.34,751.032
714.432,149.084,890.844
729.316,99.552,904.752
577.304,15.86,975.512
474.58,-66.124,976.732
276.208,-97.844,978.928
286.456,-88.572,839.116
402.356,-28.304,562.664
347.456,-22.448,321.592
301.34,-12.2,106.628
100.284,-106.14,149.328
273.768,-122.488,-6.344
284.26,-170.8,-149.084
516.06,-250.344,-230.336
742.98,-301.096,-429.196
922.32,-337.208,-512.4
1025.044,-380.396,-526.796
1076.528,-448.716,-527.528
1290.516,-476.288,-573.4
1363.96,-433.588,-682.224
1461.804,-423.584,-720.044
1554.036,-431.148,-770.064
1749.236,-437.004,-840.58
1716.052,-518.256,-755.668
1641.144,-601.948,-539.24
1553.792,-657.336,-458.232
1631.384,-666.364,-539.484
1642.608,-695.4,-575.84
1349.076,-718.336,-422.608
1258.552,-782.752,-233.264
896.212,-802.272,-70.76
672.952,-751.276,-6.1
418.704,-763.476,141.032
137.86,-730.78,394.548
133.956,-701.256,540.46
198.86,-669.048,541.436
267.912,-610.488,534.848
266.204,-556.32,605.852
191.296,-515.816,733.22
164.212,-544.608,857.172
320.128,-627.08,923.54
568.032,-674.416,862.784
825.208,-662.704,786.412
671.732,-739.32,902.556
900.604,-885.72,988.444
1209.264,-1008.208,1013.088
1150.948,-1138.748,1182.18
1339.56,-1183.644,1187.792
1413.004,-1161.684,952.82
1542.812,-1092.632,632.448
1722.884,-1039.684,415.532
1593.564,-1059.936,437.492
1508.408,-1080.432,423.096
1522.56,-1114.104,388.692
1253.184,-1218.78,470.676
1471.32,-1148.02,153.72
1756.068,-891.576,-497.272
1640.656,-660.508,-751.764
1331.02,-602.68,-540.948
1081.164,-600.484,-331.108
872.056,-678.32,-139.324
787.388,-669.536,-142.252
683.444,-591.456,-237.656
680.516,-487.024,-329.888
648.796,-435.052,-275.476
598.288,-423.828,-143.228
642.452,-460.428,-93.94
710.772,-465.552,30.744
682.712,-460.916,136.64
856.928,-445.544,102.48
1106.296,-489.22,142.008
1272.216,-587.552,259.372
1550.376,-670.512,134.444
1759.484,-883.768,379.42
1918.572,-1100.44,770.064
1767.292,-1235.86,823.256
1611.132,-1008.94,425.048
397.964,-657.336,716.628
-957.7,238.876,775.676
64.172,608.048,-16.348
113.46,678.808,-390.156
-418.216,719.068,-294.264
-135.908,664.168,-458.232
-345.504,597.312,-232.532
-225.944,508.74,-114.192
-129.32,550.952,-110.532
-71.98,608.78,-79.544
119.072,791.048,-231.8
106.872,892.796,-148.352
197.152,885.964,-141.032
498.492,992.836,-283.04
490.928,1015.528,-74.908
520.696,965.02,3.66
726.144,954.04,-193.248
629.032,997.472,-73.2
504.348,980.392,-25.864
440.176,946.72,-80.276
440.908,941.352,-192.76
299.144,906.46,-111.264
267.18,835.212,-80.764
436.76,801.54,-199.836
417.728,842.532,-179.828
330.132,831.308,-114.924
410.652,911.828,-260.104
366.976,962.336,-249.368
399.916,987.956,-283.284
438.468,978.196,-276.94
428.952,942.328,-190.564
555.1,920.368,-263.764
486.292,915.732,-135.908
463.6,891.088,-82.472
483.852,867.664,-115.9
425.536,863.516,-96.624
361.608,839.116,-48.8
439.932,851.072,-130.54
470.432,883.28,-190.076
411.628,880.596,-116.144
470.676,891.332,-128.344
525.82,907.68,-181.048
545.828,919.636,-172.752
498.492,904.752,-78.568
491.66,922.564,-57.584
525.82,912.072,-89.304
529.48,926.712,-106.872
538.752,912.804,-84.18
565.836,913.536,-65.148
514.84,906.948,-4.392
503.128,936.472,10.492
437.492,933.788,49.044
507.52,928.176,-58.072
510.936,942.572,-105.408
410.896,937.692,-28.548
434.32,971.608,-36.6
391.864,989.908,20.008
461.404,1006.744,-14.884
522.648,1043.1,-70.76
467.504,1077.26,-39.04
516.792,1108.98,-121.512
491.416,1119.228,-149.816
469.456,1118.74,-162.016
481.9,1122.644,-203.74
414.068,1087.996,-155.672
349.164,1044.076,-98.82
349.896,1023.824,-94.916
382.348,996.252,-126.392
344.284,1004.304,-130.052
380.396,1004.548,-172.996
422.12,1041.88,-227.652
310.612,1089.216,-206.912
262.788,1060.424,-186.416
223.26,1022.848,-132.248
238.144,1000.4,-131.272
278.648,979.904,-146.644
363.072,960.872,-165.432
316.468,949.648,-108.58
239.852,925.98,-44.652
188.856,889.624,26.352
138.592,872.788,83.448
163.48,880.352,46.36
280.356,898.408,-78.324
224.968,917.196,-94.428
126.148,918.172,-56.608
63.684,915.0,-5.124
44.652,903.044,10.004
28.792,885.964,9.272
31.72,889.624,-31.476
131.516,871.08,-115.412
123.464,878.888,-120.292
61.244,878.4,-75.884
18.3,859.368,-16.836
22.692,849.608,-17.08
7.808,860.344,-20.984
-10.98,850.584,2.684
17.324,833.992,-6.344
52.46,840.092,-42.944
-9.028,871.568,2.196
-57.096,881.572,69.296
-36.844,895.236,57.828
-15.616,919.392,15.372
24.888,922.808,-25.62
-4.148,920.368,8.296
-17.568,907.68,43.676
-36.356,902.312,51.728
-46.36,915.0,47.336
-47.336,930.616,27.816
-42.456,936.472,-2.684
-59.78,937.936,-13.664
-74.176,934.764,-6.588
-81.496,935.008,15.616
-103.7,935.496,39.04
-82.228,937.204,12.444
-73.2,952.088,-2.928
-81.74,948.672,-2.928
-78.324,960.628,-19.764
-85.644,982.832,-25.132
-84.424,980.636,-5.856
-95.16,975.512,12.688
-74.42,966.728,9.028
-55.632,970.876,14.884
-60.268,966.484,35.136
-20.252,973.316,11.224
-33.916,1006.744,0.488
-60.024,1008.696,15.372
-42.944,1000.644,0.976
-50.508,1002.84,-8.296
-32.94,1024.8,-31.476
-30.256,1032.364,-46.36
-62.464,1016.26,-8.052
-74.908,1014.308,-0.488
-70.272,1007.964,-2.196
-68.808,1002.108,12.444
-57.34,990.152,3.172
-73.932,995.52,-11.712
-99.308,1016.748,-5.124
-166.652,1042.368,28.548
-359.9,1068.72,73.688
-417.24,1137.528,24.4
-319.152,1137.284,-121.512
-208.132,1163.148,-305.976
-424.56,1147.044,-284.26
-754.692,990.396,6.1
-402.112,691.496,123.22
81.74,517.036,140.544
8.54,331.84,346.236
453.108,160.064,423.096
1028.948,216.428,-142.252
903.288,348.432,-383.324
954.04,235.216,-113.46
842.532,72.956,295.24
1115.324,63.684,126.392
1065.792,39.04,197.152
1008.696,-17.324,439.444
846.68,-35.624,655.628
1150.46,-13.908,665.876
1158.268,-61.244,832.04
1062.62,-32.696,978.684
894.748,-77.836,1029.924
860.1,-157.38,1152.9
737.612,-252.54,1186.816
728.096,-297.436,1129.72
709.552,-315.004,879.132
706.868,-290.36,524.112
733.708,-212.768,178.608
519.476,-266.692,112.484
714.92,-266.448,-42.944
607.804,-256.932,-86.864
577.06,-190.808,-234.484
667.584,-206.912,-383.324
946.476,-249.612,-614.392
1213.656,-231.068,-921.832
1196.82,-206.912,-969.412
999.668,-163.236,-860.832
973.804,-284.504,-734.928
1373.232,-363.316,-904.996
1575.264,-376.248,-1136.796
1485.228,-361.852,-1197.308
1567.212,-326.228,-1250.988
1410.564,-337.94,-1176.568
1353.224,-396.744,-1058.228
1122.888,-451.156,-876.936
900.36,-500.688,-664.656
817.156,-549.488,-399.184
682.712,-646.6,-152.012
629.52,-712.48,-12.444
623.42,-685.396,46.604
510.448,-698.328,234.972
522.16,-731.756,490.44
397.232,-784.704,668.072
384.788,-828.624,800.808
345.748,-799.344,885.964
386.008,-877.424,1050.908
440.664,-1036.024,1309.06
522.892,-1075.552,1348.588
893.284,-1128.988,1283.928
846.68,-1207.8,1204.384
1187.304,-1209.508,1105.564
1209.264,-1231.956,1155.584
1191.696,-1174.86,1125.816
1209.752,-1044.808,789.096
1213.412,-972.584,593.652
1459.364,-943.548,572.668
1405.196,-972.096,605.364
1323.456,-1034.316,656.848
1305.156,-1108.004,587.552
1404.952,-1131.428,284.504
1711.172,-1073.844,-148.108
1778.028,-877.18,-332.572
1759.24,-686.372,-434.32
1537.444,-689.056,-236.68
1464.244,-776.408,-31.72
1454.728,-707.112,-85.4
1355.42,-580.476,-232.288
1080.432,-434.564,-340.136
878.156,-342.332,-272.06
858.148,-330.132,-169.824
696.376,-347.7,-80.764
660.508,-341.112,-38.552
572.424,-366.732,74.908
515.328,-353.312,123.464
494.1,-307.44,68.808
487.512,-282.308,106.628
557.784,-276.696,141.032
711.992,-303.78,140.056
701.744,-369.172,279.868
780.8,-391.376,345.504
801.052,-386.984,367.708
788.12,-391.62,406.504
951.6,-437.248,438.468
1193.892,-493.368,493.124
1349.564,-593.164,616.588
1707.268,-609.756,590.968
1595.516,-683.2,710.284
1914.912,-710.04,383.08
1648.464,-794.708,518.988
1124.596,-727.608,617.32
719.556,-458.964,453.596
-163.48,-2.928,493.368
-844.972,584.136,260.348
-240.096,920.368,-365.024
30.988,932.568,-459.696
-100.528,874.252,-193.98
124.44,733.464,-149.572
149.084,684.42,-1.708
180.316,693.936,-18.3
308.416,792.512,-170.556
178.852,848.876,-95.648
200.568,860.344,-109.312
359.9,863.028,-201.3
292.8,853.512,-92.72
268.888,854.0,-66.368
544.608,880.596,-315.492
449.936,944.28,-217.16
388.936,959.896,-153.232
426.756,1041.392,-199.836
436.516,960.628,-134.444
435.052,900.116,-43.188
596.336,882.06,-82.228
567.056,894.26,5.612
503.372,905.972,48.556
546.804,950.136,-76.128
565.836,980.148,-163.48
433.344,943.06,-79.544
420.168,946.476,-134.932
388.692,955.992,-199.104
422.12,969.656,-283.772
464.576,1025.288,-359.412
406.748,1056.764,-307.684
393.816,1053.836,-297.192
383.568,1068.72,-256.932
448.96,1071.16,-249.368
572.18,1057.252,-303.78
582.672,1064.816,-280.6
592.432,1054.568,-207.888
542.412,1010.404,-137.372
607.072,965.264,-156.648
628.788,941.84,-115.656
546.804,898.652,-6.832
512.644,905.24,14.64
618.784,896.7,-94.916
695.644,911.096,-163.724
528.992,936.96,-96.38
490.684,956.48,-133.956
444.324,1004.548,-145.912
441.152,1038.952,-166.652
478.484,1043.832,-202.764
485.56,1011.136,-140.788
472.872,977.708,-56.12
467.748,950.624,-9.272
530.212,914.024,23.912
600.972,875.472,58.316
605.608,876.692,68.32
517.768,871.08,94.428
466.772,837.896,136.152
469.212,828.136,135.664
493.368,831.308,87.352
589.016,853.024,-7.564
506.788,868.64,12.688
440.664,889.868,-4.148
421.144,884.256,24.4
440.176,851.316,99.552
469.7,844.24,108.092
404.552,831.308,119.316
379.42,840.092,98.576
315.248,817.156,102.236
258.152,813.984,89.548
216.672,842.532,54.412
175.924,814.472,38.308
147.132,801.052,68.808
149.816,805.2,77.836
84.18,778.116,94.184
43.92,775.92,138.104
24.644,788.852,192.272
70.028,781.288,145.424
69.296,818.376,120.292
48.068,839.848,99.064
55.876,873.032,61.0
62.952,903.776,55.876
39.04,881.572,98.332
87.84,892.308,113.948
34.648,889.136,184.952
-6.832,855.708,208.62
21.96,878.4,210.816
73.444,904.264,182.024
72.956,908.168,133.224
112.972,931.348,42.456
111.508,958.92,39.528
59.048,946.476,105.896
84.18,983.564,96.868
103.212,990.884,47.58
92.964,1007.476,53.924
86.376,1015.284,78.08
95.648,1004.06,60.512
133.224,1021.628,24.644
151.768,1018.456,15.86
117.852,1019.92,48.312
82.472,1006.5,83.936
95.404,993.812,114.436
77.592,981.124,126.636
69.296,989.908,108.58
94.672,999.424,62.952
92.476,1018.944,36.356
120.292,1019.188,21.96
143.96,999.424,9.516
101.26,1006.256,37.332
85.644,1044.808,-36.844
91.988,1040.66,-57.096
65.88,1011.136,-14.152
75.396,984.54,17.568
73.932,973.56,15.372
-72.712,986.248,25.62
-135.908,981.368,69.296
-60.756,965.996,60.512
-56.12,961.116,41.236
12.444,920.124,24.156
-26.108,856.928,55.876
53.68,796.416,48.556
123.464,768.6,-125.66
-142.496,610.732,-43.92
317.932,453.84,121.268
446.032,354.776,11.956
256.932,256.688,143.472
808.616,93.94,295.24
782.02,-30.5,393.084
1113.86,-114.924,204.472
1286.856,-149.328,221.308
1159.0,-218.624,480.192
1233.664,-241.804,592.676
1106.784,-190.564,547.048
1300.764,-115.412,518.988
1396.9,-108.092,555.832
1504.504,-50.264,553.148
1510.848,18.544,604.144
1390.068,61.0,732.976
1360.788,81.008,813.984
1235.372,43.676,951.356
1037.488,34.404,1077.504
962.58,9.516,1137.528
810.568,-50.752,1143.628
727.852,-79.3,1099.708
630.984,-79.544,1028.948
590.48,-88.816,879.376
476.044,-108.092,779.092
378.2,-101.992,592.432
336.476,-120.292,473.604
227.896,-198.128,407.48
421.388,-239.364,303.048
474.824,-264.252,141.764
424.072,-207.4,-18.3
268.644,-179.096,-88.084
386.252,-193.492,-175.436
465.796,-213.012,-259.616
687.836,-188.124,-373.564
727.12,-141.52,-545.828
666.608,-152.988,-487.512
854.732,-204.472,-496.052
956.48,-252.54,-560.224
1168.272,-315.736,-591.456
1308.328,-384.056,-584.624
1485.716,-448.716,-572.912
1719.712,-470.432,-630.496
1870.504,-479.46,-644.648
2024.468,-468.968,-657.092
2019.344,-497.028,-648.796
1894.416,-549.976,-611.952
1717.76,-589.992,-483.364
1562.82,-617.32,-363.316
1394.46,-620.004,-260.836
1183.4,-630.984,-119.316
1003.572,-629.764,-59.536
875.716,-655.384,19.276
676.856,-599.508,165.432
637.328,-570.716,244.244
530.212,-578.524,296.216
490.44,-550.708,356.24
404.796,-522.16,447.74
357.216,-523.136,553.88
192.272,-562.176,604.632
251.076,-557.54,578.768
326.472,-550.464,547.292
229.36,-573.888,650.748
159.332,-614.636,824.72
238.632,-625.372,786.656
342.576,-613.904,704.672
450.18,-664.9,750.788
558.516,-762.012,801.54
650.992,-875.472,899.384
649.772,-931.836,1022.848
827.648,-1000.4,998.204
963.068,-1083.604,939.888
927.2,-1114.348,1042.124
864.004,-1145.58,1064.084
971.12,-1139.968,921.344
1058.96,-1149.24,799.832
988.444,-1199.016,770.064
989.42,-1245.376,759.328
859.612,-1286.124,736.392
793.244,-1307.108,681.492
1128.988,-1260.26,319.396
1398.364,-1242.448,-47.092
1497.184,-1160.464,-163.48
1452.776,-1055.056,-193.004
1490.108,-921.1,-282.796
1522.316,-818.62,-382.592
1310.28,-765.184,-323.788
1278.56,-732.488,-268.644
1163.636,-744.2,-133.468
1111.42,-757.132,-54.656
1037.488,-730.78,-33.916
906.704,-679.052,-65.88
775.188,-599.752,-115.656
549.976,-575.84,-32.208
548.512,-508.496,50.02
600.24,-532.896,105.164
599.752,-501.664,75.884
540.46,-479.216,84.912
569.008,-431.88,105.164
524.844,-404.796,144.448
438.224,-370.148,195.688
594.872,-356.484,175.924
643.428,-322.08,168.848
665.144,-319.152,178.12
714.676,-314.76,185.928
722.484,-306.464,221.308
717.604,-275.964,264.252
818.132,-282.552,271.084
807.396,-295.728,287.432
875.716,-273.28,268.644
910.12,-275.72,249.612
984.052,-318.664,315.98
1073.112,-370.148,382.104
1246.84,-438.224,425.78
1300.52,-505.568,534.848
1297.104,-509.96,598.044
1512.068,-487.268,637.328
1624.552,-464.332,605.12
1744.844,-450.424,436.272
1756.8,-461.16,441.884
1557.696,-554.856,638.06
1468.88,-439.932,456.036
994.3,-240.584,373.564
405.284,-26.84,450.18
173.484,220.576,233.508
-94.428,435.784,21.716
-41.724,628.544,-154.208
92.476,658.556,-80.764
-5.124,658.8,-29.524
-136.152,679.296,-50.508
91.256,651.236,-175.192
91.256,671.244,-156.16
132.004,748.836,-164.456
122.0,774.7,-108.092
145.668,845.704,-60.756
75.884,850.828,9.028
266.204,858.88,-85.888
261.324,867.908,-73.932
320.616,897.92,-87.84
377.956,931.104,-94.916
304.268,953.552,27.816
344.772,985.516,75.64
298.412,964.044,83.204
516.548,963.8,-93.94
501.664,997.472,-149.572
359.656,1022.848,-65.636
387.472,1012.356,-78.812
395.036,989.42,-90.768
428.708,911.828,-43.92
457.988,869.372,-5.856
501.664,858.392,0.488
421.632,846.924,79.056
395.036,862.052,58.804
397.476,900.848,-13.176
352.336,898.896,-26.596
398.208,885.964,-30.5
421.632,865.712,7.076
433.832,866.2,22.936
479.948,898.896,-27.328
454.572,936.716,-62.952
440.176,955.26,-76.86
474.336,966.24,-112.972
446.276,976.732,-101.016
433.588,966.972,-76.128
466.528,969.412,-81.252
462.38,975.024,-98.82
423.34,975.024,-99.796
429.928,992.836,-147.132
408.7,1005.036,-184.952
386.496,1042.124,-211.304
407.48,1063.108,-249.124
427.488,1078.236,-263.764
535.58,1059.936,-319.884
505.568,1031.144,-250.1
448.228,1029.68,-186.66
453.84,1032.12,-198.372
450.18,1046.516,-230.336
397.476,1072.868,-259.128
432.856,1086.288,-315.98
405.528,1080.676,-303.048
402.6,1069.452,-266.204
437.004,1069.452,-249.856
412.848,1086.288,-205.692
414.556,1078.724,-188.612
539.972,1033.096,-247.904
552.904,986.248,-202.52
452.376,973.072,-113.948
418.46,986.248,-90.768
367.464,995.276,-77.592
305.244,989.908,-64.416
325.252,972.34,-93.696
347.7,955.748,-105.896
365.024,949.648,-111.264
367.708,959.652,-138.592
284.504,980.636,-110.044
241.072,977.22,-50.996
280.844,968.68,-20.984
323.3,958.92,-40.016
412.36,905.24,-88.572
402.844,888.648,-76.128
303.292,873.276,4.88
251.076,863.272,15.86
221.552,853.268,31.232
217.16,840.092,52.948
212.28,810.568,62.952
250.344,733.708,119.56
266.692,681.004,241.56
267.668,690.276,284.992
243.756,747.128,260.104
205.936,780.556,222.284
132.248,812.276,206.18
102.236,816.912,172.996
119.56,816.18,123.952
115.168,827.892,115.656
101.504,829.356,116.388
77.104,825.208,128.832
58.56,828.624,142.008
28.304,821.792,159.576
19.764,827.648,146.888
15.616,872.788,120.292
35.624,906.216,82.472
41.968,929.64,53.68
26.352,941.108,42.7
18.788,953.308,76.86
18.3,960.14,98.82
16.104,965.996,91.5
52.216,964.776,76.372
81.74,981.612,34.404
95.892,987.712,25.62
111.508,992.592,19.032
117.364,1004.304,45.384
125.66,990.64,42.212
171.044,1005.768,10.736
166.652,1002.108,16.104
166.164,1008.208,20.252
164.212,1008.94,29.524
184.22,1012.6,8.54
172.752,1012.6,19.032
157.136,999.424,33.428
150.06,980.88,45.872
146.156,971.852,42.456
140.788,963.8,66.368
121.268,954.772,86.62
123.952,967.216,72.956
121.268,969.9,50.996
126.88,976.976,24.888
117.364,990.152,13.42
135.664,1004.548,-7.32
125.66,1006.012,-12.444
120.536,1005.524,-30.744
93.452,1006.5,-10.004
64.416,990.884,33.184
70.272,984.54,29.768
80.52,979.66,12.688
85.644,982.588,4.148
91.256,981.368,1.708
91.5,983.808,13.176
51.24,998.448,29.28
55.144,1002.596,28.548
89.548,991.86,20.74
112.728,977.708,4.88
23.424,981.612,8.052
-207.4,1017.968,12.688
-143.472,1022.36,-56.852
-176.656,1001.62,-70.76
-308.904,1024.556,-96.38
-359.168,988.932,-132.248
-602.68,920.856,-112.728
-732.0,687.592,11.712
-62.464,383.812,-16.592
457.744,169.336,1.708
760.792,149.572,161.284
925.004,140.544,241.56
878.644,129.808,224.724
1086.288,136.64,37.332
1156.56,95.648,31.232
1300.52,-33.428,232.288
1281.0,-163.48,582.184
1321.016,-217.892,789.828
1371.28,-155.672,831.308
1029.68,-128.344,999.424
1040.172,-42.944,1105.564
975.512,-79.056,1148.02
932.812,-138.592,1222.44
749.324,-189.832,1295.64
687.836,-211.792,1297.592
656.848,-199.104,1180.228
653.92,-188.124,1009.184
596.092,-163.236,794.708
637.328,-147.376,724.436
590.724,-136.152,630.984
656.116,-110.776,457.988
601.46,-127.368,279.624
798.124,-122.732,14.64
763.964,-126.148,-124.684
687.836,-95.404,-163.968
568.032,-74.664,-49.532
610.488,-202.52,-58.804
822.768,-208.864,-328.668
956.236,-171.288,-538.264
885.476,-82.472,-655.628
788.608,-91.012,-550.708
766.892,-118.584,-570.228
858.636,-129.32,-685.64
977.708,-163.236,-719.8
992.348,-165.432,-776.408
996.984,-201.544,-782.264
1102.148,-289.14,-783.728
1257.332,-290.604,-842.044
1350.54,-302.316,-901.824
1469.856,-324.032,-987.956
1590.88,-343.064,-1072.624
1594.54,-393.572,-1071.404
1497.428,-468.48,-832.528
1371.28,-507.764,-622.444
1317.112,-532.652,-516.06
1258.796,-559.004,-372.832
1204.872,-574.62,-210.572
1108.736,-604.632,-113.216
1050.42,-604.144,-1.464
950.136,-574.62,76.372
890.112,-509.472,74.176
871.568,-464.82,27.816
692.96,-472.872,183.0
611.952,-441.884,243.756
576.084,-474.092,273.28
545.828,-474.824,309.148
406.504,-464.088,366.976
361.12,-418.216,370.392
419.924,-400.404,363.56
438.712,-429.44,434.808
385.032,-507.276,591.212
278.404,-554.368,701.012
495.076,-581.94,629.032
704.428,-585.356,470.676
630.74,-630.496,509.96
674.904,-697.596,550.708
763.72,-748.104,597.556
858.148,-814.716,688.324
835.944,-866.444,737.124
756.644,-922.32,788.852
833.748,-948.428,714.188
1089.216,-986.98,658.312
1255.136,-1051.396,620.98
1172.42,-1112.152,653.188
1215.852,-1103.612,588.04
1337.12,-1094.828,570.716
1469.612,-1118.008,491.416
1527.196,-1167.052,418.46
1506.7,-1119.228,323.544
1438.136,-1063.84,134.688
1434.232,-987.468,5.368
1503.04,-975.512,-82.716
1451.556,-956.724,-141.764
1349.32,-918.416,-168.604
1275.876,-835.456,-253.76
1267.824,-781.044,-330.864
1020.896,-751.52,-229.604
932.812,-676.856,-224.236
948.184,-621.956,-220.088
905.728,-542.9,-196.908
867.42,-476.044,-248.636
844.484,-434.808,-218.868
697.108,-444.08,-88.328
565.104,-415.532,3.172
584.868,-395.524,29.524
535.092,-401.868,95.892
610.0,-359.656,41.968
654.164,-307.928,-2.44
613.66,-279.868,10.004
588.04,-271.572,59.536
675.636,-288.164,115.9
762.256,-310.856,175.68
739.564,-319.64,260.836
803.98,-293.044,236.192
817.4,-263.032,176.168
840.58,-259.86,208.864
861.32,-270.84,281.82
931.104,-291.58,330.62
1036.512,-347.212,313.54
1213.656,-411.384,340.136
1600.64,-459.696,284.26
1976.156,-677.344,477.02
1712.392,-831.308,900.116
1550.132,-767.868,864.004
1672.864,-552.172,508.008
1306.376,-408.212,514.108
963.8,-171.532,493.856
505.324,114.192,340.624
-409.432,451.644,340.136
-99.796,582.916,44.408
326.96,643.184,-244.488
-82.716,732.0,-177.632
116.388,820.572,-381.372
64.66,823.012,-351.604
12.444,779.336,-247.172
37.332,738.1,-169.092
138.348,730.78,-134.688
153.232,743.956,-71.492
230.824,777.384,-91.5
207.888,803.004,-35.136
329.4,884.988,-103.456
275.72,921.832,-79.788
286.944,883.28,-42.456
498.736,969.656,-246.684
366.0,989.176,-137.128
355.752,980.636,-61.732
503.616,979.66,-131.516
506.544,976.0,-94.184
438.224,922.076,17.08
542.168,862.296,-0.976
537.532,852.78,21.716
447.984,838.14,115.168
492.88,815.692,136.396
512.888,805.2,134.2
527.04,807.152,69.052
527.284,853.512,-25.62
488.0,905.728,-59.048
439.688,904.02,-27.328
462.38,899.628,-24.888
498.98,880.84,-50.752
507.032,890.6,-59.292
504.104,895.968,-30.744
496.296,881.328,-6.588
495.32,882.304,22.204
500.444,874.74,30.256
537.288,863.516,-20.496
488.0,867.42,-5.368
502.64,868.396,-29.768
491.172,886.208,-25.864
506.3,878.156,-29.036
528.504,868.396,-33.184
502.152,869.372,-3.904
495.808,858.392,11.224
499.468,853.024,17.324
508.496,854.732,7.808
533.384,862.54,-17.08
