acc_x[mg],acc_y[mg],acc_z[mg]
-6.832,984.54,20.496
5.856,986.736,8.784
12.932,989.664,11.224
7.808,990.396,17.324
-4.392,984.54,22.692
16.348,976.976,2.928
1.464,988.932,9.272
3.904,991.372,20.984
-2.196,991.128,19.764
-10.004,984.052,20.496
-11.956,979.904,32.208
-4.392,981.856,27.328
-6.1,984.052,23.912
0.732,987.468,18.3
-2.928,988.444,22.448
8.784,988.444,12.932
3.416,993.568,20.252
4.88,994.788,19.032
5.368,995.276,21.228
6.832,993.324,17.324
2.44,994.544,14.152
-7.808,992.104,21.228
4.88,989.42,9.516
-2.196,991.86,20.74
8.052,987.468,21.472
-9.76,984.784,34.648
0.976,985.272,21.96
-10.004,985.76,27.572
-20.984,980.88,36.356
-9.272,984.54,24.156
-10.492,986.736,27.328
-12.932,986.492,25.864
3.904,990.884,10.248
18.3,997.96,14.152
21.472,999.424,19.032
30.256,998.448,17.08
18.544,997.228,25.376
11.224,996.74,25.132
6.588,996.984,23.912
15.616,1000.888,12.2
11.224,1002.108,14.64
10.004,994.544,19.276
1.22,982.588,24.888
-15.372,979.904,33.672
-10.004,978.196,30.256
-13.908,981.124,37.576
-18.544,977.708,27.328
-16.104,979.172,28.304
-9.76,980.88,29.28
-8.052,984.296,24.888
12.444,988.688,16.592
18.056,996.74,20.252
9.516,999.668,18.544
9.272,996.984,17.08
13.176,1002.596,16.104
8.052,998.936,21.228
11.712,994.056,17.324
0.732,992.592,32.452
10.98,985.028,34.16
6.1,990.64,25.376
-0.732,986.736,34.892
0.732,989.908,25.132
3.172,989.664,20.984
-7.808,989.42,28.548
-8.54,984.54,26.352
-5.368,981.612,28.792
0.244,986.736,27.084
-2.684,985.516,27.084
-5.856,988.932,24.4
-11.956,986.736,23.668
-2.928,987.224,24.888
-0.244,990.64,22.936
1.952,995.764,32.696
0.976,988.444,33.916
7.808,988.444,28.06
8.54,986.98,40.26
6.832,987.468,34.892
2.684,989.664,33.184
11.468,993.568,20.008
-0.244,999.668,26.84
5.368,998.692,19.032
3.904,995.032,21.472
10.98,990.396,20.008
4.88,988.2,26.84
5.124,990.64,27.572
3.66,990.64,32.696
-2.44,986.736,31.72
1.952,986.492,31.232
-7.076,985.272,40.016
-2.928,981.856,35.38
3.416,985.76,39.772
-3.416,987.468,39.284
10.492,986.736,23.668
8.296,995.276,35.38
10.98,995.764,26.352
7.076,996.252,25.864
-0.244,993.812,29.036
1.22,992.104,21.716
12.932,995.764,23.18
7.076,997.96,26.84
7.32,991.616,22.936
-1.708,989.176,34.16
-10.736,982.832,38.552
6.344,983.808,28.792
-2.196,989.176,40.016
-4.392,984.296,33.672
-1.464,986.004,32.696
0.244,985.272,33.428
-2.684,988.2,32.452
6.1,990.396,34.16
-5.368,990.152,39.04
4.636,987.712,34.404
6.588,990.396,32.452
5.124,994.3,24.888
8.54,999.424,24.888
3.904,997.716,28.792
0.732,991.128,29.524
2.928,989.42,35.136
-4.148,987.956,40.748
4.88,991.372,27.572
6.344,996.74,32.452
4.88,995.52,26.108
9.76,995.52,19.52
6.344,989.42,37.088
8.54,988.932,28.304
8.052,989.176,31.964
-4.636,986.004,47.58
-1.22,982.1,40.504
-6.588,981.124,34.648
-5.856,983.564,40.748
12.444,990.152,20.984
1.952,993.08,31.232
-1.22,989.176,34.892
0.976,991.86,29.28
12.688,993.08,25.132
9.272,998.936,28.792
6.1,996.008,22.448
14.64,996.008,19.276
9.516,993.568,29.768
-0.732,987.468,33.184
22.692,989.664,16.348
14.64,990.152,31.232
-4.636,982.1,40.992
-16.104,976.976,38.308
-3.904,981.612,22.936
8.784,994.3,12.932
15.616,1000.888,9.76
9.028,999.912,22.692
-2.196,989.908,34.648
3.66,980.88,36.6
3.172,984.54,38.308
15.86,991.86,31.72
8.784,996.74,29.524
2.684,990.884,24.156
-10.736,988.932,38.308
-5.856,991.128,28.304
-3.904,991.372,36.356
2.928,986.736,35.38
-4.148,987.224,38.796
4.148,986.492,33.916
1.708,988.688,38.796
6.832,992.348,30.256
11.956,996.496,29.036
16.104,996.252,28.548
12.444,996.252,25.376
8.296,993.568,27.328
5.124,990.396,32.452
7.564,988.2,33.916
6.832,989.176,37.576
0.488,987.712,45.384
-1.952,985.028,40.016
-1.952,985.028,35.624
4.636,989.176,29.524
6.588,991.372,29.036
3.904,990.396,33.916
6.1,989.176,28.06
-0.732,989.908,36.844
7.808,988.932,34.16
10.004,988.444,30.012
7.076,990.884,30.744
8.54,993.568,26.108
14.152,993.568,25.376
9.76,992.104,28.06
7.076,990.884,32.208
8.052,991.86,30.744
12.444,993.812,24.888
2.928,995.764,30.012
1.952,991.372,29.768
-1.464,988.932,27.816
8.052,986.492,29.28
9.272,987.956,39.772
5.124,983.564,37.576
6.1,985.76,36.6
7.076,987.224,32.696
0.244,990.396,32.94
0.244,987.224,39.04
0.0,983.076,39.772
-4.148,985.028,34.404
-1.952,990.884,37.82
3.904,998.204,31.72
4.148,996.984,29.524
13.908,993.568,24.156
8.052,996.496,21.228
10.736,997.472,28.548
0.244,999.668,25.62
-19.52,1004.06,29.28
-20.74,1012.112,31.476
-16.592,1025.532,29.28
-22.936,1054.324,34.16
-23.912,1076.772,15.616
-101.504,1095.072,28.792
-107.36,1162.66,16.592
-113.948,1193.648,-16.104
-150.792,1285.148,-56.608
-96.136,1282.952,-100.528
-163.48,1306.132,-107.116
-279.624,1318.088,-64.66
-112.24,1291.248,-104.676
-48.068,1247.816,-94.672
49.044,1247.816,-85.644
127.856,1217.804,-52.216
50.752,1183.156,36.844
46.604,1131.672,56.12
249.368,1107.76,-97.112
380.152,1101.172,-73.444
361.12,1013.82,-57.828
340.38,941.596,-68.808
416.508,863.272,14.64
567.788,809.592,-35.624
647.332,678.076,-27.572
408.212,498.004,220.332
551.44,392.84,472.14
776.408,183.976,-175.68
785.68,168.36,-198.372
730.536,139.812,39.772
805.932,-85.156,90.28
810.08,-306.22,299.388
775.188,-469.944,250.344
845.216,-515.084,335.012
928.176,-367.22,306.952
940.864,-137.372,254.492
1037.488,-34.892,152.744
1026.752,4.88,260.592
1050.908,52.46,370.636
1240.496,190.32,414.312
1198.284,216.184,663.192
1115.568,112.728,775.432
1095.316,11.956,920.368
974.292,-112.728,928.176
909.876,-94.428,901.092
721.508,-118.096,804.468
612.928,-100.772,702.72
660.996,-49.776,512.156
656.116,-56.608,266.692
597.556,-20.74,187.636
495.564,-40.016,137.372
360.632,-78.812,101.504
461.16,-70.76,17.324
454.084,-140.3,-62.708
508.008,-148.596,-75.396
610.0,-196.908,-110.532
610.0,-154.696,-170.556
661.972,-150.06,-388.692
812.764,-66.612,-533.628
762.5,-85.156,-425.292
906.948,-185.196,-566.324
984.052,-244.976,-762.744
1001.376,-186.172,-854.0
962.092,-154.94,-856.44
1233.908,-225.944,-1112.152
1289.54,-261.08,-1225.856
1273.192,-219.356,-1240.984
1370.792,-237.9,-1279.292
1480.348,-261.324,-1260.504
1405.196,-281.576,-1138.748
1282.952,-343.064,-923.784
1250.988,-407.968,-781.288
1067.5,-442.86,-647.82
974.292,-440.664,-463.356
786.656,-460.428,-317.444
699.548,-443.104,-210.572
620.004,-455.304,-92.476
631.472,-421.876,35.136
674.416,-402.844,137.128
449.448,-458.964,262.788
479.704,-483.608,266.936
557.296,-507.276,396.5
563.396,-507.764,561.932
725.656,-569.496,728.096
926.712,-731.024,892.064
973.56,-840.092,921.588
1304.424,-766.16,971.12
1309.548,-786.168,1045.54
1425.204,-840.58,1079.212
1507.92,-888.648,1008.452
1763.632,-854.732,869.86
1727.032,-850.584,726.144
1679.208,-820.572,623.908
1663.836,-793.244,552.416
1623.088,-832.04,520.94
1608.936,-827.404,341.356
1555.012,-780.312,163.48
1387.628,-757.376,-7.076
1411.784,-707.356,-254.248
1361.276,-678.808,-305.488
1183.156,-747.372,-211.792
955.992,-842.776,-243.024
1082.384,-762.744,-386.984
1013.82,-697.352,-413.336
908.656,-678.808,-401.624
898.408,-663.924,-534.116
842.532,-579.012,-530.944
936.228,-452.376,-512.644
992.348,-410.652,-464.576
954.284,-415.288,-273.524
945.5,-468.968,-205.936
883.524,-537.044,-5.124
910.608,-651.236,76.616
1106.784,-672.708,17.324
1246.108,-682.956,101.748
1557.94,-667.828,-37.82
1481.08,-700.524,210.816
1277.34,-681.736,274.012
1460.828,-645.624,71.98
1368.108,-475.556,303.536
1192.428,-389.668,250.344
1332.24,-308.416,-13.908
1380.064,-203.252,-35.136
1223.172,18.788,214.72
970.388,127.612,209.596
734.44,412.848,30.5
668.316,678.564,-118.828
707.356,926.956,-143.228
699.304,948.672,-198.372
615.612,947.452,-269.376
589.504,885.964,-222.528
755.424,887.428,-290.848
655.628,823.5,-214.72
407.968,797.636,-4.88
318.42,742.98,-76.616
212.768,772.26,-23.424
171.532,755.668,-0.976
185.196,679.052,9.272
136.64,626.104,64.416
142.252,650.992,138.836
3.416,630.74,215.452
-93.94,612.928,216.672
18.544,684.42,97.6
-31.232,720.532,138.104
-10.004,748.836,152.744
-77.592,711.016,385.52
-139.324,638.792,412.116
-116.876,659.532,228.384
-72.712,733.464,166.896
-82.96,785.68,182.512
-36.6,813.74,217.648
-34.648,821.792,245.464
-81.496,852.292,219.356
-91.256,901.58,130.296
-141.032,931.104,100.04
-143.716,931.104,51.972
-102.968,928.664,17.08
-52.704,943.548,77.836
-20.984,948.916,63.928
-21.96,978.928,83.204
-46.36,983.564,92.72
-17.324,976.244,41.48
-44.164,970.388,49.776
-77.592,977.952,103.944
-22.936,968.68,75.64
-27.572,978.44,89.304
-4.636,1002.84,63.196
10.248,1011.38,46.116
1.464,991.372,96.136
-25.132,981.856,81.496
-27.816,994.788,82.96
-25.376,1002.84,72.468
-7.808,992.348,69.54
12.688,997.472,46.116
-6.588,1003.572,59.536
-29.28,977.952,90.036
-46.116,961.848,108.336
-37.576,969.168,68.564
-50.508,980.392,73.2
-29.524,988.932,28.304
21.716,1018.944,-48.8
1.464,1045.784,-30.012
-21.96,1026.752,-16.348
-24.888,995.276,2.928
-35.136,967.46,39.284
-50.508,971.364,71.736
-24.644,953.308,79.3
-6.1,968.68,62.952
37.82,988.2,41.48
23.424,1012.6,64.904
18.056,1011.136,82.96
5.124,988.2,103.212
-8.052,970.144,96.136
18.056,967.46,60.756
8.052,994.3,39.04
-21.716,998.692,44.896
-40.26,986.492,41.236
-11.224,997.716,33.428
-19.276,998.936,44.652
-24.644,978.44,48.312
-39.528,979.904,52.46
16.836,969.656,31.964
-4.88,983.564,58.316
23.668,982.832,60.756
-24.888,976.244,96.136
-41.724,974.536,93.208
-20.74,972.828,86.864
1.952,984.296,39.04
-23.424,999.668,45.628
-18.788,1002.108,38.064
-27.328,1005.28,45.628
-20.252,999.912,56.364
-0.976,1001.864,21.716
-9.028,1002.596,40.016
-18.788,995.52,52.46
-7.076,986.004,53.924
-13.176,995.276,70.028
-16.348,996.496,75.396
-19.764,980.148,73.688
-33.672,969.412,75.884
3.904,972.584,36.112
-5.124,985.028,54.9
-38.064,1000.888,51.24
-26.352,996.496,44.408
-37.332,984.296,83.936
-44.408,970.144,82.716
-21.716,965.264,54.168
-24.156,981.856,46.848
-7.564,995.032,16.836
-41.968,996.008,46.604
-29.28,996.496,49.532
-21.472,993.324,54.656
-36.844,985.76,75.64
-19.276,983.076,61.488
-5.124,981.124,61.244
-22.204,975.512,85.644
-55.632,977.22,93.94
-21.228,986.736,59.048
-23.424,1006.988,45.14
-44.164,1011.624,33.916
-26.108,1007.964,-8.296
-55.632,999.912,34.892
-57.828,982.344,49.288
-70.272,968.68,88.816
-56.852,964.288,94.428
-42.944,974.292,77.592
-7.32,993.324,46.36
-16.348,1004.548,54.412
-14.152,996.74,48.8
-28.548,989.176,72.224
-52.216,986.004,85.888
-56.12,1003.572,84.424
-20.252,1029.68,48.8
-32.94,1051.64,45.384
-65.636,1071.16,51.24
-71.736,1070.428,40.992
-105.408,1091.412,48.312
-162.504,1130.208,64.416
-119.316,1162.66,11.712
-172.264,1210.484,-7.32
-137.372,1271.484,-71.248
-190.808,1321.748,-96.136
-249.368,1377.624,-126.88
-182.268,1382.504,-110.532
-111.752,1364.936,-82.96
-65.392,1327.604,-18.544
7.076,1320.284,-48.556
-30.012,1316.868,7.564
94.184,1284.416,0.732
125.172,1239.276,-15.128
170.312,1188.524,24.644
182.024,1094.34,49.532
111.264,1015.04,77.104
302.316,893.772,31.72
224.236,792.512,-109.8
385.276,754.692,-51.728
586.82,657.58,127.856
351.604,418.704,48.068
530.7,352.58,45.872
647.82,270.596,143.716
652.456,118.828,128.832
724.68,2.44,67.588
793.244,-87.84,79.544
767.868,-128.588,236.924
817.4,-158.6,226.676
867.908,-225.212,215.94
902.556,-303.78,262.056
950.868,-213.988,234.484
975.268,-83.936,165.676
997.716,13.664,28.792
1037.732,71.248,-2.928
985.028,86.132,-3.172
911.828,148.84,16.592
856.44,153.72,120.536
844.972,179.096,183.244
917.44,226.92,232.044
935.252,254.004,425.536
1141.676,244.0,594.384
1219.024,138.348,683.444
1199.748,59.048,770.308
1197.064,7.564,840.336
1000.644,1.708,895.968
942.816,66.124,817.156
828.624,55.388,816.18
698.084,29.28,817.4
838.872,-30.744,701.256
661.972,-61.0,610.488
691.252,-39.772,490.928
607.804,-179.096,449.692
588.04,-264.984,309.148
557.052,-295.24,158.844
606.096,-223.26,-59.048
683.2,-208.132,-274.012
686.372,-139.568,-398.94
511.912,-114.68,-441.64
477.02,-98.088,-423.828
607.316,-132.248,-477.996
645.868,-168.36,-467.26
863.272,-203.74,-639.036
923.784,-205.448,-743.712
1002.108,-182.024,-867.176
1132.404,-157.136,-1012.112
1084.824,-112.484,-1041.636
1180.472,-141.032,-1022.36
1298.568,-284.992,-1074.82
1444.724,-373.564,-1141.432
1526.22,-408.944,-1160.708
1588.684,-393.084,-1184.864
1484.74,-408.7,-1123.864
1441.552,-412.36,-1055.056
1271.24,-450.912,-928.664
1209.752,-453.352,-776.652
1141.188,-496.052,-711.504
1047.98,-490.684,-546.56
879.864,-428.708,-417.484
803.98,-458.232,-234.24
659.288,-570.228,23.18
541.924,-607.316,136.884
434.564,-534.848,266.448
442.86,-416.508,331.108
403.332,-473.604,430.172
646.356,-577.548,582.184
587.796,-697.108,763.232
389.18,-663.68,838.14
382.104,-622.932,857.66
659.288,-584.38,914.024
894.26,-662.216,891.332
989.42,-777.14,961.848
994.3,-833.992,878.156
1001.376,-808.372,797.392
1253.428,-684.176,803.492
1181.692,-744.932,871.324
1103.124,-889.868,1005.036
1384.456,-957.456,952.088
1356.152,-1021.872,904.752
1406.66,-1016.26,761.524
1505.968,-960.14,760.548
1503.284,-993.324,660.264
1372.744,-999.18,513.62
1291.004,-950.136,362.828
1418.128,-872.3,123.464
1622.844,-861.808,-89.548
1592.344,-855.22,-200.812
1231.224,-882.06,-189.344
1293.688,-793.0,-237.412
1297.592,-760.792,-384.544
1206.58,-703.696,-510.204
992.104,-615.612,-546.56
1034.072,-501.908,-559.248
975.024,-520.94,-520.452
978.928,-533.872,-572.18
855.22,-487.512,-481.168
775.676,-460.184,-426.756
766.648,-420.656,-369.904
873.276,-349.652,-413.336
813.74,-274.256,-385.032
800.076,-273.036,-236.436
761.768,-346.724,-122.976
817.644,-395.28,-31.72
870.592,-425.536,63.196
883.28,-431.392,121.268
876.692,-416.264,66.856
882.548,-391.864,117.608
916.952,-376.736,122.732
927.688,-429.44,253.028
979.172,-489.708,287.188
1046.516,-511.668,259.372
1062.132,-520.452,293.288
1271.728,-533.872,185.684
1188.036,-539.972,291.336
1250.012,-487.512,293.532
1387.628,-455.792,186.904
1535.736,-450.668,178.608
1473.028,-424.804,167.14
1442.772,-408.456,162.016
1652.368,-398.452,17.812
1731.668,-394.792,72.712
1656.028,-301.34,122.0
1496.208,-178.364,19.764
1220.732,28.06,1.464
1266.848,198.616,-179.34
1128.744,363.804,-219.6
1002.352,412.116,-176.168
1038.708,496.54,-296.216
1042.368,552.66,-432.368
878.644,656.604,-187.88
715.408,621.956,-176.9
480.192,651.236,-166.408
519.476,665.876,-133.956
523.38,679.54,-135.664
391.62,629.52,46.116
339.892,558.272,84.912
201.056,531.432,188.124
174.46,544.608,145.668
95.892,570.96,202.764
166.408,573.156,153.964
117.852,574.376,181.048
-61.732,600.24,295.728
-152.988,645.868,424.804
-169.336,671.244,371.368
-82.96,660.996,318.908
-159.82,725.412,323.544
-227.164,769.332,311.344
-363.804,779.092,342.82
-285.968,770.308,375.272
-220.088,735.172,358.68
-164.7,761.28,243.268
-147.132,843.752,244.244
-196.176,889.136,250.588
-149.572,882.548,190.808
-111.752,883.524,190.076
-118.096,937.448,178.608
-121.268,983.808,101.504
-164.7,995.032,130.54
-120.78,967.216,132.98
-98.576,948.916,129.564
-106.628,964.532,156.16
-87.596,953.308,162.016
-113.948,956.724,177.876
-119.804,964.776,120.536
-119.316,953.308,115.656
-127.124,945.012,104.188
-112.972,946.476,93.452
-35.624,952.088,70.76
-95.404,971.364,114.192
-91.744,980.636,88.816
-88.572,993.324,98.088
-42.212,993.568,79.788
-20.984,996.252,57.34
-24.888,1002.84,34.16
-57.828,1005.768,71.248
-71.004,998.448,53.436
-101.504,1001.62,61.732
-74.176,1001.864,83.936
-61.732,1000.156,57.34
-60.024,1001.132,69.54
-26.84,988.932,44.896
-20.74,988.444,34.648
-20.984,986.492,57.584
-70.028,980.392,95.404
-53.436,952.332,86.62
-16.592,954.04,55.876
-56.608,962.824,76.372
-75.152,972.096,71.736
-64.66,991.128,52.216
-60.024,1003.328,38.308
-63.196,996.984,48.556
-78.08,996.74,37.332
-65.636,1004.792,16.836
-58.316,1001.376,14.884
-12.932,996.008,-12.932
-6.1,1000.888,-30.256
-45.872,995.032,27.084
-88.816,984.052,47.336
-56.12,976.976,45.384
-31.72,994.544,48.8
-25.376,996.008,56.364
-20.252,987.224,60.756
-50.752,972.096,68.32
-50.996,967.46,69.052
-35.624,976.976,67.344
-52.216,982.344,90.036
-50.752,980.392,64.66
-51.484,979.172,76.616
-73.932,978.928,76.86
-62.464,980.392,53.68
-44.164,987.224,38.308
-65.148,991.616,62.952
-76.372,987.468,63.684
-68.32,973.804,52.216
-86.62,970.388,73.688
-65.392,973.316,63.684
-68.564,982.588,57.828
-64.416,991.128,50.02
-47.092,995.276,22.936
-56.12,999.668,41.236
-49.288,998.936,31.232
-18.056,994.544,13.664
-33.184,997.96,43.676
-57.584,988.2,66.612
-69.784,980.148,69.296
-60.512,975.268,67.1
-62.952,976.732,76.616
-49.532,987.224,52.46
-53.924,983.808,64.416
-81.008,971.12,88.816
-89.792,961.116,76.86
-76.128,972.34,57.34
-93.94,982.1,67.1
-97.844,986.736,63.928
-81.74,985.028,40.504
-56.608,989.42,26.84
-40.26,1004.304,17.08
-24.888,1012.844,11.224
-42.7,1006.5,35.868
-57.096,987.956,55.632
-68.076,979.172,82.716
-81.496,968.68,87.596
-74.176,967.46,71.248
-49.776,984.296,52.704
-67.344,984.54,58.072
-84.912,976.732,62.464
-90.768,974.536,71.736
-80.52,976.488,63.196
-63.196,979.904,45.628
-23.424,994.544,-5.856
-38.796,1013.332,16.592
-41.236,1015.04,19.032
-59.536,1012.356,44.164
-62.952,1001.62,66.612
-60.024,987.956,64.66
-36.6,989.664,37.088
-46.604,993.324,47.336
-49.288,998.448,60.512
-55.876,988.932,53.192
-67.1,978.196,76.616
-67.1,972.828,62.952
-70.272,970.876,67.1
-82.96,974.292,71.248
-71.492,975.024,59.048
-92.72,973.316,81.74
-91.5,974.048,75.152
-76.372,975.756,60.512
-62.464,987.224,59.048
-64.66,1003.816,48.068
-52.46,1010.16,39.04
-63.196,1019.188,49.776
-107.604,1034.804,65.636
-107.848,1065.304,53.192
-140.3,1108.004,73.688
-80.032,1134.112,44.164
-119.804,1186.816,51.728
-213.988,1270.752,71.98
-337.696,1352.736,41.236
-258.396,1375.428,40.748
-224.236,1395.68,11.224
-145.18,1423.252,-63.684
-66.612,1455.46,-69.54
-222.04,1435.696,3.172
-222.284,1368.108,77.592
125.172,1292.712,39.528
143.716,1254.404,77.836
2.928,1213.168,61.0
-179.096,1115.568,122.732
-19.764,989.176,33.428
653.92,919.636,-317.444
184.708,794.464,216.428
50.02,560.468,277.428
381.616,218.868,-183.488
226.188,214.964,134.444
460.672,122.244,25.132
502.152,-83.692,137.128
646.6,-246.196,193.98
719.8,-346.236,279.136
792.024,-266.204,316.224
1007.964,-129.564,299.144
1168.272,16.348,292.068
1175.592,102.724,368.684
1269.532,176.412,548.268
1317.6,220.576,660.264
1391.532,215.208,651.968
1365.912,201.056,729.072
1180.96,140.544,844.972
1018.7,70.028,900.36
880.352,53.436,939.644
751.52,-7.808,970.144
864.248,-191.052,920.612
887.184,-233.752,783.24
866.932,-160.064,550.952
648.064,-85.156,518.5
390.644,-48.8,431.148
201.056,-44.408,414.312
148.84,-178.364,390.644
327.936,-217.16,189.832
270.596,-243.512,27.328
191.784,-289.628,-83.448
360.876,-196.176,-157.868
343.552,-219.112,-302.56
478.972,-183.488,-479.46
642.452,-111.02,-654.408
708.82,-72.712,-730.536
737.368,-62.708,-773.724
814.716,-92.964,-904.996
958.676,-100.04,-988.2
1021.384,-141.032,-1116.788
1075.308,-142.008,-1168.028
1141.432,-204.716,-1150.46
1355.664,-348.188,-1281.0
1569.408,-369.66,-1347.612
1589.904,-363.804,-1348.588
1619.916,-396.012,-1345.416
1567.944,-444.08,-1269.288
1639.68,-477.264,-1218.78
1514.02,-530.212,-1021.14
1384.212,-577.792,-850.584
1140.7,-648.308,-575.108
993.324,-691.008,-444.324
793.488,-711.26,-210.084
572.668,-707.844,37.82
446.032,-676.368,205.448
420.656,-761.768,357.216
413.824,-741.028,493.368
357.948,-611.708,612.44
194.468,-576.816,728.096
240.34,-636.596,905.728
428.22,-736.148,1069.696
606.34,-783.24,1157.536
693.936,-840.58,1108.248
952.332,-891.576,1151.436
764.452,-968.436,1267.336
1089.46,-942.084,1278.072
1011.624,-1068.72,1238.544
1372.256,-1016.992,1108.492
1466.196,-998.936,978.44
1683.112,-935.74,807.396
1656.028,-922.076,700.768
1612.352,-911.584,693.692
1394.216,-919.636,684.176
1420.812,-1025.776,631.228
1699.216,-1003.328,354.044
1706.292,-969.412,223.26
1586.244,-984.784,98.088
1329.312,-949.648,-35.38
1398.12,-836.92,-86.132
1413.736,-789.34,-250.344
1360.056,-711.504,-465.552
1165.344,-620.492,-528.26
1203.408,-457.988,-673.196
1194.624,-386.252,-810.812
1006.256,-335.744,-751.032
861.076,-310.612,-702.232
732.488,-357.704,-506.788
671.732,-373.076,-392.108
749.568,-378.932,-267.424
787.144,-398.452,-351.116
907.68,-387.716,-354.288
931.348,-356.484,-177.632
961.848,-376.004,-100.528
1162.172,-467.26,18.056
1437.16,-608.048,87.596
1747.772,-605.852,12.932
1842.688,-588.284,227.408
1937.116,-635.132,293.044
1779.004,-603.168,244.732
1870.748,-528.26,94.428
1812.432,-462.38,121.268
1493.28,-351.848,269.132
1457.9,-284.992,88.816
1342.0,-207.156,135.176
1308.572,-189.1,121.512
1164.856,-179.34,111.508
854.976,-73.2,139.08
599.996,38.552,155.428
545.34,131.76,199.592
450.424,245.22,213.988
374.784,345.504,101.016
141.764,514.596,116.876
86.864,570.96,192.516
131.516,543.388,176.656
104.432,514.596,271.084
-39.772,532.896,301.34
-218.38,621.468,355.508
-201.544,711.748,328.912
-72.712,757.864,165.432
-104.676,769.088,377.712
-98.82,728.584,315.492
-149.328,717.36,344.04
-185.928,738.344,390.4
-113.704,770.064,353.8
47.824,801.296,213.012
-49.288,835.212,304.268
-90.036,819.596,340.624
-178.608,805.688,375.272
-86.62,798.368,327.204
-86.132,836.676,255.712
-51.484,904.996,195.2
-122.0,940.864,223.26
-139.324,957.212,158.112
-186.416,941.352,194.468
-184.22,912.56,172.996
-122.0,908.656,113.704
-100.04,924.272,84.18
-112.972,954.284,41.48
-112.484,981.612,13.664
-105.652,996.252,-14.396
-74.176,1015.772,-77.104
-107.848,1023.336,-6.1
-143.716,1003.084,38.796
-113.216,962.58,91.256
-72.468,934.764,137.86
-90.28,921.588,159.82
-78.568,928.176,133.956
-31.72,940.132,51.24
-50.264,964.776,61.732
-60.024,986.004,40.016
-73.688,990.396,75.64
-35.136,984.784,86.62
-57.34,986.736,84.912
-81.984,985.028,109.8
-87.84,979.416,120.536
-104.432,979.66,72.712
-82.96,1021.384,48.068
-14.884,1033.096,20.008
-3.172,1024.312,6.588
24.156,1027.484,-30.012
-26.108,1036.268,18.056
-54.168,1015.772,48.8
-59.048,990.396,83.936
-56.608,968.192,103.7
-62.952,952.088,101.748
-61.976,955.748,74.908
-50.508,979.416,68.076
-53.436,972.584,81.74
-84.424,955.26,80.764
-83.204,950.38,88.572
-40.748,971.608,55.632
-43.432,986.004,45.872
-49.776,997.228,24.156
-34.404,1001.376,-4.148
-49.776,1008.696,2.928
-49.532,1004.06,0.976
-50.508,1000.644,14.64
-62.22,994.788,41.724
-61.732,983.076,48.312
-52.948,982.588,55.144
-50.752,980.148,58.316
-54.656,981.612,69.296
-52.46,984.784,61.976
-68.564,985.028,85.156
-61.732,976.0,84.912
-59.536,981.368,76.128
-66.856,983.32,68.808
-50.508,981.612,39.04
-21.96,985.272,13.664
-38.064,990.396,31.72
-62.464,976.732,41.968
-71.736,977.464,46.604
-41.724,986.248,29.28
-45.872,998.448,31.72
-30.988,1002.84,23.912
-10.004,1012.112,12.2
-19.764,1007.232,37.576
-25.376,991.86,35.38
-44.652,977.952,56.12
-49.288,968.924,69.54
-70.028,972.34,73.2
-50.752,982.832,38.796
-53.924,992.104,36.6
-61.244,990.64,36.844
-45.14,990.152,16.836
-60.268,989.908,47.092
-73.444,976.976,52.704
-65.392,973.316,47.824
-40.748,981.124,29.28
-46.848,986.248,42.212
-61.0,985.516,36.356
-36.844,986.98,17.812
-3.66,988.444,-0.732
-26.352,1013.088,6.344
-61.0,1017.236,32.208
-83.936,1003.572,49.532
-71.004,990.884,54.412
-49.532,986.736,26.352
-52.46,997.716,39.772
-59.78,990.396,44.652
-70.028,976.976,44.164
-61.732,973.56,53.68
-71.492,982.832,76.616
-69.296,972.34,61.732
-68.808,968.924,58.56
-53.924,979.904,50.02
-57.34,990.64,41.724
-39.04,996.496,17.568
-40.26,1005.524,33.916
-53.924,997.472,42.7
-61.732,991.128,47.092
-50.996,987.712,31.232
-45.384,992.836,37.332
-44.652,987.956,44.896
-51.728,983.32,37.576
-70.028,977.708,68.564
-56.12,976.488,60.024
-49.288,977.708,50.264
-50.996,981.124,56.364
-50.508,986.736,46.604
-52.704,984.296,47.824
-50.264,989.664,41.236
-54.656,995.52,42.7
-57.828,996.496,34.16
-61.732,998.204,41.236
-64.904,989.176,46.848
-57.828,983.32,36.6
-68.808,989.42,48.312
-66.856,997.96,42.7
-62.708,1005.524,41.48
-61.976,1026.508,38.064
-77.836,1057.984,56.364
-115.656,1108.736,73.2
-194.956,1171.2,84.912
-139.324,1222.196,16.592
-169.336,1311.256,-78.812
-172.752,1401.536,-163.724
-233.264,1429.596,-185.928
-403.82,1421.788,-111.752
-319.884,1398.364,-99.796
-108.092,1349.808,-63.684
-97.844,1322.724,-17.08
-207.4,1353.224,-29.768
-127.856,1353.712,33.184
-244.976,1208.776,51.972
-58.072,1145.336,-19.032
60.268,942.328,-29.768
303.048,764.94,27.572
512.644,632.692,18.3
338.672,469.944,24.644
309.392,395.768,142.74
609.756,223.992,-119.56
576.572,81.252,231.068
674.172,-50.508,121.756
767.868,-58.072,173.24
852.048,-48.8,209.84
943.06,-1.952,439.688
1082.872,56.364,603.412
1159.976,238.144,935.008
1239.032,365.512,1115.324
1499.868,226.188,1208.532
1479.372,38.064,1395.192
1281.0,-181.536,1488.888
1107.76,-286.456,1457.9
791.536,-299.876,1320.528
421.876,-308.904,1147.288
266.204,-303.536,943.06
210.084,-238.876,685.884
132.736,-219.844,372.832
-71.248,-161.04,152.988
-160.308,-127.856,-32.94
-72.468,-171.776,-161.284
158.6,-185.44,-358.192
412.36,-260.836,-745.664
546.804,-195.444,-860.344
713.456,-114.436,-959.164
750.056,-94.428,-1015.772
863.76,-117.852,-1119.472
806.908,-120.292,-1162.172
789.34,-62.952,-1126.792
801.784,-131.516,-1125.816
936.716,-185.684,-1176.08
1067.988,-239.852,-1282.464
1169.98,-313.052,-1314.672
1451.068,-392.108,-1377.38
1524.024,-438.224,-1422.52
1751.92,-449.692,-1460.096
1675.06,-489.952,-1313.208
1581.12,-471.896,-1169.736
1468.148,-544.608,-953.308
1259.284,-614.148,-777.628
946.476,-615.612,-528.26
793.244,-644.648,-404.308
696.864,-722.728,-98.82
660.508,-842.044,189.832
456.768,-942.816,518.5
77.836,-809.348,694.424
277.672,-842.044,793.976
616.344,-915.976,795.196
633.424,-990.396,1026.508
337.208,-951.844,1221.464
346.724,-907.924,1380.796
754.204,-905.728,1420.812
1073.356,-890.844,1333.46
896.7,-937.692,1454.484
628.3,-968.192,1442.772
1120.692,-905.24,1390.556
1464.732,-943.548,1059.448
1648.464,-958.92,921.832
1411.296,-975.756,924.272
1341.512,-924.272,862.052
1692.628,-872.544,772.992
1841.468,-804.224,558.028
1770.22,-827.648,391.864
1557.208,-869.616,266.448
1522.072,-904.752,163.236
1636.508,-932.568,14.396
1599.176,-900.36,-99.064
1369.816,-835.7,-303.048
1294.42,-750.788,-478.972
1276.364,-620.492,-605.364
1017.968,-493.612,-560.956
998.692,-429.684,-543.876
1029.68,-386.496,-505.08
923.296,-352.58,-429.684
821.548,-362.34,-355.264
875.228,-351.116,-461.648
830.332,-304.268,-441.152
860.588,-305.0,-387.472
846.192,-325.984,-301.096
782.752,-361.852,-140.056
845.46,-370.636,-45.384
829.356,-357.216,-35.38
783.728,-305.0,50.02
844.24,-280.844,59.048
838.872,-264.252,112.24
877.912,-249.612,178.608
909.144,-261.568,220.088
1023.58,-322.324,216.184
1230.248,-388.448,220.332
1463.024,-441.396,201.3
1594.296,-450.424,266.448
1691.164,-449.936,204.472
1664.568,-397.964,146.644
1614.06,-357.46,108.58
1606.984,-332.572,131.028
1592.344,-358.924,73.2
1596.248,-302.316,112.972
1604.788,-260.348,54.412
1680.672,-236.68,-39.04
1417.884,-123.708,100.772
1197.796,-9.028,143.228
1133.136,88.572,-0.488
981.124,182.268,31.476
962.58,336.72,-63.928
896.944,448.472,-86.62
826.428,546.804,-26.596
812.764,490.928,18.544
666.12,453.108,18.056
593.164,503.86,118.096
350.628,558.516,170.068
254.492,606.096,178.852
241.56,603.656,189.344
206.912,634.888,164.456
73.932,681.492,251.564
44.164,719.068,284.26
42.7,709.552,300.364
18.544,701.012,304.268
9.028,708.82,278.404
-88.816,714.188,367.952
-82.472,714.432,375.028
41.968,716.628,333.304
34.648,714.676,284.992
-90.524,762.256,339.892
-85.156,794.464,328.424
-85.156,796.904,282.064
-78.324,853.024,279.136
-76.128,879.132,273.036
-155.428,876.692,271.816
-60.512,856.928,196.42
-59.292,864.736,151.524
-141.032,859.368,238.876
-155.184,833.992,235.46
-168.604,846.192,235.46
-168.116,894.992,226.92
-147.864,892.796,201.544
-127.612,908.656,125.416
-188.856,919.636,138.836
-199.592,892.796,150.06
-116.876,847.9,102.968
-186.416,863.272,160.796
-158.6,865.956,142.74
-107.604,925.004,81.984
-83.204,967.46,55.632
-117.12,997.716,17.08
-125.904,991.372,41.48
-151.524,969.9,63.196
-167.872,948.672,46.116
-146.644,938.912,91.256
-111.996,955.504,104.188
-128.588,959.896,92.72
-158.356,954.284,128.832
-103.456,954.284,98.332
-74.176,964.044,66.368
-90.768,962.336,97.844
-107.36,955.748,108.092
-103.212,965.752,96.38
-90.768,982.344,71.492
-90.768,991.86,52.948
-63.196,1037.976,-6.588
8.296,1056.276,-64.172
-29.036,1066.768,-43.676
-68.076,1056.276,-1.22
-95.648,1011.624,75.152
-81.008,972.828,91.5
-53.192,970.632,81.252
-32.208,985.516,38.064
-99.064,993.08,41.724
-161.528,983.808,45.872
-161.04,966.728,49.776
-160.796,951.6,63.196
-124.684,949.892,45.384
-147.864,959.652,51.972
-149.084,949.648,57.096
-146.644,951.6,43.92
-146.156,962.58,37.82
-149.816,960.872,47.092
-134.2,958.188,27.328
-93.208,983.564,7.564
-108.824,998.692,30.256
-120.048,980.88,41.968
-126.636,966.972,47.336
-132.248,977.464,59.536
-100.772,987.712,30.988
-99.308,999.668,19.52
-102.48,1013.088,2.928
-116.876,1018.212,-1.952
-119.316,1007.72,4.636
-121.756,992.348,2.684
-127.612,980.392,11.468
-114.924,972.34,1.952
-111.752,969.412,4.148
-135.42,963.8,35.136
-152.012,955.748,50.752
-149.084,966.484,57.096
-126.88,973.804,44.652
-99.552,985.516,15.616
-124.684,983.32,21.716
-141.276,969.656,31.72
-127.856,970.876,31.964
-131.76,974.536,44.164
-136.884,968.924,41.48
-128.832,966.972,28.06
-120.292,978.196,15.372
-93.94,984.784,1.952
-81.496,991.86,-16.348
-91.256,998.936,-5.124
-118.828,995.764,15.86
-126.392,982.1,22.936
-120.048,978.44,27.328
-120.292,979.66,20.496
-118.34,979.172,18.3
-127.124,980.392,14.64
-133.468,973.316,31.964
-119.804,974.292,14.884
-130.54,975.756,28.548
-137.616,972.584,45.14
-154.94,967.216,43.188
-142.496,976.0,33.428
-118.096,986.248,16.104
-112.24,1000.4,9.516
-84.424,1001.376,-30.256
-110.532,1006.012,11.956
-128.344,1000.888,33.672
-130.784,982.344,43.188
-130.052,981.612,57.34
-115.9,979.66,35.868
-87.352,977.22,9.76
-98.088,975.268,18.3
-119.56,970.632,35.38
-124.196,961.604,33.184
-115.412,966.484,46.848
-128.1,971.608,54.9
-118.34,974.048,32.94
-108.58,976.732,18.3
-132.492,977.708,30.256
-142.008,976.0,18.544
-132.98,979.416,4.636
-131.76,982.832,10.492
-136.396,986.492,8.296
-131.516,993.08,7.32
-132.736,988.688,26.352
-138.836,974.048,30.5
-123.464,974.292,28.548
-117.608,973.072,38.308
-126.392,965.508,38.064
-134.932,966.484,47.58
-124.928,976.976,14.884
-104.92,993.812,0.732
-97.844,1004.06,4.88
-110.044,998.692,12.2
-114.68,985.516,26.108
-117.12,974.78,42.212
-115.9,976.0,38.552
-114.68,971.12,40.016
-119.56,967.216,46.848
-126.392,960.384,38.796
-137.372,967.46,48.068
-138.348,971.12,50.508
-115.9,973.316,6.344
-116.632,985.76,23.18
-127.612,987.956,28.304
-135.176,981.856,29.28
-123.952,982.344,29.524
-114.924,987.468,15.128
-103.944,992.104,2.928
-108.092,992.836,1.22
-114.192,987.956,17.08
-112.972,975.512,20.74
-120.048,974.536,22.204
-107.36,977.22,20.496
-113.216,980.636,27.816
-133.224,973.56,39.772
-133.956,966.484,48.068
-132.492,967.948,43.188
-133.224,977.952,48.312
-127.124,989.176,30.5
-124.44,1005.28,27.084
-139.568,1020.896,27.084
-136.152,1038.22,15.86
-149.084,1085.556,0.732
-144.204,1136.064,-8.296
-185.684,1203.896,-40.992
-375.516,1276.852,-54.168
-380.884,1329.312,-91.012
-314.516,1356.884,-115.168
-224.236,1387.872,-164.944
-315.248,1386.896,-115.168
-460.428,1394.704,-60.512
-557.54,1384.456,-17.812
-168.116,1299.056,-115.9
-172.752,1243.18,-136.152
-151.524,1167.54,-93.208
-234.972,1050.176,-167.14
-145.912,856.196,-72.712
45.628,682.224,-18.056
369.904,508.984,-51.24
678.564,403.332,-153.964
640.988,403.576,-13.664
498.492,388.936,332.328
610.244,465.552,402.112
855.952,599.264,542.412
1043.588,495.808,632.936
1053.836,334.524,937.204
1171.444,85.644,1067.5
1087.264,-152.256,1150.948
1040.904,-228.14,1241.472
926.224,-284.992,1178.52
749.08,-279.624,1158.512
512.156,-305.488,1117.764
510.448,-348.676,965.508
416.752,-368.928,782.996
376.736,-350.628,597.312
253.516,-318.42,364.78
136.152,-195.2,174.948
49.532,-97.112,-42.212
184.952,-2.44,-245.952
262.544,-17.324,-524.6
270.596,-38.308,-654.408
574.62,-32.94,-892.064
598.776,-60.268,-912.804
822.036,-52.704,-1136.796
1048.224,-16.348,-1436.916
944.28,57.828,-1333.704
990.396,98.82,-1404.464
958.188,85.156,-1455.704
965.752,111.508,-1495.476
879.864,96.136,-1418.616
873.276,57.096,-1262.944
902.8,-85.4,-1119.228
1111.908,-215.696,-1029.924
1363.716,-322.812,-990.884
1429.596,-409.92,-846.192
1404.952,-433.832,-748.592
1445.7,-521.916,-607.072
1168.028,-564.128,-350.14
1041.636,-517.524,-213.5
964.776,-447.984,-190.32
848.876,-453.596,-193.004
697.352,-530.212,-44.408
608.536,-539.972,72.224
479.948,-506.544,259.616
553.392,-596.824,378.932
617.564,-669.292,428.708
702.72,-562.176,473.604
726.876,-501.176,518.012
689.788,-515.816,611.952
319.152,-644.16,864.736
674.904,-701.256,975.024
1234.884,-794.708,855.952
1663.592,-707.112,845.216
1430.084,-747.86,1109.468
1161.684,-753.96,1302.716
1405.44,-760.304,1331.02
1860.012,-777.14,1110.932
1995.188,-794.708,879.62
1640.9,-787.144,833.26
1682.624,-651.724,668.072
1864.648,-599.508,592.188
1839.76,-712.968,428.464
1865.624,-753.96,210.084
1712.636,-638.792,19.032
1551.84,-492.392,-140.056
1675.548,-459.696,-364.292
1529.636,-472.628,-355.02
1335.412,-515.572,-218.136
1241.228,-560.224,-245.952
1168.516,-598.776,-357.704
1099.708,-596.58,-403.82
1125.328,-545.34,-497.76
1032.852,-477.264,-478.484
959.408,-396.256,-382.836
927.444,-302.804,-350.628
907.924,-197.884,-278.892
939.156,-183.732,-272.06
1006.256,-208.376,-321.348
954.284,-205.448,-202.276
891.088,-243.268,-54.9
821.06,-306.464,68.076
832.04,-335.012,126.392
823.5,-316.468,116.144
1068.72,-324.764,60.024
1305.644,-340.624,97.6
1533.052,-394.06,125.416
1506.7,-374.052,295.728
1611.864,-347.212,271.328
1628.7,-297.436,248.88
1889.292,-300.852,27.572
1691.896,-229.848,277.672
1597.712,-220.82,286.456
1372.5,-116.144,235.216
1394.216,-40.26,160.552
1389.092,49.532,94.428
1603.812,40.016,-43.92
1253.672,89.06,165.92
862.784,247.172,203.252
664.412,447.496,150.792
719.312,527.04,26.596
886.208,564.128,-122.732
764.208,565.592,60.268
537.044,581.94,196.42
358.68,579.744,131.516
376.736,631.228,79.3
358.192,714.92,76.86
370.392,757.864,73.2
432.612,730.048,40.504
274.012,723.216,148.596
153.476,722.24,276.208
103.456,693.692,264.74
22.448,710.772,244.732
9.516,753.228,211.06
-56.608,759.816,245.952
-108.824,744.932,275.232
-73.2,740.54,297.924
24.644,745.176,255.956
44.896,754.936,260.836
-49.776,776.164,302.072
-178.364,761.768,411.872
-196.664,757.62,372.588
-117.608,771.772,290.116
45.628,814.716,160.308
9.516,875.716,74.42
-69.784,925.492,32.208
-91.256,938.912,0.0
-110.776,921.588,6.832
-59.78,909.876,-1.464
-17.812,913.536,14.64
-34.404,909.388,47.336
-66.856,891.576,72.468
-122.976,894.992,105.408
-157.136,907.68,131.028
-83.448,889.136,116.876
-18.056,882.548,97.844
-53.924,884.988,93.208
-125.904,906.704,100.772
-134.688,904.508,93.208
-97.6,902.8,64.904
-124.928,888.892,86.132
-130.54,893.04,78.568
-71.736,924.272,46.36
-64.66,959.164,34.16
-22.936,995.276,-0.244
-62.464,1014.552,-2.44
-102.724,1006.744,19.276
-75.64,1006.5,9.272
-35.38,1000.156,26.352
-38.308,981.368,50.508
-37.82,983.32,58.56
-1.22,995.032,22.448
27.084,1019.188,-5.124
2.196,1047.98,-2.684
-35.624,1043.1,-1.22
-49.776,1018.944,21.96
-42.7,997.96,36.356
-48.8,982.344,46.848
-48.8,980.636,48.556
-34.892,981.368,44.408
-26.596,988.444,50.264
-19.764,990.884,49.776
-27.328,989.176,46.848
-40.992,984.296,59.536
-30.012,967.704,60.024
-26.84,970.876,55.876
-40.748,977.952,47.58
-22.936,975.512,15.372
-8.296,1003.328,20.252
-26.352,1003.084,20.008
-51.728,989.908,35.38
-64.416,993.812,47.336
-42.212,988.688,23.18
12.444,1003.816,-19.032
-12.688,1021.872,3.172
-31.72,1008.94,19.032
-59.536,993.08,38.064
-49.288,983.076,39.772
-37.332,988.2,28.304
-49.776,993.568,30.744
-27.816,992.836,16.104
-20.984,980.636,9.028
-41.724,975.756,45.628
-14.396,974.292,24.644
7.076,982.588,3.416
-11.468,991.128,27.572
-40.26,993.568,30.012
-47.58,986.492,26.596
-43.676,985.516,29.036
-52.216,990.396,34.16
-35.624,995.032,1.952
-29.524,992.836,8.784
-50.264,990.396,35.136
-82.96,986.98,40.016
-76.86,981.856,42.456
-63.684,985.028,24.4
-23.18,994.544,-6.344
-20.252,1001.62,-9.76
-37.576,998.936,9.272
-58.072,985.76,19.52
-57.096,982.588,31.964
-48.068,990.152,22.936
-54.9,985.76,24.4
-43.92,983.564,16.592
-45.384,975.268,19.52
-61.976,963.312,31.476
-63.44,971.12,34.892
-22.204,977.22,10.248
-35.624,984.052,28.06
-50.752,989.42,32.696
-42.456,984.54,21.96
-44.652,986.492,24.4
-26.108,999.668,0.976
-9.028,1009.428,-13.42
-13.664,1012.356,-10.492
-37.82,1004.548,5.124
-30.012,997.228,7.32
-26.352,997.472,21.472
-34.892,981.612,33.916
-40.748,975.756,20.74
-34.648,975.268,26.596
-43.92,968.192,38.796
-43.92,964.288,33.184
-25.62,980.148,4.392
-33.428,998.204,14.396
-40.992,1003.084,7.32
-56.608,992.836,14.64
-54.412,987.224,21.96
-47.092,989.176,9.028
-41.48,989.176,10.98
-36.112,988.932,1.708
-45.14,987.712,14.64
-39.284,994.056,25.864
-39.772,989.908,38.796
-48.556,982.588,37.576
-54.412,984.052,41.968
-52.948,975.268,35.868
-46.604,968.68,26.352
-31.232,980.88,12.444
-38.308,982.344,27.084
-31.476,986.736,6.832
-35.38,991.86,14.884
-48.8,997.472,21.716
-24.156,997.716,0.976
-30.5,1003.084,11.956
-32.696,998.936,0.488
-36.844,991.128,7.808
-28.06,992.104,18.544
-38.796,984.296,29.036
-43.92,982.588,42.212
-50.508,978.44,43.92
-33.428,979.172,40.504
-42.456,981.612,51.484
-44.896,991.86,40.016
-19.032,996.496,30.744
-18.544,1009.184,31.476
-24.4,1031.876,35.624
-28.304,1068.72,40.016
-41.48,1095.56,52.948
-77.104,1141.92,43.676
-47.58,1184.62,18.544
-80.52,1235.128,-21.472
-179.584,1285.636,-48.312
-226.92,1320.284,-59.292
-231.068,1323.212,-101.016
-158.844,1315.892,-122.0
-151.036,1316.624,-142.496
-310.124,1356.152,-100.04
-331.596,1324.676,-66.612
-345.992,1308.816,-86.864
-172.02,1311.988,-118.584
-148.596,1212.924,-38.796
-192.028,1144.116,18.056
-245.952,1028.948,31.72
-283.04,972.584,3.904
-195.688,868.152,-59.78
-70.76,816.424,-283.772
-232.288,610.976,-154.94
-40.504,348.676,-9.76
172.508,112.24,244.244
162.992,-267.668,331.352
566.08,-274.744,293.288
613.66,-200.568,128.344
700.768,-76.86,119.072
951.6,-12.2,413.824
1138.26,-69.296,526.796
1314.916,-69.784,602.68
1389.092,-41.968,748.592
1511.336,134.2,882.548
1615.524,266.692,939.156
1536.224,266.448,1020.896
1405.684,137.616,1084.336
1260.992,-3.904,1154.12
1114.348,-62.464,1178.032
961.36,-108.58,1075.796
669.048,-114.436,989.176
582.428,-105.164,854.244
404.552,-140.544,705.16
216.184,-129.076,555.832
186.904,-63.684,335.5
152.744,-61.732,143.716
164.212,-50.752,28.548
231.556,-37.82,-116.876
208.864,-56.12,-250.344
341.112,-1.708,-468.724
392.84,29.524,-521.428
481.168,-9.516,-620.492
767.136,-59.292,-776.408
941.352,-88.572,-916.464
1039.928,-49.044,-1091.168
1144.116,-0.488,-1107.76
1180.472,-23.424,-1095.804
1221.952,-55.144,-1170.468
1245.62,-39.284,-1247.328
1159.488,27.084,-1245.62
1164.612,79.056,-1213.656
1257.576,58.316,-1206.824
1262.456,-9.516,-1160.464
1279.78,-85.888,-1083.848
1147.044,-176.9,-900.848
1060.912,-239.12,-740.784
993.568,-296.46,-559.492
867.176,-343.796,-498.248
768.112,-379.176,-437.736
771.284,-397.232,-297.436
802.76,-424.316,-167.628
777.14,-520.208,82.96
752.496,-610.244,281.088
798.856,-652.7,307.196
854.732,-644.16,329.4
646.112,-492.148,548.268
551.928,-537.288,736.88
590.236,-618.296,974.78
848.144,-678.808,937.692
1071.648,-701.988,859.856
1179.984,-650.748,822.768
1247.328,-575.596,876.692
1218.048,-593.408,1019.188
1057.984,-701.256,1018.456
1395.68,-729.56,932.812
1647.488,-775.676,931.104
1762.412,-784.46,843.508
1712.392,-765.184,774.456
1456.192,-743.224,753.472
1717.028,-686.372,544.608
1803.16,-717.36,447.984
1722.152,-772.992,354.532
1454.24,-815.936,376.736
1519.144,-791.536,186.172
1553.548,-678.808,-44.896
1498.648,-598.044,-215.208
1277.584,-570.716,-331.84
1080.432,-534.604,-381.616
976.976,-551.196,-321.592
950.136,-651.48,-336.232
992.348,-662.46,-436.76
865.468,-584.38,-452.864
817.888,-413.336,-500.688
940.62,-305.976,-567.3
987.712,-272.792,-524.356
956.724,-264.984,-460.428
900.604,-287.432,-306.952
845.948,-292.312,-293.044
912.072,-292.8,-270.84
1053.836,-286.212,-240.828
1135.82,-282.064,-143.96
1195.112,-304.512,-93.452
1175.836,-303.292,-48.312
1161.928,-284.26,25.376
1212.68,-272.304,86.376
1371.768,-289.384,10.98
1471.808,-384.3,76.616
1554.524,-435.54,162.748
1454.972,-489.22,280.844
1545.984,-484.828,292.8
1655.296,-522.16,157.868
1597.712,-457.012,211.06
1504.504,-292.068,148.108
1401.78,-248.636,50.752
1467.172,-251.564,3.904
1458.144,-247.416,71.492
1207.068,-126.636,194.468
1035.048,0.244,217.648
1185.108,60.512,70.516
1239.032,179.828,106.872
1132.892,240.828,302.316
984.784,224.724,279.136
797.636,243.024,388.936
827.892,258.396,357.948
867.176,267.424,270.84
594.384,300.608,382.836
441.396,330.864,332.328
190.076,418.216,379.42
76.86,508.984,426.756
179.34,597.8,348.676
280.112,595.36,248.636
253.028,584.624,312.32
44.164,544.12,426.512
-52.704,533.628,361.852
-99.796,588.772,328.912
-121.512,729.072,252.052
-49.532,769.576,178.852
-55.876,769.576,164.212
-96.624,776.164,194.956
-79.544,763.232,193.736
-111.02,769.576,195.2
-110.044,773.724,213.5
-118.584,806.664,152.988
-95.648,825.452,137.128
-90.768,863.028,109.556
-109.068,874.252,114.68
-117.12,900.116,121.268
-84.18,921.344,143.96
-84.668,935.496,214.232
-78.324,915.0,251.564
-23.912,914.024,170.068
43.92,944.036,74.908
58.56,985.76,37.088
70.76,1026.02,-6.588
-11.712,1037.0,2.44
-41.48,1033.096,-0.244
-43.92,1021.384,12.688
-41.48,1003.084,0.244
-72.224,997.96,29.036
-45.628,980.636,12.444
-66.124,983.076,30.744
-52.704,980.392,0.488
-9.516,1000.156,-0.732
-23.912,1003.572,25.864
-30.988,992.348,50.264
-20.252,986.248,46.604
-61.732,982.832,77.836
-70.272,996.252,81.984
-35.868,991.128,37.576
-40.504,984.296,59.78
0.732,976.976,43.188
-32.208,974.78,52.216
-50.752,974.048,62.464
-40.992,998.204,62.952
-38.064,998.204,82.228
-58.072,978.44,87.596
-28.792,990.396,52.46
-9.272,1003.084,43.676
-15.86,1011.136,42.944
32.94,1013.576,12.2
49.532,1012.844,-0.732
10.004,1005.28,39.528
0.732,970.144,35.38
3.904,961.36,27.084
-4.88,959.164,36.356
-31.964,953.308,50.996
-26.108,972.34,34.404
-6.344,990.396,5.124
61.244,1025.532,-50.508
98.82,1041.392,-64.416
74.42,1028.46,-31.476
40.016,1004.548,-6.1
8.784,984.784,40.016
20.008,977.708,42.456
21.96,987.712,35.624
14.64,992.104,27.816
26.352,986.98,21.228
-0.244,974.292,40.992
-43.92,957.944,69.052
-44.164,951.844,83.204
-30.744,960.872,63.684
-48.312,962.092,63.196
-56.364,961.604,40.504
-21.96,974.536,-7.808
-8.54,996.74,-12.444
-0.244,1010.648,-32.696
44.896,1027.728,-81.496
46.848,1042.612,-67.588
32.208,1036.024,-45.628
34.16,1013.82,-27.084
52.216,996.252,-26.596
39.772,991.128,4.392
18.544,983.076,25.62
17.08,973.56,32.94
-1.22,974.536,50.752
15.372,975.756,45.384
-4.392,980.636,34.892
-15.372,977.464,36.112
0.244,979.904,10.736
-15.86,988.932,19.032
-24.644,992.104,22.204
0.732,996.984,-10.98
-13.176,998.936,3.66
-27.572,1000.156,8.296
-0.244,999.18,-1.464
-10.248,997.96,8.296
-36.6,986.004,25.132
-33.916,977.22,24.644
-2.684,974.78,3.904
-5.856,985.272,6.1
25.132,989.908,-22.936
19.276,1001.376,-16.592
2.684,1006.256,0.244
-8.296,1005.28,10.248
1.708,996.008,13.664
7.076,995.032,10.98
0.244,992.592,2.684
0.244,991.128,-0.488
0.244,989.908,-6.344
-10.004,988.2,15.616
-14.396,981.856,10.004
-25.864,975.024,29.28
-33.916,973.316,20.496
-56.608,973.56,29.768
-40.016,976.732,17.324
-32.696,980.636,2.44
-31.72,988.688,4.636
-39.772,991.128,12.688
-32.94,986.98,3.172
-42.944,987.956,-0.488
-41.236,999.18,2.684
-41.236,1009.916,-7.808
-53.436,1037.244,-10.248
-61.976,1061.644,-4.636
-73.688,1107.516,20.74
-95.648,1153.632,40.26
-170.312,1220.244,32.452
-203.74,1294.42,13.176
-167.628,1367.864,-111.752
-234.728,1434.72,-200.568
-284.504,1469.124,-207.4
-279.136,1439.844,-161.772
-322.568,1371.036,-149.328
-78.812,1306.864,-129.076
7.32,1270.264,-119.316
-14.64,1266.36,-35.38
-87.108,1177.788,-0.976
13.176,1136.552,-19.032
198.128,1041.392,-56.852
300.364,933.544,-118.584
361.852,788.364,-133.712
320.86,637.572,-57.584
302.316,510.936,6.344
293.288,307.928,81.496
319.396,124.196,140.056
538.996,-6.1,156.648
595.848,-137.372,290.116
719.068,-223.26,398.94
732.488,-261.812,472.14
774.212,-235.704,501.908
999.18,-108.58,466.284
1192.672,-19.032,421.632
1276.852,141.276,581.452
1369.084,276.208,746.64
1376.16,368.684,980.636
1261.724,318.176,1187.304
1257.576,198.128,1286.124
1082.628,38.308,1356.396
859.612,-110.044,1332.24
497.516,-217.648,1259.04
136.396,-286.456,1167.052
61.488,-267.424,979.172
85.4,-277.184,715.408
191.052,-236.192,390.644
156.404,-218.868,143.472
178.608,-183.0,-137.372
355.508,-124.44,-314.516
442.128,-86.376,-363.072
424.316,-89.304,-477.996
558.516,-77.836,-644.892
699.792,-83.448,-692.716
990.884,-82.228,-897.92
1114.836,-50.508,-1101.172
948.672,-19.764,-973.56
904.264,2.684,-969.656
929.64,-28.792,-995.032
983.564,-84.424,-935.74
1176.812,-169.824,-1018.212
1251.72,-230.58,-1046.272
1446.92,-229.116,-1087.508
1538.908,-252.54,-1038.22
1602.592,-272.792,-967.948
1726.788,-279.136,-992.104
1610.4,-284.504,-830.82
1509.384,-292.068,-703.208
1367.376,-371.368,-614.88
1183.156,-380.396,-462.624
996.74,-333.548,-297.68
940.62,-381.128,-246.196
825.94,-480.924,-114.192
742.98,-574.62,74.176
614.148,-567.544,334.28
570.472,-645.136,454.328
589.748,-717.848,531.188
566.324,-717.604,681.736
602.924,-637.572,794.22
594.872,-633.18,883.28
862.54,-669.536,809.592
903.288,-670.024,868.396
793.244,-613.904,934.52
709.064,-570.716,1084.58
644.648,-650.504,1234.396
806.42,-752.984,1079.212
1270.02,-738.344,781.532
1489.376,-651.968,897.188
1392.996,-719.068,955.992
1331.508,-822.768,913.536
1553.06,-806.42,774.456
1721.176,-697.352,681.98
1774.368,-671.976,609.512
1686.528,-755.668,589.992
1661.64,-776.164,449.936
1800.232,-752.008,224.968
1778.516,-696.62,45.384
1611.62,-687.836,-11.956
1420.568,-705.404,-46.116
1247.572,-747.616,-95.404
1227.564,-739.808,-185.44
1196.332,-672.464,-338.916
1106.784,-564.128,-454.084
936.228,-449.448,-395.036
816.424,-388.204,-396.012
818.376,-307.684,-386.008
876.448,-229.848,-333.792
910.852,-199.104,-315.736
858.392,-205.448,-264.496
771.528,-240.828,-201.544
741.028,-257.42,-203.252
806.42,-264.008,-179.584
869.372,-264.984,-92.476
858.88,-268.888,-16.836
850.584,-267.668,46.36
889.136,-261.324,22.936
936.716,-206.668,22.448
929.396,-182.512,77.348
936.472,-196.908,126.148
973.072,-218.624,178.608
990.152,-252.54,259.372
1009.428,-300.852,335.256
1050.176,-343.308,375.028
1133.624,-379.176,340.624
1238.056,-369.172,319.396
1368.352,-359.168,311.832
1475.468,-364.78,285.724
1789.496,-423.828,79.056
1681.404,-374.052,232.288
1654.564,-390.156,290.848
1613.084,-380.884,213.256
1585.024,-348.676,214.72
1664.08,-321.836,124.196
1673.108,-295.728,140.3
1622.844,-266.936,119.316
1442.04,-164.7,190.808
1308.084,-38.308,117.12
1177.056,88.084,-0.976
973.316,246.684,63.684
1011.868,341.356,-109.556
947.94,394.548,-46.36
906.704,416.752,68.076
760.548,396.744,123.708
680.76,343.552,124.44
596.336,353.8,172.02
429.196,402.112,289.872
379.176,392.596,279.624
187.148,392.596,338.184
19.764,435.54,386.252
52.216,514.84,331.352
68.32,573.644,290.116
53.192,612.684,308.416
115.656,616.588,338.916
75.884,611.952,411.384
103.944,650.748,379.908
74.908,709.552,346.724
35.624,766.404,331.596
-3.172,778.116,336.476
-96.38,768.844,273.524
-139.568,773.968,246.928
-174.948,814.96,249.368
-205.204,830.332,224.236
-216.184,846.924,189.832
-197.396,883.768,154.452
-91.012,934.52,76.86
-99.552,960.14,88.572
-150.06,949.16,123.22
-180.316,927.2,118.828
-149.572,919.88,126.88
-125.904,944.768,134.2
-135.908,963.8,104.676
-61.244,962.336,21.472
-29.524,998.204,37.332
-44.652,1016.016,41.724
-52.704,998.692,40.504
-28.548,1001.864,59.292
-27.328,1015.04,78.568
-45.628,1004.06,80.032
-48.556,996.008,76.616
-34.648,1004.06,94.184
-49.776,986.004,97.112
-62.952,967.704,109.068
-73.932,961.848,131.516
-71.736,960.384,116.388
-59.78,964.776,96.624
-44.652,976.488,101.504
-40.748,979.416,90.524
-23.668,993.08,87.84
-21.472,1009.916,94.916
-25.62,1015.04,100.284
8.052,1006.256,84.424
-9.76,1001.864,95.16
-5.856,995.52,92.964
27.816,995.52,62.464
0.976,1001.62,81.984
24.644,1004.304,75.884
35.136,994.788,78.08
-0.488,987.956,95.892
21.472,973.56,88.328
53.192,981.612,80.032
20.252,980.392,94.672
-14.64,965.264,107.36
-5.368,969.412,103.456
4.148,977.708,99.552
-15.616,987.224,103.7
4.636,995.276,87.596
-5.612,1001.132,91.5
-19.52,1001.376,83.936
8.296,1005.768,60.268
16.836,1005.524,57.828
5.124,998.692,57.828
6.832,991.128,53.436
-1.464,997.472,54.412
-0.976,996.984,65.392
0.732,988.444,56.608
-15.128,984.54,68.564
-40.748,968.68,70.516
-50.996,958.92,67.1
-32.452,967.948,69.54
-29.28,973.56,73.688
-41.968,964.288,69.784
-37.332,969.656,65.636
-16.104,984.296,61.0
-14.64,994.544,41.968
-10.98,1000.644,24.888
-18.056,1005.524,35.624
-25.132,992.836,43.432
-32.208,982.344,43.92
-41.724,990.396,57.828
-1.464,999.18,31.964
-4.636,1015.528,36.6
-13.42,1008.94,42.456
-14.64,999.912,50.752
-19.032,989.42,52.704
-9.76,986.492,47.336
-19.032,993.568,65.392
-33.916,984.296,63.684
-32.208,975.268,60.268
-21.228,973.072,61.488
-33.184,978.928,68.32
-18.788,979.416,60.756
-35.136,982.588,72.224
-53.924,974.78,79.3
-47.58,972.584,67.588
-46.604,980.88,63.928
-41.48,986.492,46.604
-34.16,993.812,41.724
-31.232,993.568,38.796
-12.2,998.448,25.132
-21.228,1001.132,47.336
-29.036,993.324,52.46
-16.592,985.516,54.412
-20.252,986.004,61.488
-18.788,988.2,63.44
-15.128,990.152,64.904
-20.252,986.98,62.708
-28.06,989.42,72.224
-27.572,987.956,59.78
-25.376,994.056,57.34
-31.72,991.128,54.9
-29.768,994.788,55.876
-37.332,988.2,59.048
-33.672,981.856,53.436
-41.724,980.148,54.168
-31.232,987.224,48.068
-30.988,993.568,51.484
-30.744,984.296,47.58
-19.276,985.028,52.948
-31.476,978.928,63.684
-48.068,979.172,69.784
-40.016,981.368,61.244
-29.036,985.272,63.196
-21.228,990.396,42.456
-25.62,990.64,57.096
-26.352,989.176,60.512
-45.628,995.276,61.976
-41.968,1012.6,65.148
-71.492,1034.804,81.74
-80.52,1059.936,84.424
-144.936,1106.052,54.412
-135.42,1180.228,30.988
-41.724,1202.92,24.644
-17.08,1248.304,13.908
-47.336,1302.716,10.98
-105.408,1339.56,8.296
-211.792,1360.544,17.08
-185.44,1389.336,-48.312
0.732,1401.292,-167.628
-5.612,1465.708,-223.992
-100.284,1410.076,-160.552
-102.48,1386.164,-106.14
-114.192,1310.768,2.928
-18.544,1250.012,-15.128
50.996,1198.772,-105.652
-10.492,1156.56,-26.596
24.156,1070.428,-63.196
83.204,941.596,-63.196
167.628,812.764,-5.612
127.124,630.496,-87.352
392.352,537.776,-185.928
175.192,300.608,47.824
180.804,87.352,441.152
452.376,-138.104,433.832
626.348,-250.344,176.656
783.24,-43.432,37.088
814.716,-24.156,154.94
947.94,-11.468,403.088
1065.06,-135.908,536.8
1182.424,-81.496,721.264
1245.376,70.76,943.548
1371.524,170.068,1061.644
1338.096,110.776,1132.892
1365.912,-26.352,1181.692
1298.812,-175.192,1144.36
1085.8,-193.98,1186.572
913.048,-222.04,987.224
538.02,-176.656,824.72
420.168,-104.432,667.34
290.604,-100.528,523.868
304.268,-89.304,345.992
176.656,-107.116,204.472
142.008,-76.616,48.556
91.744,-70.516,-85.4
71.98,-17.568,-55.144
139.568,-31.964,-162.992
265.228,-40.26,-363.56
464.088,-9.272,-479.948
632.692,-17.812,-632.936
802.516,-14.64,-786.9
936.228,-2.44,-905.728
1035.536,4.392,-1083.116
1020.408,47.58,-1122.888
1034.316,30.5,-1172.664
1040.904,-14.396,-1334.68
1027.728,-17.568,-1247.328
964.288,-30.012,-1290.028
974.292,-65.636,-1261.48
1031.632,-103.944,-1303.692
1115.08,-128.588,-1387.628
1140.944,-114.436,-1355.908
1127.524,-116.876,-1342.732
825.452,-223.504,-1222.928
475.068,-213.5,-919.148
616.588,-244.732,-598.288
714.92,-408.212,-491.172
933.056,-583.404,-220.332
953.308,-618.54,56.12
949.892,-752.984,302.072
998.692,-783.728,532.896
942.328,-748.348,682.468
1045.784,-641.476,688.812
1030.656,-569.008,587.308
862.54,-592.432,672.464
1009.184,-606.828,687.836
1190.232,-676.856,723.704
1100.684,-717.604,844.24
1100.684,-794.464,970.144
1150.948,-901.336,1111.664
1307.84,-1009.672,1166.32
1585.024,-972.096,1097.024
1811.212,-917.44,1063.596
1936.872,-885.72,937.448
1849.764,-905.24,974.536
1817.068,-908.656,762.256
1836.344,-768.112,577.06
1931.992,-648.796,295.972
1824.388,-642.94,98.82
1688.724,-600.484,-29.524
1557.452,-544.12,-181.536
1421.788,-505.568,-254.248
1306.864,-573.156,-337.94
1206.58,-669.292,-349.896
1095.316,-666.608,-431.88
1029.436,-523.38,-531.188
1011.136,-399.184,-498.004
947.94,-319.396,-452.62
1006.988,-263.764,-496.296
1030.656,-252.54,-389.668
876.448,-270.84,-236.68
782.02,-292.8,-225.944
831.552,-278.648,-229.36
875.472,-258.396,-239.608
852.78,-256.444,-233.996
798.368,-257.42,-137.86
772.992,-282.552,-83.448
874.252,-301.584,-96.624
925.248,-277.916,-86.376
910.608,-268.4,-51.484
890.6,-270.84,-5.612
888.648,-267.912,28.792
933.788,-261.324,94.672
1043.588,-272.792,55.876
1093.364,-281.332,102.48
1189.012,-310.368,136.884
1299.544,-370.148,188.368
1437.892,-425.78,200.812
1525.488,-439.444,294.508
1787.3,-444.812,143.96
1738.012,-396.012,146.156
1737.768,-429.684,108.092
1807.552,-449.204,-13.42
1687.26,-323.788,150.792
1650.904,-224.236,44.896
1585.268,-126.392,-83.448
1625.528,-43.432,-123.22
1469.368,3.904,-61.732
1142.652,159.82,-0.732
874.984,279.624,84.18
789.34,377.468,51.728
874.496,449.936,-13.908
858.392,454.572,-76.128
560.468,458.964,72.956
413.824,441.396,175.924
470.92,417.484,112.728
392.596,465.308,209.352
409.676,518.012,180.804
271.572,502.64,310.612
179.828,464.088,400.16
113.46,424.072,444.812
-70.272,429.928,517.524
26.596,483.12,407.968
20.496,555.344,348.188
-12.2,599.264,364.536
51.484,614.88,299.388
-9.516,629.764,331.108
-134.2,638.792,416.264
-108.824,687.348,354.288
-111.752,745.664,328.424
-153.232,793.488,230.58
-135.664,811.056,207.4
-142.984,808.86,270.596
-135.176,832.284,240.34
-131.516,880.352,229.848
-107.36,948.672,160.796
-163.968,1007.964,149.572
-156.404,1025.288,135.176
-141.52,998.448,183.976
-105.896,986.492,141.52
-27.572,995.032,109.068
-81.984,1003.816,87.352
-152.988,1002.84,98.332
-82.228,1030.168,124.44
-50.996,1039.928,152.012
-92.964,1009.428,179.828
-105.164,981.124,187.392
-60.268,979.172,111.996
-100.772,978.196,123.952
-75.152,970.388,119.56
-29.524,967.46,88.328
-61.976,960.628,113.704
-46.604,958.676,113.704
-15.372,973.804,101.748
8.54,985.516,93.208
12.444,995.764,105.896
38.552,1000.156,95.648
40.504,999.18,86.132
24.644,997.472,88.816
22.936,995.032,114.192
15.128,992.104,142.008
39.772,989.908,127.124
47.092,994.544,116.876
24.888,996.008,136.396
28.548,985.516,125.66
21.716,987.956,136.884
11.956,988.2,145.668
40.016,993.568,112.24
19.52,1003.084,108.58
7.076,999.424,131.028
34.404,988.444,124.928
10.248,978.196,142.74
-24.4,960.628,170.8
-19.032,953.796,159.088
-1.708,955.26,122.732
-13.908,955.992,128.832
33.916,964.044,79.788
49.532,984.54,51.24
39.528,1001.132,61.0
35.136,1008.208,69.784
27.084,1005.768,75.396
25.62,1003.816,90.28
35.136,999.18,91.744
37.332,995.276,91.5
36.112,984.296,88.816
35.624,978.684,92.964
55.632,988.2,82.716
59.78,1002.596,84.668
26.596,1001.376,102.48
24.888,993.08,90.524
24.4,987.224,105.652
5.612,973.56,116.144
17.08,968.924,106.14
38.552,976.0,93.696
23.912,977.952,107.848
18.788,980.88,107.604
56.364,984.784,88.084
63.44,991.128,87.84
50.508,994.788,80.032
72.468,998.204,59.536
63.196,1001.376,72.956
32.696,1003.572,95.648
14.884,1014.064,100.528
8.784,1016.992,124.928
32.696,1007.72,111.264
38.796,997.472,101.504
43.188,982.588,98.088
59.292,978.928,80.764
54.656,979.904,76.86
33.672,979.416,99.796
39.04,976.732,94.916
35.868,979.904,100.528
40.016,980.392,96.136
38.552,980.636,73.688
6.344,979.416,66.124
-10.248,976.488,74.664
4.636,978.44,62.708
-2.44,980.636,63.928
-19.032,980.88,81.008
1.22,980.392,62.952
13.176,1000.156,64.172
6.832,997.96,78.568
-0.976,986.98,85.644
-0.244,976.732,96.136
37.332,988.688,85.644
37.576,996.008,92.964
44.896,988.688,85.644
55.632,989.176,74.908
38.308,991.372,93.94
14.64,977.952,108.336
9.272,977.952,117.364
0.0,977.22,123.464
6.1,979.66,110.288
17.812,985.516,96.868
24.888,984.052,85.4
28.304,985.028,81.984
16.348,984.296,102.236
15.128,982.1,100.528
18.056,985.028,103.944
18.056,983.808,99.064
30.988,988.932,87.596
39.528,992.348,77.836
29.28,998.448,79.056
32.208,995.52,71.98
30.012,998.448,76.128
28.792,996.008,81.252
13.908,991.86,90.036
23.424,991.86,88.572
10.492,986.492,96.38
22.448,981.856,92.72
22.204,983.564,99.064
11.956,981.368,110.776
32.452,980.636,95.892
41.48,980.88,93.94
38.064,987.468,86.62
23.424,990.396,97.844
25.62,990.64,91.012
29.036,993.568,79.056
41.236,996.008,74.176
55.388,1001.376,57.34
51.484,997.96,63.196
38.064,999.424,71.492
32.94,995.276,81.496
33.428,995.52,75.152
25.376,990.884,77.592
34.892,988.444,70.76
40.992,988.932,69.784
25.62,985.028,80.52
19.52,985.028,86.62
29.524,977.464,75.64
22.448,986.248,82.716
25.132,986.736,80.764
11.224,996.008,81.984
0.732,1013.332,88.328
10.736,1051.152,67.344
17.08,1105.076,48.068
-35.868,1203.896,20.74
-60.268,1311.256,22.448
-99.796,1396.412,13.176
-175.924,1482.544,-15.372
-54.168,1537.444,-99.552
-89.06,1526.22,-125.904
-152.5,1490.352,-127.368
-233.508,1462.292,-153.72
-172.264,1371.768,-95.648
-6.588,1317.356,-164.456
50.264,1250.5,-132.736
-86.376,1179.984,-38.552
-122.732,1088.972,-8.784
68.32,981.612,-132.98
116.876,805.932,-225.456
-103.212,635.376,-2.44
-9.76,410.896,137.86
146.644,119.804,199.104
147.62,-33.428,378.688
506.3,-32.94,388.204
618.296,-15.128,243.756
867.42,65.88,238.876
1197.308,166.408,372.344
1408.368,146.4,597.312
1588.196,160.552,857.172
1726.788,173.24,1083.848
1840.98,155.184,1067.744
1804.38,132.492,1016.016
1582.584,78.08,1056.764
1425.692,-16.348,1026.02
1194.868,-163.48,1032.608
866.2,-260.592,1072.38
666.852,-318.908,930.128
479.46,-327.936,749.08
262.788,-249.124,562.908
133.956,-182.512,359.168
-62.22,-103.7,271.328
-157.136,-18.544,101.748
-183.488,27.816,-14.396
-150.792,90.036,-177.388
-112.728,122.244,-214.232
-119.072,93.94,-314.028
60.024,89.304,-371.612
162.016,40.016,-447.74
265.716,60.512,-549.976
339.16,68.808,-647.332
593.896,59.536,-788.364
833.748,37.332,-927.932
1006.744,25.62,-970.632
1211.704,7.32,-1101.172
1183.4,35.38,-1073.6
1198.772,97.356,-1068.72
1206.824,107.36,-1153.632
1206.336,112.728,-1146.312
1197.308,39.284,-987.956
1273.436,-65.392,-941.596
1295.64,-179.096,-806.664
1494.5,-244.488,-865.468
1475.468,-326.472,-718.092
1400.804,-367.464,-660.02
1268.8,-421.632,-541.924
1166.564,-431.392,-447.496
1040.904,-402.844,-379.176
898.408,-405.284,-298.656
757.376,-444.812,-233.752
571.204,-391.132,7.808
372.588,-393.816,175.192
346.724,-435.54,213.012
350.628,-446.764,348.188
310.612,-446.276,483.608
351.604,-515.572,609.268
581.94,-640.5,581.94
792.024,-675.392,662.704
596.58,-660.752,858.636
688.324,-704.428,886.94
822.036,-799.344,921.588
1059.936,-823.012,920.368
1288.32,-769.82,1027.972
1087.02,-862.54,1173.396
1078.968,-1001.864,1177.788
1619.672,-1011.38,962.092
2021.052,-955.992,839.848
1762.656,-935.984,922.076
1645.78,-953.064,766.892
1705.56,-907.436,621.224
1747.772,-854.976,529.724
1848.544,-807.396,216.916
1781.2,-752.496,14.64
1701.412,-663.436,-122.732
1533.784,-614.148,-95.16
1355.664,-632.204,-93.94
1274.9,-655.14,-177.144
1146.8,-597.312,-240.096
1156.56,-489.708,-459.208
1081.408,-362.828,-600.484
995.764,-303.536,-617.564
876.448,-329.888,-500.444
812.032,-386.008,-407.48
736.392,-444.568,-258.64
807.884,-445.544,-242.78
848.388,-391.62,-206.912
788.852,-347.456,-187.636
840.58,-325.984,-180.072
831.552,-315.248,-82.716
842.776,-342.332,9.272
893.04,-384.788,40.016
880.596,-376.736,53.68
928.176,-351.36,61.976
944.524,-336.232,93.208
921.588,-365.024,130.784
952.82,-375.272,140.056
965.508,-383.812,204.228
982.832,-402.844,228.14
1030.9,-413.092,237.168
1158.268,-428.708,207.156
1241.472,-448.96,212.28
1291.004,-487.024,288.652
1485.472,-507.764,235.704
1587.22,-471.408,155.672
1628.212,-470.432,179.34
1763.876,-466.528,92.964
1764.364,-459.94,41.236
1694.824,-410.164,115.412
1656.516,-369.66,147.864
1617.964,-308.66,34.16
1562.576,-272.548,1.952
1462.048,-169.092,-78.568
1184.864,-10.248,-2.44
1074.576,78.08,-15.372
1003.328,104.432,8.54
839.116,149.572,47.092
701.988,187.636,62.464
553.148,256.688,50.508
575.596,318.664,52.948
521.428,350.628,126.148
396.988,375.272,190.564
334.036,407.236,202.52
164.456,461.892,249.124
42.212,525.576,274.256
48.068,552.416,260.836
79.056,568.52,284.748
97.6,559.492,339.16
83.936,569.984,328.668
13.176,616.1,330.376
-25.864,671.488,323.3
38.064,755.668,278.404
66.368,799.344,249.612
-9.272,815.448,303.292
-63.44,822.28,293.776
-102.236,824.72,288.652
-128.344,847.168,278.16
-144.936,860.1,288.652
-132.492,892.796,279.868
-148.596,909.632,275.476
-141.764,924.272,248.148
-82.716,946.72,143.228
-155.672,992.104,139.324
-207.888,1020.408,148.596
-227.408,1016.992,149.084
-258.64,998.936,219.112
-199.592,966.24,211.304
-155.184,948.916,141.276
-123.464,979.172,95.16
-137.86,1011.136,65.392
-125.66,1021.872,0.976
-96.868,1031.876,25.376
-107.116,1023.58,58.56
-78.568,974.78,90.036
-57.584,958.92,88.084
-88.084,963.556,125.66
-81.984,951.356,146.4
-60.268,962.58,127.612
-59.78,978.196,114.924
-51.728,1002.108,89.548
-52.704,1017.236,64.172
-63.196,1003.084,70.272
-62.22,981.612,81.252
-72.468,969.9,76.616
-74.664,973.804,73.932
-54.9,978.44,55.144
-92.232,995.032,66.612
-99.064,990.64,67.344
-35.136,1006.744,46.604
-35.136,1021.14,66.856
-66.612,1004.304,89.06
-91.5,988.2,101.26
-64.904,986.736,109.8
-63.684,977.464,110.532
-12.444,962.58,98.576
4.636,959.164,107.116
-33.672,967.216,120.292
-25.132,979.904,114.924
9.028,994.544,108.824
13.908,999.912,92.476
36.6,1004.548,69.784
30.744,1011.868,54.168
-2.684,996.008,60.512
-13.908,982.832,59.536
-14.396,990.884,54.656
-41.724,988.688,64.172
-73.444,985.76,75.152
-55.632,974.536,56.364
-56.364,986.248,52.46
-73.2,980.392,66.368
-65.636,982.832,55.388
-17.08,990.396,50.02
-21.716,992.348,63.684
-15.128,980.392,74.664
17.08,978.684,63.196
-7.808,980.88,83.204
-43.188,974.536,101.504
-27.084,971.852,90.28
-29.768,976.976,91.5
-47.336,975.512,93.94
-46.604,976.976,88.572
-4.88,988.688,62.464
-16.836,996.984,65.88
-12.2,996.496,56.852
3.66,1001.132,38.796
-32.696,997.228,58.316
-51.484,980.392,76.128
-45.14,971.12,64.416
-57.584,972.34,73.444
-54.9,980.392,75.64
-29.524,994.788,51.484
-20.008,1006.256,50.996
-13.42,1007.964,51.972
-33.428,1003.572,56.364
-9.516,992.592,62.22
-1.708,993.08,64.172
-29.524,986.492,87.84
-33.916,979.172,84.668
-21.228,986.492,79.056
-39.04,987.712,86.62
-55.388,978.196,80.032
-43.676,974.292,54.9
-27.328,985.028,41.968
-43.188,982.1,52.216
-34.404,984.54,58.072
-36.112,980.636,62.708
-28.548,976.0,71.736
-28.06,984.784,77.836
-32.208,986.98,73.688
-14.396,984.052,58.072
-8.784,1000.888,60.512
-1.708,1003.328,50.264
-3.172,1000.888,43.676
-1.464,1004.304,54.656
-10.492,998.204,60.268
-30.5,991.86,67.1
-19.764,987.468,63.928
-38.552,989.908,66.612
-51.972,976.244,72.468
-29.036,972.096,51.484
-49.288,978.928,61.244
-65.392,972.584,74.176
-58.072,969.412,71.736
-21.96,981.856,60.756
-29.524,989.176,77.348
-26.352,987.224,73.932
17.568,981.856,35.624
1.22,994.056,51.24
-16.592,992.104,64.904
-13.908,988.932,59.292
-23.424,987.956,72.712
-27.572,988.688,72.956
-36.6,998.448,72.468
-33.184,996.008,74.908
-4.392,994.3,49.044
-25.62,993.568,57.584
-41.236,990.152,72.224
-29.036,991.616,60.268
-33.184,984.296,65.392
-47.336,981.124,81.252
-26.84,977.464,69.784
-14.64,980.148,67.832
-23.424,978.684,75.396
-20.984,983.076,71.004
-19.52,980.88,66.368
-18.3,984.54,65.636
-18.3,988.932,59.536
-17.812,988.2,64.66
-16.104,988.444,63.44
-27.816,989.42,68.564
-25.376,992.348,65.148
-28.304,991.372,63.684
-27.328,995.032,49.044
-19.276,1000.888,52.704
-28.548,993.324,62.708
-38.552,982.832,66.368
-36.112,982.832,78.568
-20.74,977.464,72.224
-23.912,988.2,68.808
-4.636,987.956,57.584
-14.884,1004.548,52.46
-17.324,1022.848,59.536
-24.4,1048.712,65.636
-28.792,1062.864,61.0
-133.468,1101.904,53.924
-130.54,1144.848,21.96
-120.536,1179.74,-27.816
-177.632,1259.528,-63.44
-114.192,1296.86,-125.172
-147.132,1335.412,-197.64
-244.0,1347.856,-194.712
-263.52,1345.416,-181.048
-188.368,1368.84,-197.152
-94.672,1370.06,-177.876
-73.2,1362.74,-120.292
-27.816,1347.124,-140.3
82.716,1339.316,-138.348
-32.208,1294.664,-86.132
39.772,1262.944,-51.24
161.772,1202.432,-75.64
257.42,1145.336,0.0
296.46,1056.52,49.776
382.592,928.176,26.596
355.264,851.316,44.164
456.768,720.288,4.392
504.104,574.376,-70.76
487.756,446.276,-3.172
424.072,257.908,127.368
343.796,114.68,284.016
528.016,-54.412,242.536
632.204,-83.448,135.664
752.984,-14.396,85.156
808.372,-65.392,113.948
941.84,-122.244,191.54
1111.42,-137.128,252.784
1104.1,-30.5,443.836
1296.86,157.38,416.02
1279.536,306.952,456.28
1362.984,451.888,668.316
1351.272,382.592,839.604
1331.752,244.732,1000.644
1258.308,111.264,1083.36
1135.332,-10.004,1055.788
972.584,-92.232,1013.82
834.236,-132.248,903.776
545.096,-165.188,813.74
324.276,-179.828,673.928
158.6,-163.48,546.072
56.364,-112.728,351.36
-11.224,-71.492,156.648
-89.792,-8.052,-33.428
-203.252,56.608,-81.984
-102.968,56.364,-223.504
81.496,72.956,-428.464
232.532,44.652,-571.448
279.38,4.88,-672.22
469.7,-21.228,-767.38
602.192,-61.0,-834.236
658.068,-58.56,-928.42
801.296,-54.9,-1032.12
875.96,-30.744,-1086.776
961.848,10.736,-1184.864
1021.384,85.644,-1239.52
1054.08,119.072,-1302.228
1087.264,111.02,-1305.644
1278.316,58.316,-1292.956
1370.548,-58.072,-1216.584
1547.936,-123.708,-1146.312
1658.712,-221.796,-1042.124
1625.528,-285.48,-929.64
1571.604,-332.084,-910.852
1410.076,-329.644,-837.652
1221.952,-323.544,-723.948
1104.1,-374.052,-635.62
933.544,-446.276,-462.136
746.884,-456.524,-279.868
701.988,-497.516,-172.02
652.212,-528.016,36.844
440.908,-568.276,409.432
472.384,-592.92,468.48
519.964,-584.868,488.244
709.552,-558.516,413.824
679.296,-451.156,532.896
499.224,-411.628,797.148
468.968,-501.664,868.396
571.448,-616.1,844.728
870.104,-588.528,741.76
1028.216,-446.032,859.612
994.056,-504.836,921.344
1061.4,-633.18,853.268
1270.996,-630.008,664.9
1436.184,-559.492,682.956
1456.436,-607.804,686.372
1494.988,-699.792,631.472
1586.976,-673.928,647.088
1730.448,-640.5,558.76
1752.408,-635.62,423.584
1640.412,-660.508,350.872
1487.424,-591.212,277.428
1673.84,-488.0,59.536
1693.848,-453.84,-86.132
1566.236,-478.972,-105.896
1431.792,-510.448,-112.728
1263.432,-531.676,-153.476
1216.584,-461.404,-241.072
1277.828,-444.812,-415.044
1221.708,-421.876,-455.792
1094.584,-410.164,-400.892
947.208,-429.684,-306.952
933.788,-441.396,-203.496
992.104,-442.616,-275.232
995.276,-418.46,-357.704
956.724,-331.84,-379.176
875.228,-278.648,-314.272
800.564,-290.116,-222.772
832.772,-312.564,-142.74
933.544,-333.792,-104.188
951.356,-329.888,-58.316
927.688,-298.168,-66.612
941.84,-265.472,-70.516
885.72,-250.1,-10.98
878.888,-243.756,4.392
935.252,-238.632,17.08
966.24,-232.288,85.4
995.52,-240.584,81.008
1019.676,-245.22,80.764
1030.168,-243.024,91.5
999.668,-252.784,120.536
957.456,-273.036,171.044
983.808,-293.288,188.124
1005.036,-274.256,184.708
1027.728,-254.248,165.676
1036.512,-239.364,159.088
1029.924,-241.56,152.744
1031.876,-252.54,149.572
1077.748,-278.892,143.228
1136.552,-324.764,197.396
1205.604,-396.744,283.284
1435.208,-448.96,197.884
1650.172,-415.532,131.76
1608.936,-315.98,134.2
1517.924,-236.436,55.632
1301.008,-186.66,89.304
1699.704,-312.808,-31.476
2118.164,-401.136,-20.252
1924.428,-465.308,276.452
1806.82,-417.484,171.776
1605.764,-200.08,58.072
1451.8,-13.908,20.74
1772.66,5.124,-99.796
1389.58,-12.2,150.792
966.24,-32.452,141.032
782.508,-28.304,76.128
600.972,129.32,190.32
885.72,190.564,-66.856
614.636,189.344,90.28
167.872,174.46,280.6
-13.176,188.124,318.664
-133.224,247.66,346.724
-176.9,302.804,315.004
-233.264,377.468,220.332
-183.732,474.824,183.488
-263.032,478.484,248.88
-353.556,487.512,316.712
-473.116,482.876,381.372
-563.396,518.256,425.048
-557.54,590.724,355.508
-525.576,680.272,292.312
-457.012,772.016,255.956
-333.06,836.92,184.708
-301.584,884.5,142.008
-283.284,909.388,117.12
-267.668,934.764,50.996
-223.016,956.968,41.48
-173.24,971.12,40.016
-158.356,980.636,125.66
-149.328,979.172,151.036
-138.104,986.248,158.844
-118.584,996.74,147.376
-106.384,1004.304,125.904
-143.96,1000.888,118.34
-147.376,991.128,118.34
-161.528,1000.4,108.824
-177.632,985.272,158.112
-163.236,945.256,153.232
-167.628,928.176,156.16
-149.084,954.528,140.3
-111.752,962.824,132.736
-99.064,976.244,115.412
-105.896,980.88,123.22
-74.664,968.68,95.892
-82.472,985.516,93.94
-84.668,989.42,112.484
-133.468,976.0,122.0
-152.5,959.408,126.392
-142.74,976.732,103.212
-131.516,979.904,87.84
-151.524,978.928,84.668
-135.42,969.168,91.988
-119.56,964.288,107.36
-94.184,981.612,99.552
-75.884,996.008,92.72
-63.196,997.96,95.16
-72.224,984.784,110.532
-84.912,977.952,106.628
-91.988,974.048,125.172
-107.116,980.88,102.48
-158.356,977.22,111.752
-168.604,970.876,108.824
-142.984,968.192,75.884
-158.356,962.336,94.428
-150.792,974.78,86.864
-116.388,987.956,58.316
-108.58,985.028,91.744
-96.868,965.752,134.444
-70.516,957.212,117.364
-77.348,949.648,142.008
-101.748,944.524,124.928
-67.344,969.9,90.524
-77.592,989.176,74.176
-104.676,988.688,66.124
-134.2,982.344,63.928
-132.736,988.444,57.584
-113.46,988.2,66.368
-104.432,993.324,74.176
-81.984,992.104,99.796
-58.072,986.736,107.604
-57.34,985.516,118.34
-60.756,975.268,127.124
-44.652,969.168,103.7
-65.636,975.024,112.972
-97.844,967.704,111.752
-123.708,957.7,96.868
-126.636,966.728,82.228
-124.928,972.828,73.2
-121.512,977.708,52.216
-86.132,1006.5,30.256
-87.84,1009.672,46.604
-82.472,997.716,79.788
-77.592,973.072,122.732
-86.376,951.356,151.28
-53.68,951.112,132.736
-53.68,978.928,119.56
-65.148,986.736,110.776
-91.744,991.128,98.82
-87.84,1000.888,64.66
-98.576,1003.816,62.708
-119.072,992.104,64.66
-117.12,981.368,49.532
-111.02,987.712,76.616
-100.772,982.1,100.04
-68.564,976.976,121.512
-47.336,970.144,156.892
-25.132,962.824,148.84
-31.72,973.56,143.96
-46.116,975.512,126.392
-76.372,984.296,87.596
-105.652,988.932,74.42
-133.468,986.004,61.0
-142.008,977.952,57.584
-128.344,985.028,58.316
-127.368,988.444,78.812
-111.264,988.932,84.912
-78.812,988.688,95.648
-70.028,984.052,116.632
-38.552,973.072,117.852
-30.5,971.608,115.168
-58.804,965.996,130.54
-70.76,968.436,115.412
-71.98,975.268,97.6
-108.824,980.636,98.332
-107.116,989.176,75.396
-96.136,992.592,60.024
-95.16,988.2,51.484
-90.28,990.884,55.632
-94.428,983.808,76.128
-82.228,978.196,79.056
-68.808,979.172,95.892
-75.884,974.292,113.216
-79.3,972.096,115.656
-91.744,965.02,116.632
-99.552,967.216,105.652
-82.228,976.244,87.352
-91.256,981.612,79.788
-101.504,984.052,82.472
-99.796,980.636,84.912
-82.472,981.368,67.344
-76.616,988.444,93.94
-74.908,986.98,98.576
-80.276,972.096,124.44
-70.76,977.464,116.144
-57.584,993.08,91.256
-50.264,992.348,69.54
-59.536,990.884,61.0
-85.4,992.836,50.508
-104.676,994.056,53.924
-121.024,990.884,71.98
-112.728,978.928,79.3
-98.088,976.976,81.008
-95.16,978.196,97.112
-76.86,974.292,102.968
-62.708,972.096,107.604
-71.492,970.144,118.096
-80.032,970.144,109.556
-83.204,978.44,98.82
-111.02,993.812,97.6
-106.384,1006.988,70.028
-128.588,1040.66,68.076
-129.808,1073.112,76.616
-142.74,1103.856,58.804
-155.184,1143.14,35.38
-199.836,1189.744,1.22
-186.172,1224.392,-74.42
-210.084,1256.112,-94.916
-276.452,1298.568,-96.868
-317.688,1319.552,-94.672
-333.548,1356.396,-125.66
-324.032,1373.72,-128.832
-146.644,1395.68,-116.632
79.788,1403.488,-151.036
83.448,1399.828,-84.18
28.548,1372.256,15.128
70.028,1307.84,46.36
251.808,1217.316,40.992
301.828,1102.636,76.616
220.576,1052.372,82.472
352.092,954.772,-33.916
433.1,777.872,-15.128
405.284,599.996,170.8
432.368,396.988,228.872
355.508,272.06,243.268
405.528,150.548,399.184
536.8,102.48,259.128
646.6,115.9,60.268
657.336,119.804,125.904
668.804,139.568,278.892
773.724,85.4,302.072
824.232,189.832,503.128
910.852,359.656,596.58
1015.528,499.712,713.212
1079.456,548.268,830.82
1212.192,521.916,840.824
1239.52,383.812,1021.628
1115.812,232.288,1174.128
974.048,56.852,1177.544
734.928,-95.892,1198.772
563.396,-199.104,1120.936
378.2,-284.016,1007.72
213.988,-358.68,864.98
163.968,-365.024,660.996
36.356,-303.536,426.512
-121.024,-228.384,194.224
18.788,-163.968,-97.844
49.288,-143.716,-230.58
183.976,-115.656,-426.024
268.4,-103.456,-600.728
433.588,-68.076,-814.96
559.98,-26.352,-995.52
688.08,-5.612,-1101.904
780.068,-15.128,-1155.096
857.904,-33.916,-1218.048
837.408,-26.352,-1280.268
874.984,-41.968,-1362.008
932.812,-55.388,-1434.476
910.12,-68.076,-1346.636
1037.732,-136.396,-1305.644
1270.02,-217.892,-1240.008
1483.032,-318.664,-1212.192
1520.364,-385.276,-1050.176
1347.856,-412.848,-906.216
1260.992,-455.304,-766.404
1102.148,-498.492,-638.06
824.964,-493.856,-476.532
732.732,-428.464,-360.876
684.664,-574.376,-177.876
662.704,-738.344,0.488
489.22,-802.028,293.776
392.596,-785.192,480.924
454.084,-814.228,641.964
756.644,-894.26,550.952
813.252,-885.476,734.44
561.688,-925.98,1014.308
737.612,-891.332,1161.196
975.756,-1000.644,1212.924
1288.32,-1051.396,1307.84
1164.856,-1093.364,1597.468
1311.988,-1153.632,1547.448
1693.604,-1140.212,1357.128
1964.932,-986.98,1039.928
1816.092,-870.104,849.608
1729.96,-738.1,649.284
1651.392,-666.608,502.884
1554.768,-668.804,380.396
1487.424,-705.892,267.912
1396.168,-697.596,118.096
1343.22,-580.72,-88.572
1238.056,-521.916,-288.408
1072.38,-511.424,-332.084
939.156,-542.412,-329.156
888.648,-569.984,-331.596
975.024,-524.6,-426.756
1102.88,-519.964,-613.172
1025.044,-521.916,-488.0
1002.84,-530.456,-523.38
991.372,-555.588,-403.332
958.676,-594.14,-318.908
923.54,-597.8,-284.992
979.66,-600.24,-153.72
1102.88,-639.036,-164.456
1326.872,-671.0,-186.416
1577.216,-755.18,-44.164
1588.196,-836.188,158.844
1737.28,-868.884,14.884
1813.652,-759.572,84.18
1745.576,-717.36,117.608
1781.688,-728.096,41.236
1740.94,-706.624,94.428
1715.32,-670.756,245.952
1752.896,-688.324,245.708
1591.124,-607.56,243.756
1360.056,-440.42,290.604
1200.968,-261.08,284.748
899.14,-124.44,220.576
571.448,7.32,288.896
341.844,155.672,167.872
293.532,275.964,90.768
201.056,345.992,157.136
386.008,305.732,161.04
371.124,306.952,211.792
199.836,335.988,238.632
12.444,417.972,302.072
50.996,440.664,251.32
-180.316,491.172,289.14
-58.316,571.448,297.192
-203.496,582.916,374.784
-264.252,596.824,357.948
-304.756,611.464,311.588
-240.096,669.048,158.844
-221.308,753.716,215.452
-221.796,789.096,239.852
-227.652,807.396,222.772
-207.888,814.228,196.176
-328.912,829.844,261.08
-292.312,819.352,228.14
-296.948,813.74,212.768
-238.876,849.12,152.744
-236.192,893.528,107.848
-254.492,925.98,76.86
-274.256,921.588,97.6
-218.136,910.364,119.072
-148.108,948.916,69.052
-159.088,978.44,98.332
-145.18,976.732,46.604
-109.068,1015.528,-0.732
-124.196,1024.8,2.44
-131.028,982.1,39.772
-172.752,951.356,134.932
-187.636,921.588,208.132
-158.844,913.048,187.392
-71.98,954.528,134.688
-26.352,993.568,87.352
1.708,1011.136,82.472
-36.356,1000.156,138.836
-47.824,971.12,166.408
-83.204,958.92,174.704
-65.636,965.752,158.112
-64.172,977.22,111.996
-37.088,998.448,60.268
-47.824,1024.556,19.764
-88.084,1017.724,30.988
-108.336,1000.4,57.34
-90.036,982.832,91.988
-100.528,962.336,111.508
-124.44,942.816,128.344
-80.276,942.816,72.956
-33.916,984.784,48.8
-30.012,1004.792,59.292
-55.388,1004.304,72.712
-47.092,996.496,94.428
-65.148,980.636,120.292
-118.584,965.752,126.148
-113.46,979.66,89.548
-46.36,981.856,55.144
-19.764,998.936,34.648
-48.8,1002.596,73.444
-69.784,984.54,114.436
-49.532,963.312,132.98
-34.892,959.164,122.732
-17.568,966.484,101.26
-14.884,988.688,80.276
-31.964,984.54,70.76
-70.516,988.2,63.928
-49.288,1005.524,48.068
-65.148,1005.036,51.484
-93.94,990.884,52.704
-105.164,975.512,59.78
-80.276,974.292,69.296
-67.1,968.192,68.32
-45.628,979.172,56.364
-42.456,989.664,81.008
-46.848,984.052,88.816
-30.5,976.0,86.62
-16.348,979.66,87.108
-30.012,985.028,84.18
-11.468,990.152,62.22
-31.964,990.64,73.688
-60.756,983.808,94.672
-88.328,988.688,81.496
-67.1,986.492,73.932
-76.616,986.736,64.172
-85.156,988.932,63.684
-78.324,984.784,60.756
-88.816,984.296,71.004
-50.752,984.296,46.604
-34.16,996.496,36.6
-40.992,996.984,66.368
-42.7,998.204,58.804
-33.916,994.788,63.44
-34.648,989.42,89.304
-20.252,990.884,78.08
-36.844,986.492,95.892
-36.6,981.368,87.84
-40.26,978.928,81.984
-66.612,977.22,77.836
-82.96,969.656,72.468
-71.004,976.0,66.856
-81.74,980.88,67.588
-85.644,987.712,66.856
-26.84,999.18,43.676
-26.352,1003.084,55.144
-31.232,994.544,55.876
-13.664,995.764,58.316
-14.64,993.812,66.124
-44.652,986.492,77.836
-55.388,987.224,82.472
-40.748,992.104,73.444
-44.164,982.832,69.784
-31.476,986.492,51.24
-27.084,993.568,50.508
-48.556,991.616,60.024
-40.016,987.956,62.464
-40.016,973.56,57.096
-34.892,984.54,54.168
-35.624,986.004,64.416
-64.172,983.808,68.076
-65.392,985.028,71.492
-52.704,987.956,64.172
-61.0,976.488,63.928
-68.808,968.192,63.44
-47.824,971.12,47.824
-50.996,974.78,65.88
-49.044,981.612,61.244
-29.768,994.544,70.76
-28.548,988.688,78.812
-30.012,988.688,76.86
-12.444,994.788,64.904
-11.468,992.348,43.432
-28.06,997.96,46.848
-53.192,995.032,53.924
-75.64,989.664,56.364
-58.804,992.592,56.364
-62.22,988.932,63.928
-90.524,986.492,74.908
-57.584,978.196,66.368
-23.668,974.536,50.752
-63.928,974.78,91.988
-54.412,972.34,82.96
-46.36,975.756,77.836
-62.22,980.636,92.72
-35.868,987.468,58.316
-15.86,997.228,51.972
-38.552,994.544,68.564
-38.796,990.64,50.02
-55.632,991.128,66.612
-43.676,991.372,61.732
-54.412,995.276,54.412
-53.68,996.008,65.148
-75.884,996.74,63.196
-36.356,985.028,60.268
-35.624,976.244,70.76
-45.14,968.68,87.352
-55.632,972.096,88.816
-46.604,985.516,87.596
-47.824,994.3,82.96
-58.804,1003.816,77.592
-78.324,1030.9,71.492
-85.644,1081.164,57.584
-67.1,1114.592,26.352
-137.372,1163.392,2.684
-201.544,1199.016,-24.156
-217.892,1245.132,-59.292
-172.02,1290.76,-93.696
-139.568,1369.084,-106.14
-97.6,1418.86,-108.092
-113.948,1459.608,-174.216
-231.068,1453.264,-137.86
-247.904,1429.108,-126.88
-126.148,1391.044,-129.564
-77.348,1369.572,-136.884
-9.76,1304.668,-142.984
-3.172,1217.56,-119.56
-13.908,1162.66,-98.576
3.172,1072.868,-174.704
121.268,999.912,-149.816
221.308,879.864,-153.72
258.152,741.272,-204.228
199.836,642.452,-81.008
127.612,527.772,-6.832
187.392,386.496,-3.904
293.776,311.344,21.96
341.356,254.004,96.868
430.416,122.976,343.064
536.068,46.116,451.644
974.048,86.376,439.688
1237.568,67.588,710.528
1444.724,68.32,1051.64
1595.516,-131.516,1184.62
1748.992,-327.936,1319.064
1753.14,-441.884,1338.828
1613.816,-464.088,1318.82
1423.74,-505.812,1261.236
1109.712,-517.28,1298.812
824.476,-547.536,1136.796
539.972,-479.46,923.296
185.44,-348.432,720.532
-118.34,-200.812,474.58
-152.256,-43.92,295.484
-193.492,-26.352,109.556
-285.968,-12.688,16.836
-249.368,29.768,-127.856
-136.396,55.144,-264.496
43.676,69.54,-407.236
236.192,8.784,-499.956
348.676,-32.452,-543.632
408.944,-64.66,-600.484
486.048,-10.248,-689.788
637.084,41.724,-946.964
783.972,91.988,-1012.6
902.556,76.86,-1147.776
938.668,61.976,-1158.024
986.004,59.78,-1209.02
1028.704,60.024,-1190.476
1165.1,60.512,-1232.2
1266.116,23.668,-1272.216
1312.232,-41.48,-1225.124
1372.988,-87.84,-1203.164
1373.72,-122.976,-1091.412
1287.832,-219.6,-1011.868
1299.3,-327.204,-929.396
1093.852,-436.516,-714.92
861.32,-436.76,-465.308
699.304,-477.264,-234.972
676.612,-565.592,-113.46
693.692,-607.56,30.256
645.868,-605.608,226.676
445.544,-544.608,533.628
129.564,-655.872,655.628
461.404,-704.428,610.732
1096.292,-719.068,472.384
1411.052,-790.804,610.244
1191.696,-845.704,763.476
551.44,-898.652,1035.048
842.532,-825.94,1191.452
1524.512,-910.608,977.952
1879.532,-862.052,808.372
1860.012,-851.072,729.316
1744.844,-727.12,859.368
1750.944,-684.664,880.596
1874.652,-669.78,731.268
1969.324,-652.944,489.464
1912.96,-551.44,325.496
1667.008,-477.508,336.964
1557.94,-472.628,271.084
1626.504,-472.384,80.276
1655.296,-475.068,-167.14
1501.088,-482.632,-206.912
1381.284,-467.26,-263.764
1188.036,-475.8,-200.812
1138.992,-507.764,-272.548
1168.76,-518.744,-388.448
1113.86,-483.12,-436.028
997.96,-452.864,-460.916
896.212,-438.224,-427.732
849.12,-396.988,-437.248
912.316,-360.876,-469.456
915.488,-307.44,-398.94
857.172,-278.648,-342.82
788.12,-271.084,-231.068
776.164,-245.708,-114.924
838.384,-210.084,-165.188
927.2,-167.14,-246.684
958.188,-112.24,-267.668
957.7,-107.116,-208.864
895.236,-154.94,-100.04
908.9,-238.388,37.82
940.132,-310.124,109.8
997.96,-337.94,110.776
1064.328,-334.28,96.38
1099.708,-326.472,104.676
1136.552,-315.98,82.472
1463.756,-338.672,24.644
1746.552,-340.38,-67.1
1668.472,-313.052,19.52
1821.704,-325.74,-64.172
2034.228,-377.956,-131.028
2249.436,-421.144,-124.928
2344.108,-506.544,-80.764
2251.876,-447.74,6.1
1831.952,-291.336,137.616
1520.12,-125.416,81.74
1482.3,-88.572,154.94
1462.048,-92.964,130.296
1491.084,-140.788,120.292
1071.16,-184.22,235.216
551.684,-159.82,332.328
532.896,-71.98,175.68
473.604,-8.052,201.3
432.612,1.708,219.6
121.024,23.912,320.372
-108.336,86.864,333.792
-152.256,201.056,393.816
-125.904,244.244,264.252
-146.888,318.176,183.0
-116.144,396.744,132.004
-392.352,474.824,215.452
-410.652,520.696,338.672
-365.512,549.0,347.7
-355.264,609.512,233.996
-328.424,703.696,162.016
-345.992,794.708,98.088
-310.124,839.36,77.836
-315.492,875.228,73.932
-306.952,896.456,126.636
-300.852,898.408,168.604
-245.708,894.016,120.292
-204.228,931.348,109.8
-158.6,959.652,91.012
-110.776,973.072,90.28
-82.472,989.664,115.168
-97.844,992.104,163.236
-64.66,988.688,121.512
-49.532,991.372,91.5
-56.608,1000.156,48.068
-68.808,1014.064,68.076
-91.256,1016.26,108.092
-81.252,1015.04,95.648
-28.06,1005.768,61.0
-12.688,1006.744,72.224
-3.66,990.884,82.96
-2.196,972.584,110.044
-20.008,969.412,120.536
-20.252,988.444,98.088
-26.352,1002.84,73.688
-8.54,987.468,43.676
-32.208,976.244,57.34
-68.32,965.264,88.084
-56.852,980.392,48.8
-34.892,1003.328,37.576
-6.1,1014.796,36.844
-15.86,1014.552,43.188
-9.516,1000.888,63.928
-8.296,992.348,90.524
-45.628,982.832,131.516
-45.14,956.236,117.364
10.004,965.996,84.424
40.26,994.788,64.416
10.98,1005.28,67.1
8.052,1007.964,73.444
34.648,1009.672,47.336
1.708,997.96,62.952
-40.504,976.244,61.488
-18.544,965.264,66.124
-31.72,968.436,67.1
-52.704,969.168,88.328
-43.676,974.536,68.564
-22.448,984.54,49.532
-29.768,999.668,39.04
-49.532,1010.404,35.136
-9.272,1003.084,28.06
-2.196,991.86,41.724
23.668,975.756,77.348
43.188,980.636,66.124
23.424,979.416,100.284
5.612,979.66,108.824
17.08,982.344,66.856
5.612,988.2,73.2
-30.5,988.444,65.392
11.956,992.104,7.564
33.672,1013.576,-4.88
-2.196,1012.6,14.396
-36.112,1002.84,45.384
-33.672,990.396,66.368
-62.22,978.684,90.768
-46.116,979.172,96.624
20.984,981.124,55.876
36.112,975.512,43.676
26.108,982.832,46.604
35.38,992.348,62.22
28.06,990.64,73.444
34.648,985.272,76.128
10.004,989.176,95.16
-4.636,988.2,86.376
0.732,984.052,76.372
38.308,988.688,29.768
12.444,1016.016,26.596
-29.036,1017.48,43.676
-48.8,997.472,44.164
-35.624,993.568,71.492
-43.92,979.66,83.936
-55.632,968.436,92.72
-12.688,970.876,64.904
-17.08,986.004,60.024
-4.392,994.788,51.728
41.236,1002.84,29.524
37.82,1004.304,46.116
3.904,997.472,87.596
-2.928,979.66,91.012
34.648,974.536,66.368
26.596,983.564,61.732
23.424,995.032,46.116
21.96,1006.012,36.112
-7.564,1001.132,59.536
-35.624,985.76,69.784
-9.272,976.244,62.952
-11.224,976.244,74.42
-25.132,973.316,79.788
-18.056,980.148,65.88
14.152,988.688,65.88
7.808,992.348,73.688
0.976,986.98,82.228
12.932,983.564,76.128
18.056,990.64,59.78
19.52,995.276,42.7
15.86,1003.328,24.888
3.904,1002.352,43.676
-26.108,995.032,48.068
-9.028,989.908,47.824
-7.808,990.884,57.096
-10.98,989.908,64.172
6.832,984.784,50.02
28.792,985.272,53.924
8.784,986.98,71.004
6.832,984.784,80.032
8.052,981.368,79.544
4.148,980.392,87.108
-4.392,983.808,65.392
-16.836,983.32,62.952
-6.588,988.688,43.432
-26.108,992.104,53.924
-9.516,992.104,52.704
-4.148,988.444,54.168
-14.884,986.98,63.44
-2.44,985.76,60.024
5.856,985.272,52.46
0.488,990.396,58.56
1.22,993.568,69.296
3.416,988.688,64.172
1.708,980.392,76.128
4.88,983.808,61.488
3.66,984.296,59.536
-3.416,993.812,59.292
1.22,996.252,59.048
-13.664,998.448,67.588
-19.52,1000.4,82.96
-27.816,1010.648,87.352
-47.58,1040.66,106.14
-45.384,1074.332,113.46
-40.504,1128.744,123.708
-44.652,1221.952,140.3
-41.968,1287.588,159.332
-94.916,1300.764,150.304
-238.876,1322.724,136.64
-315.492,1387.872,93.696
-275.72,1453.752,10.98
-190.32,1485.228,-68.076
-101.992,1492.548,-112.728
-165.432,1477.176,-92.476
-317.932,1406.904,36.6
-324.032,1349.564,88.328
-185.928,1299.3,88.084
-77.592,1238.544,109.556
-113.46,1153.388,95.404
-210.816,1064.816,101.016
-188.612,996.252,60.024
67.1,892.308,-6.832
21.472,690.764,-146.888
-198.616,500.444,-101.992
182.024,296.46,173.728
3.172,-99.552,385.276
214.232,-390.4,451.644
699.304,-429.928,61.732
821.06,-315.492,-181.292
965.996,-215.208,-18.3
944.28,-309.392,123.708
952.82,-374.052,226.188
1043.588,-344.772,247.172
1220.0,-135.42,223.26
1259.284,31.72,219.112
1316.624,226.432,282.796
1396.656,245.952,501.664
1435.452,192.516,706.38
1473.516,136.152,818.132
1363.228,55.876,958.676
1149.24,-68.076,1106.54
906.704,-222.772,1171.688
772.748,-355.02,1186.572
627.568,-429.196,1044.076
504.592,-448.472,799.588
270.84,-416.508,488.488
207.156,-335.256,315.004
73.444,-306.952,170.312
15.616,-286.7,-21.472
46.116,-247.416,-195.2
203.984,-199.836,-410.164
449.448,-172.508,-665.388
623.908,-108.336,-860.588
716.14,-34.16,-909.876
798.368,-61.244,-971.608
914.024,-76.86,-1054.324
982.344,-63.44,-1133.136
1055.788,-71.98,-1181.692
1050.664,-90.28,-1150.216
1184.376,-147.62,-1137.772
1376.404,-206.668,-1120.448
1661.64,-277.916,-1206.336
1844.152,-355.508,-1232.688
1866.112,-451.644,-1193.16
1835.612,-570.716,-1032.608
1664.812,-651.236,-882.06
1280.024,-652.456,-584.868
1135.576,-670.268,-451.644
914.512,-662.216,-430.66
800.564,-598.776,-457.744
756.888,-585.844,-369.416
598.288,-566.08,-120.78
376.248,-576.572,172.264
122.732,-654.652,430.66
105.164,-656.116,615.856
263.032,-648.552,642.208
445.544,-587.552,688.568
538.508,-556.564,789.828
475.312,-586.088,951.6
447.008,-565.836,1006.988
473.604,-569.008,1006.5
718.824,-539.484,965.752
892.552,-564.128,914.512
1139.724,-676.368,970.144
1117.52,-783.484,1076.284
979.172,-845.216,1103.612
1147.532,-841.8,1104.832
1358.836,-853.756,1064.084
1468.636,-857.66,988.688
1552.572,-817.4,915.0
1672.132,-776.896,794.952
1745.82,-803.736,647.332
1631.628,-822.524,628.544
1576.24,-854.732,615.368
1453.264,-915.488,530.212
1480.836,-928.176,319.396
1608.204,-828.136,36.356
1502.064,-735.66,-77.348
1306.376,-707.6,-138.592
1090.68,-689.3,-158.112
1053.348,-671.488,-179.34
1022.36,-642.696,-223.016
1133.136,-547.536,-380.64
1045.296,-493.856,-395.036
943.304,-458.476,-362.584
861.32,-438.956,-277.428
734.684,-438.712,-167.628
718.092,-462.38,-91.012
789.34,-445.544,-91.744
830.82,-415.532,-97.112
827.16,-381.86,-125.416
841.312,-344.772,-125.904
827.648,-324.032,-70.272
817.156,-348.188,18.788
866.2,-378.932,84.424
873.764,-382.104,106.14
926.468,-364.292,88.084
978.928,-355.02,103.7
998.936,-385.764,159.576
1125.084,-437.248,190.32
1263.676,-480.68,234.972
1365.668,-494.832,243.268
1627.48,-534.604,162.992
1769.244,-583.648,203.008
1817.8,-647.576,252.296
1869.284,-657.58,209.108
1824.144,-654.896,316.468
1739.232,-693.936,358.436
1801.94,-752.984,362.828
1730.936,-725.656,363.804
1449.36,-525.576,352.336
1241.472,-342.088,300.364
1187.792,-190.564,235.46
1091.656,-113.46,78.568
877.424,-51.24,125.416
537.044,31.232,296.704
421.876,106.628,213.744
356.728,176.168,170.068
280.844,269.864,174.704
318.664,340.868,183.488
165.676,369.66,321.348
76.128,368.44,393.816
-8.296,404.308,378.932
-102.48,454.572,374.54
-105.652,518.744,344.04
-121.268,569.74,285.48
-101.26,631.472,241.072
-157.624,681.492,282.552
-183.0,732.244,290.36
-255.956,736.636,352.092
-266.692,755.912,326.716
-250.588,796.172,311.588
-204.472,853.268,217.404
-222.284,904.264,182.268
-196.42,935.008,148.596
-193.248,928.42,133.956
-209.352,924.76,137.86
-208.62,910.608,220.332
-201.056,882.548,229.848
-163.48,878.4,204.96
-87.352,896.7,145.424
-110.044,942.328,148.596
-131.028,959.652,132.98
-170.312,990.152,133.712
-216.916,982.832,181.292
-138.836,981.612,123.22
-125.172,984.296,61.732
-172.508,979.904,85.644
-160.064,969.656,101.504
-117.12,979.66,113.216
-114.68,974.78,148.108
-133.956,955.26,177.632
-113.704,959.408,161.04
-106.872,977.708,124.684
-114.68,986.248,107.36
-114.436,981.612,116.876
-145.18,948.916,150.548
-113.704,918.66,163.236
-53.68,982.344,162.992
-23.912,1006.988,174.948
-23.424,1011.136,159.088
-28.548,993.324,150.06
-93.208,976.0,170.556
-118.096,956.236,174.704
-75.396,961.848,145.912
-69.784,971.364,127.856
-100.528,972.34,130.296
-98.576,971.12,104.92
-94.916,992.836,83.204
-66.124,1018.7,66.856
-51.728,1032.12,62.464
-36.844,1025.532,101.504
-42.212,1006.5,119.804
-53.192,993.324,130.54
-42.7,990.884,94.428
-74.664,976.244,99.064
-83.692,963.556,84.424
-107.848,960.872,96.136
-125.904,956.724,110.288
-125.416,960.872,126.636
-102.236,965.996,126.148
-86.864,962.092,118.584
-68.564,959.652,105.652
-60.024,968.436,108.58
-34.648,975.756,87.84
-32.452,985.028,68.32
-57.34,1001.132,98.82
-75.64,990.884,119.56
-81.252,978.196,123.952
-76.128,979.416,121.268
-72.224,983.808,102.48
-66.856,998.936,100.284
-72.468,986.98,89.06
-82.228,980.88,93.452
-79.3,977.464,113.948
-81.74,973.56,104.676
-73.688,970.144,109.312
-42.944,975.512,105.652
-36.112,987.712,95.892
-37.332,983.32,102.724
-24.4,989.42,94.184
-48.556,998.936,102.48
-66.612,984.54,114.192
-61.244,974.292,98.332
-50.264,991.372,91.5
-55.144,992.836,91.988
-64.172,990.884,93.208
-59.048,990.396,101.504
-61.976,977.22,103.456
-56.608,975.024,95.404
-39.528,981.612,105.164
-42.7,980.392,99.552
-57.828,986.004,110.776
-73.2,984.784,113.704
-64.66,991.128,96.624
-58.072,986.736,80.764
-65.88,986.492,69.54
-76.86,984.54,79.544
-78.08,986.248,80.032
-76.128,986.248,93.452
-90.28,977.952,112.972
-78.812,972.34,105.896
-74.42,968.192,107.116
-68.32,973.316,98.576
-63.44,976.0,98.576
-71.248,974.536,98.82
-51.24,979.416,75.884
-60.024,985.516,87.108
-84.668,983.32,104.188
-84.424,982.1,103.212
-98.088,977.464,115.168
-78.812,973.804,104.188
-65.88,981.368,93.696
-50.996,986.248,85.888
-57.34,996.74,101.504
-37.088,1001.132,81.496
-57.584,1030.656,86.62
-45.14,1041.636,94.184
-36.844,1045.052,89.304
-54.412,1036.268,92.232
-65.88,1024.556,113.216
-115.168,1025.776,118.096
-303.292,1100.44,115.9
-267.668,1204.872,35.136
-266.204,1288.076,-44.408
-142.984,1327.36,-177.876
-120.292,1367.376,-213.012
-206.424,1532.32,-145.18
-218.136,1586.732,-48.556
-265.96,1533.784,1.22
-162.504,1535.248,-15.128
-84.18,1509.872,-59.536
58.804,1471.32,-85.888
18.544,1373.964,-34.892
-29.036,1290.516,94.916
-58.56,1171.444,172.02
-40.992,1074.576,188.368
81.496,1042.124,79.3
41.236,1000.156,-38.552
-27.084,881.572,-109.556
40.504,691.008,-71.98
81.496,427.0,102.724
334.28,152.256,30.012
452.62,72.712,-0.244
679.296,13.664,-227.652
608.536,-11.712,119.316
793.244,-133.712,177.388
771.528,-111.996,260.836
775.92,-46.116,280.6
906.948,57.34,176.168
1017.236,161.284,182.512
1004.06,239.608,465.552
1059.448,249.612,635.132
1160.22,226.676,873.276
1227.564,32.696,1051.152
1113.372,-137.616,1257.332
1057.252,-289.628,1487.18
957.456,-467.26,1568.92
791.78,-581.94,1482.788
592.676,-546.56,1292.224
517.036,-432.124,1011.38
289.14,-338.428,725.9
127.368,-282.064,554.368
175.68,-297.192,269.376
117.12,-268.156,129.808
18.788,-179.828,10.004
-23.668,-93.696,-225.944
56.12,-45.384,-395.036
152.012,-51.728,-427.0
386.252,-134.444,-569.008
590.968,-176.656,-685.884
690.764,-138.348,-746.884
871.812,-96.38,-930.128
956.968,-34.648,-1039.44
1057.496,46.36,-1076.528
1051.64,93.208,-1217.56
1125.328,107.604,-1249.768
1208.532,43.432,-1287.832
1204.14,-35.624,-1232.2
1337.608,-152.256,-1198.284
1538.42,-322.568,-1197.064
1620.648,-471.896,-1168.272
1547.204,-529.724,-1002.352
1453.264,-496.54,-856.928
1341.756,-567.056,-771.284
1254.404,-604.144,-724.192
1115.324,-531.676,-745.176
909.388,-543.144,-633.424
655.872,-587.308,-524.356
746.884,-623.664,-328.912
594.628,-641.232,-29.524
517.524,-633.18,365.756
857.66,-810.324,554.612
1076.772,-1019.432,673.44
1051.152,-987.712,985.272
944.524,-965.508,1204.384
942.084,-887.916,1355.908
914.268,-891.576,1478.64
1009.916,-889.624,1464.976
1220.244,-888.892,1353.712
1477.664,-858.636,1107.76
1351.028,-815.692,1069.696
1448.872,-703.94,899.384
1505.48,-667.096,824.72
1620.16,-687.836,677.588
1850.008,-550.22,326.96
1729.716,-445.056,250.344
1678.964,-433.344,289.628
1825.364,-453.352,110.044
1931.016,-428.22,-135.42
1711.904,-421.876,-98.82
1248.06,-425.536,-111.264
1397.876,-460.672,-439.2
1359.08,-481.656,-687.592
994.788,-453.596,-717.604
915.488,-205.204,-770.552
904.752,-50.02,-889.136
841.556,-34.404,-865.224
791.78,-119.56,-688.568
782.264,-235.704,-494.1
813.496,-375.76,-346.236
903.044,-443.592,-216.672
906.46,-457.256,-122.488
1064.572,-394.304,-185.928
1058.716,-321.104,-186.416
1055.056,-270.108,-218.38
1095.56,-223.26,-224.724
1281.488,-233.508,-219.356
1541.348,-267.912,-263.52
1931.016,-323.788,-196.42
2107.428,-396.988,8.784
2218.448,-473.604,21.472
2219.668,-489.708,-16.348
2247.24,-435.052,39.528
2073.268,-371.124,51.484
1757.776,-285.48,19.032
1590.148,-172.264,-118.828
1282.952,-31.964,-35.624
1033.584,14.64,-51.972
843.02,55.388,80.52
828.624,111.996,-2.928
698.816,132.004,146.4
608.048,135.42,180.072
348.188,165.92,322.812
298.412,221.796,351.36
226.92,239.12,370.392
149.328,265.716,346.724
99.552,275.72,399.428
-95.16,306.708,477.752
-51.972,350.628,528.992
13.176,452.864,394.304
-102.724,535.336,322.324
-257.664,610.244,397.964
-286.7,566.812,390.644
-373.32,571.204,391.132
-360.144,600.484,482.632
-272.06,660.752,370.88
-235.216,727.852,301.34
-215.452,802.028,227.652
-308.416,887.428,269.62
-194.224,890.6,276.696
-88.816,893.528,241.804
-47.336,935.984,177.632
-123.952,986.248,166.896
-141.52,996.496,126.636
-80.764,1001.864,97.356
-58.072,1026.02,80.764
-53.924,1030.412,105.164
-58.56,1004.548,160.308
-120.048,997.96,207.888
-98.088,1013.332,224.236
-6.588,1020.896,160.064
107.36,1030.168,22.692
58.316,1032.608,61.0
21.716,967.704,133.224
57.34,903.532,141.032
59.292,884.256,192.516
16.104,916.708,225.212
12.932,953.308,167.384
-22.692,986.98,160.064
-33.916,1016.26,123.22
-27.572,1028.948,106.628
-35.136,1018.7,122.976
0.488,999.424,121.756
19.032,980.392,127.124
41.968,980.148,119.316
29.28,988.444,115.412
11.956,982.588,122.732
0.976,974.536,127.612
-34.404,989.176,136.152
-50.996,995.032,147.62
-27.084,996.008,129.076
-51.728,992.104,146.156
-65.88,977.22,165.92
-24.644,983.076,141.52
-4.392,990.64,141.276
-1.464,988.444,150.304
60.512,991.372,110.044
52.948,996.008,131.76
73.932,993.568,129.808
62.708,990.884,143.228
42.212,971.608,168.604
37.332,966.728,157.136
50.752,970.876,134.2
75.152,983.808,88.572
82.716,1010.16,99.308
64.416,997.472,103.212
50.508,981.612,128.588
36.6,969.656,164.7
7.564,958.188,163.724
16.104,967.948,133.956
46.848,994.056,95.16
19.764,997.96,91.012
-1.22,991.372,112.972
16.836,971.364,132.004
26.84,965.508,150.06
50.508,967.216,152.988
65.148,964.288,153.964
40.748,959.408,157.868
61.0,972.584,118.34
50.264,992.836,118.828
54.656,1002.84,106.872
17.568,997.228,122.488
21.96,982.588,133.468
14.396,979.172,133.224
14.884,976.976,148.352
49.532,979.416,132.492
43.432,982.344,145.424
58.56,993.324,139.568
103.7,1005.28,109.556
75.152,999.424,140.3
68.564,978.684,124.928
73.932,981.124,128.1
82.716,987.956,133.224
43.92,1003.084,130.296
81.496,1006.988,127.124
73.444,999.668,113.46
48.8,989.664,113.216
60.268,981.368,102.48
68.808,982.832,98.576
37.332,979.172,125.416
5.124,965.996,125.66
-1.22,972.096,138.348
3.416,966.484,130.296
2.928,962.824,119.804
48.556,974.536,94.916
59.292,992.104,86.62
46.116,994.544,108.824
40.748,987.468,132.248
36.112,980.636,163.968
33.428,977.22,170.556
64.66,972.828,143.96
75.396,983.076,124.684
54.168,990.396,135.42
37.82,982.832,131.272
26.84,989.176,131.272
39.284,995.52,131.272
30.012,986.98,135.664
60.512,979.172,112.24
58.072,992.592,127.856
41.968,990.64,140.056
48.312,984.54,139.568
50.02,981.124,144.936
24.4,967.216,157.38
46.848,959.652,131.76
45.14,974.048,129.564
18.3,973.56,141.764
10.492,981.612,127.368
53.924,992.592,107.36
63.684,1000.156,121.024
84.668,998.692,105.652
80.764,991.372,118.34
58.56,986.492,148.352
61.0,982.832,142.496
53.192,987.712,142.984
50.508,992.592,132.248
49.532,980.148,117.12
24.888,978.684,127.612
23.668,975.512,131.028
16.104,976.0,129.076
50.02,983.32,105.164
29.28,985.76,134.2
15.616,973.072,135.908
29.036,973.316,146.644
49.288,976.0,131.76
45.384,979.904,137.86
50.508,980.88,135.664
41.968,984.784,139.568
46.848,984.296,128.344
43.188,987.224,140.3
48.068,985.76,130.052
44.652,984.296,126.148
46.604,984.54,135.176
38.552,997.96,123.708
38.064,1027.484,114.436
16.592,1076.284,135.176
-4.148,1143.14,145.424
-5.856,1235.128,119.804
9.516,1352.004,61.732
-4.392,1458.632,-54.656
-68.808,1583.316,-227.408
-257.908,1663.104,-310.612
-367.708,1671.156,-342.332
-353.556,1635.288,-371.124
-265.716,1563.796,-352.58
-332.572,1520.608,-321.348
-268.4,1452.776,-220.82
-287.676,1355.908,-175.68
-286.944,1241.96,-272.06
44.164,1103.856,-252.296
136.884,915.732,-334.28
5.612,728.096,-250.344
279.38,528.748,-272.792
110.044,345.748,-124.684
153.72,146.4,34.892
121.512,17.324,141.032
368.196,-34.892,-112.728
524.6,-148.352,-106.872
565.104,-103.944,-26.352
727.364,-203.74,199.104
1074.332,-356.24,426.024
1443.748,-468.48,669.048
1666.52,-514.352,973.072
1787.544,-552.904,1151.192
1772.416,-511.18,1219.756
1696.044,-499.468,1246.596
1583.804,-455.548,1372.5
1380.552,-473.116,1276.364
1138.748,-475.8,1222.684
880.84,-423.828,1172.664
650.748,-414.8,1030.656
302.804,-343.064,1003.084
133.956,-292.312,787.388
67.344,-214.72,592.92
-61.0,-110.776,392.108
-153.232,-74.908,300.608
-132.736,-74.664,104.92
-150.304,-73.444,-80.032
20.008,-33.916,-109.556
104.92,-77.592,-315.736
264.008,-87.108,-460.672
341.112,-97.356,-571.204
381.616,-128.832,-605.852
565.592,-177.876,-783.728
771.772,-159.576,-808.128
836.188,-127.124,-1046.516
932.324,-65.148,-1116.544
1015.284,-72.224,-1220.244
1019.92,-45.628,-1283.44
894.016,-7.808,-1173.64
905.972,-15.616,-1206.336
1014.064,-68.076,-1230.736
1124.596,-166.164,-1230.004
1169.004,-246.684,-1186.084
1209.02,-332.572,-1198.772
1382.016,-321.836,-1229.028
1431.548,-304.268,-1081.164
1509.628,-332.816,-1056.52
1446.432,-421.632,-903.044
1308.084,-484.096,-736.148
1245.132,-531.92,-680.516
1151.68,-568.032,-466.284
1006.5,-523.136,-364.78
880.108,-515.816,-272.304
792.512,-512.644,-169.336
740.296,-528.016,7.076
649.528,-577.548,173.484
406.016,-624.152,370.148
349.408,-543.388,363.56
396.5,-460.428,279.624
660.996,-463.112,254.004
744.932,-425.536,487.512
528.016,-544.364,579.744
497.76,-628.3,618.052
539.972,-635.864,626.836
477.508,-589.016,724.436
603.9,-563.152,863.76
710.772,-681.736,823.256
797.636,-767.624,864.248
1116.3,-822.768,933.3
1296.86,-958.432,1036.756
1459.12,-1082.14,1114.592
1610.888,-1119.228,992.104
1772.172,-1048.956,890.112
1832.196,-1015.04,737.124
1799.256,-948.916,623.176
1707.268,-911.828,516.06
1642.852,-909.144,366.488
1532.808,-897.92,168.848
1608.936,-765.672,-68.564
1592.588,-675.392,-310.856
1448.14,-635.62,-354.532
1294.664,-626.104,-351.848
1119.716,-661.728,-356.484
1047.98,-629.276,-330.62
1059.692,-549.732,-369.66
947.208,-544.364,-392.596
926.956,-519.964,-430.416
860.832,-498.492,-412.848
834.236,-515.572,-314.76
838.384,-522.404,-186.416
898.652,-559.004,-174.216
978.928,-527.772,-224.724
996.008,-451.4,-254.492
975.024,-385.52,-257.908
1126.304,-445.544,-115.168
1160.952,-524.112,71.004
1146.8,-541.436,85.888
1080.188,-451.156,154.94
942.572,-327.448,149.816
909.144,-227.408,31.232
1137.284,-230.824,-15.616
1384.212,-380.396,180.072
1819.996,-627.568,289.14
2362.164,-759.328,179.584
2297.748,-776.164,375.516
1865.38,-660.508,501.42
1679.94,-447.984,283.04
1792.912,-202.032,142.74
1858.304,-59.048,122.976
1594.784,18.3,49.044
1245.132,56.364,179.096
1249.524,87.84,-0.244
856.684,165.92,131.028
495.808,209.84,147.376
391.62,228.872,67.344
444.812,198.128,106.14
294.752,147.864,162.016
54.9,121.024,280.6
-195.2,154.208,407.48
-160.308,209.352,471.652
-107.848,200.324,486.536
-155.916,219.6,413.092
-290.116,301.096,466.04
-478.484,429.44,467.748
-526.552,493.368,434.32
-479.704,530.456,398.696
-464.088,601.216,331.596
-495.076,692.472,320.128
-471.896,787.632,263.52
-355.02,835.212,169.824
-274.744,862.54,156.648
-280.112,871.08,149.572
-288.408,884.256,210.572
-282.552,899.628,210.572
-237.656,893.04,256.444
-195.2,917.44,209.108
-193.248,949.648,210.328
-85.156,983.808,139.568
-122.976,1000.644,131.516
-61.976,1011.624,87.352
-33.428,1029.436,94.184
-102.968,997.228,147.864
-142.008,963.068,159.332
-135.908,951.356,140.056
-160.064,958.92,132.248
-117.608,986.248,99.064
-75.152,1008.696,88.328
-72.224,1002.108,114.68
-80.52,994.3,145.18
-66.368,966.24,178.608
-44.164,956.48,183.0
-25.132,957.7,166.164
-23.18,964.532,134.688
-81.984,987.712,136.152
-66.612,988.688,112.484
-95.892,980.636,123.952
-118.34,975.024,148.84
-140.056,962.336,158.6
-112.24,950.38,113.46
-92.232,973.56,101.748
-107.604,977.464,103.456
-100.772,975.024,79.544
-93.94,984.052,94.672
-93.208,990.884,109.312
-56.364,987.224,95.404
-69.052,987.956,114.192
-87.108,975.268,138.592
-97.356,962.824,144.448
-84.424,966.484,137.86
-102.48,977.22,131.516
-102.48,977.708,111.02
-83.692,983.808,97.6
-85.888,992.348,107.116
-58.804,985.272,128.344
-42.944,975.756,164.944
-36.112,966.972,170.312
-32.208,976.0,170.312
-20.008,986.492,140.544
-28.792,993.812,110.288
-22.692,994.788,100.528
-39.284,992.836,107.36
-78.568,994.3,129.564
-85.888,989.908,149.816
-30.5,980.88,122.0
-53.436,992.348,121.268
-35.624,984.052,121.512
-9.028,982.588,77.348
-26.84,989.908,77.836
-63.684,1013.576,134.2
-71.004,1001.864,144.204
-62.952,972.096,163.236
-55.144,969.656,148.596
-74.664,978.196,166.652
-87.84,983.808,164.944
-96.136,998.936,143.96
-40.992,997.228,99.552
-29.28,998.204,76.372
-37.332,986.736,93.452
-42.944,969.656,96.868
-50.508,952.332,121.512
-79.544,948.672,139.324
-58.072,948.428,108.824
-65.636,959.652,121.024
-75.64,967.948,109.068
-61.488,966.484,101.992
-46.36,973.316,100.528
-53.192,981.612,113.948
-101.016,995.52,141.52
-93.452,987.712,137.616
-90.524,983.564,136.152
-81.008,975.024,143.228
-79.788,969.168,145.668
-59.78,959.896,121.756
-36.112,953.796,108.58
-61.488,948.672,122.244
-84.18,935.252,143.96
-89.792,928.908,149.572
-85.4,944.28,141.52
-91.988,976.976,134.2
-94.184,997.96,126.392
-78.324,999.18,117.364
-60.512,1002.596,89.548
-36.6,1023.092,80.276
-27.084,1032.852,108.092
-34.404,1016.992,138.836
-40.992,996.252,165.676
-32.696,983.32,156.404
-49.776,982.344,143.228
-81.008,988.932,132.736
-98.088,992.592,127.368
-87.352,985.76,120.292
-69.54,981.612,116.632
-74.176,969.412,146.888
-64.172,953.308,155.184
-50.996,955.26,162.992
-30.256,962.58,153.476
-34.404,973.316,156.404
-5.124,977.464,148.596
-17.812,984.784,134.2
-31.964,982.344,142.008
-49.532,974.536,151.28
-45.14,971.852,137.616
-37.088,976.244,120.048
-46.116,991.372,99.308
-34.892,1007.72,91.5
-40.26,1006.256,89.792
-54.168,985.028,118.584
-63.196,970.388,133.956
-72.712,972.34,165.188
-66.368,967.948,175.436
-60.512,976.244,169.58
-58.316,985.272,162.26
-57.096,996.496,153.476
-71.492,997.96,139.812
-93.208,994.788,149.328
-104.188,995.52,135.42
-117.364,1010.892,136.64
-153.232,1034.316,139.324
-172.02,1065.06,132.248
-142.984,1111.664,100.284
-180.56,1179.984,105.408
-238.144,1234.884,114.924
-265.472,1274.412,142.984
-254.736,1294.42,127.612
-223.748,1324.92,109.312
-218.136,1361.276,128.832
-217.404,1398.608,99.552
-168.36,1389.336,60.512
-49.532,1438.38,-20.496
51.972,1417.396,-20.008
23.18,1410.808,22.448
121.024,1365.668,51.484
128.1,1317.844,70.028
-39.772,1230.736,197.152
45.384,1112.396,236.192
46.116,921.344,82.96
-32.94,811.544,147.376
53.924,628.788,72.224
25.376,439.2,184.708
27.084,194.468,328.912
252.296,2.196,473.36
369.904,-59.048,192.76
607.072,5.612,-35.624
635.376,81.008,97.356
790.56,47.092,239.852
883.524,-127.856,363.804
934.276,-198.128,614.636
1214.144,-185.928,672.708
1314.184,-86.62,955.26
1308.816,-59.78,1084.58
1297.104,-106.628,1112.884
1209.02,-192.76,1305.156
1054.812,-337.696,1350.296
818.864,-441.152,1375.428
580.476,-501.42,1346.88
446.276,-525.088,1198.284
361.12,-508.984,948.428
279.868,-448.96,700.524
236.924,-384.056,419.68
121.512,-284.016,189.1
132.492,-235.46,39.284
305.0,-166.408,-182.024
225.944,-144.448,-292.068
172.264,-95.404,-386.984
205.692,-124.196,-458.232
384.3,-186.66,-509.228
523.868,-178.608,-581.208
682.712,-160.064,-771.04
654.652,-83.204,-814.96
708.576,-32.696,-914.024
939.4,-69.54,-1023.336
1105.564,-109.8,-1144.116
1107.272,-128.832,-1129.476
1223.416,-162.992,-1232.932
1274.656,-241.316,-1220.244
1358.348,-274.744,-1205.116
1382.504,-353.556,-1132.16
1418.372,-414.556,-1061.156
1513.044,-451.156,-1057.984
1488.888,-449.692,-928.176
1419.592,-452.62,-813.74
1071.892,-513.864,-746.884
882.304,-489.952,-556.32
951.356,-460.428,-381.86
838.384,-530.456,-316.712
832.284,-578.768,-149.572
669.048,-612.196,119.072
583.892,-626.348,252.296
504.836,-640.256,344.284
530.7,-666.12,506.3
855.952,-759.816,526.796
887.672,-881.084,648.796
894.016,-843.508,681.004
949.404,-832.772,708.82
881.328,-875.716,1036.268
890.844,-904.996,1132.404
1057.008,-883.28,1063.84
1437.648,-803.736,900.36
1383.236,-643.916,827.892
1143.384,-579.988,895.968
1274.168,-643.184,905.728
1480.592,-759.572,814.96
1599.176,-785.192,790.316
1653.588,-697.84,685.152
1645.048,-650.504,462.38
1642.364,-638.548,342.576
1628.456,-665.876,352.092
1575.508,-728.34,366.244
1465.708,-776.164,325.252
1442.284,-722.24,137.372
1311.744,-688.568,23.424
1174.86,-688.324,-44.652
1082.628,-664.9,-145.668
1100.684,-573.4,-309.636
1084.092,-477.752,-428.464
978.928,-395.768,-509.472
910.12,-334.28,-461.16
760.548,-317.932,-345.26
758.352,-390.4,-210.328
727.608,-449.936,-116.632
792.024,-429.196,-133.224
933.056,-362.096,-212.036
941.352,-316.224,-187.148
1086.532,-351.848,-254.492
1154.364,-427.732,-278.16
1312.72,-434.808,-220.332
1508.408,-503.372,-118.828
1803.404,-681.004,-169.092
1945.656,-762.256,92.476
2087.908,-773.968,143.228
2195.268,-782.508,57.34
2052.528,-710.528,325.496
1878.8,-669.536,202.032
1725.324,-566.568,153.72
1549.156,-438.224,82.96
1239.52,-289.872,131.028
997.716,-212.036,84.912
862.54,-112.728,174.216
788.852,-26.352,216.428
532.408,62.464,309.88
441.152,81.984,309.392
289.628,74.42,362.828
288.408,119.072,274.012
254.248,172.996,270.84
-13.42,278.648,380.884
6.344,302.072,403.576
152.988,367.952,218.136
-51.972,451.888,324.52
-110.044,559.492,333.06
-135.42,559.248,377.468
-29.036,588.284,234.24
-46.604,641.964,255.224
-101.748,728.34,247.416
-292.312,740.54,298.656
-235.216,745.42,220.576
-290.604,762.256,261.568
-261.08,778.36,213.744
-368.684,802.272,293.532
-431.392,827.892,279.624
-356.484,843.264,132.736
-345.504,890.112,25.864
-378.444,926.956,32.208
-369.66,910.852,116.876
-346.724,923.296,91.012
-270.352,953.308,24.888
-282.064,987.956,71.98
-219.6,997.228,63.684
-173.484,997.228,65.392
-214.964,994.788,146.156
-201.3,956.48,189.588
-126.88,939.644,184.708
-80.764,945.5,208.864
-91.256,945.988,217.404
-77.348,947.208,173.728
-95.404,975.512,162.992
-123.464,991.372,144.936
-145.424,1006.988,128.832
-166.896,993.08,145.18
-200.324,962.092,161.04
-176.9,936.472,167.14
-132.004,937.204,157.624
-106.384,952.576,167.872
-102.236,983.32,156.16
-109.556,976.244,173.24
-65.392,980.392,160.552
-55.876,987.956,151.768
-85.644,983.808,167.872
-86.62,974.292,155.184
-74.42,983.564,120.048
-104.676,990.152,132.98
-133.468,971.608,138.104
-142.008,976.976,130.54
-145.668,967.704,164.456
-132.004,966.24,171.776
-82.716,961.848,193.492
-59.536,953.064,202.032
-31.72,957.212,182.268
7.808,1000.888,152.012
-9.516,1023.58,120.292
-62.464,1017.236,116.876
-113.46,993.812,135.42
-145.668,964.288,145.18
-109.312,946.476,97.112
-125.66,963.556,115.412
-128.344,974.292,112.728
-122.488,975.756,116.388
-120.292,963.068,131.76
-74.42,976.244,123.952
-63.684,984.54,130.54
-42.7,972.096,106.628
-62.708,961.604,128.832
-91.5,961.604,149.816
-96.868,961.36,147.864
-87.596,978.684,143.716
-95.648,990.396,147.132
-99.552,975.024,128.832
-82.96,970.876,113.704
-54.168,985.516,97.6
-49.288,982.588,87.596
-56.608,982.832,99.552
-50.508,987.468,120.048
-59.292,985.028,136.884
-67.1,978.196,138.348
-43.432,971.364,113.704
-28.792,975.512,84.18
-46.36,987.468,89.548
-43.676,992.836,77.104
-64.172,1008.452,85.644
-68.32,994.056,102.724
-83.692,1002.84,116.144
-35.38,977.952,91.744
-52.216,973.56,115.412
-54.9,962.336,130.54
-40.748,962.824,121.756
-56.12,969.412,137.86
-83.692,971.364,155.428
-44.652,978.928,139.568
-16.592,983.564,114.436
-38.064,977.708,136.152
-63.928,968.924,136.396
-28.548,971.12,111.508
-41.724,976.976,113.704
-48.8,981.856,103.7
-44.896,995.032,99.552
-49.288,992.836,107.116
-55.388,987.468,127.856
-64.172,984.052,138.592
-51.24,978.196,140.056
-27.084,971.364,110.776
-18.788,980.392,102.968
-33.184,989.908,122.488
-46.848,992.592,131.516
-42.944,980.88,139.08
-49.288,972.584,138.836
-50.264,985.516,132.248
-41.48,984.296,123.708
-64.904,976.732,133.956
-36.6,973.804,116.388
-46.116,981.124,134.688
-57.34,979.66,140.544
-32.696,980.148,128.1
-17.324,980.88,116.144
-29.28,993.324,124.684
-22.936,994.788,116.876
-20.984,1008.208,104.188
-40.26,1038.22,120.292
-82.228,1099.22,144.448
-81.74,1138.748,150.548
-121.756,1210.972,120.536
-144.692,1291.98,99.308
-265.228,1354.932,68.076
-242.292,1410.808,29.28
-148.108,1423.496,-15.616
-274.012,1424.472,-11.712
-298.168,1451.068,0.0
-346.48,1487.912,-34.16
-264.008,1475.712,31.232
-119.56,1404.22,-56.364
5.856,1368.84,-80.764
-82.716,1275.632,-23.668
-165.676,1218.292,23.668
-171.288,1197.796,-22.204
214.964,1111.664,-185.684
35.38,927.2,-157.868
-46.36,785.436,-57.584
71.736,572.668,54.412
-16.348,295.484,282.796
248.88,51.484,471.896
434.808,-94.428,287.676
574.132,-53.924,80.52
657.336,57.584,244.976
926.468,58.316,355.508
1077.748,137.372,475.312
1224.88,239.12,827.404
1476.688,289.14,880.596
1504.26,316.224,1112.152
1449.116,197.152,1227.32
1511.336,52.216,1253.672
1369.328,-144.448,1328.824
1283.928,-289.872,1166.076
1061.4,-339.16,994.3
800.32,-374.54,866.688
504.348,-383.08,739.808
271.572,-323.056,601.948
6.1,-252.784,484.34
-322.568,-202.032,365.024
-210.084,-131.516,165.432
-125.172,-80.032,39.772
37.576,-81.74,-217.404
139.812,-49.044,-261.812
225.7,25.864,-405.284
190.076,59.536,-459.696
381.372,58.316,-620.248
627.568,38.796,-856.928
582.672,103.456,-848.876
587.552,20.74,-787.144
756.4,-129.564,-836.188
881.084,-180.804,-973.56
879.62,-119.316,-1108.492
855.708,-46.36,-1270.02
848.144,-23.912,-1357.372
928.664,-84.912,-1422.032
1068.964,-146.4,-1471.564
953.796,-180.804,-1384.7
1069.696,-210.572,-1387.628
1227.076,-283.284,-1406.904
1213.412,-330.376,-1334.68
1287.1,-341.112,-1366.156
1140.7,-367.952,-1135.332
1022.116,-421.876,-903.532
912.56,-547.292,-692.716
816.424,-611.952,-360.388
706.136,-692.716,-180.072
660.752,-756.4,15.128
562.908,-822.036,258.152
473.848,-741.516,379.664
280.844,-601.948,495.076
140.3,-532.896,592.188
398.208,-640.5,738.588
620.98,-827.892,945.744
504.104,-1005.768,1122.4
561.444,-924.028,1049.688
881.084,-778.604,909.388
1043.1,-714.676,935.252
1126.304,-708.82,980.148
988.932,-705.16,1089.704
1126.304,-775.188,1087.508
1583.804,-912.56,946.476
1825.852,-951.6,953.308
1763.632,-969.9,1086.532
1593.076,-1042.124,1040.172
1890.268,-1011.624,730.78
1891.0,-990.152,508.984
1770.708,-1024.556,405.04
1817.8,-987.224,362.34
1679.208,-987.956,301.828
1751.676,-887.184,29.524
1809.504,-697.84,-210.572
1460.828,-572.18,-280.6
1306.62,-537.532,-276.696
1233.176,-578.28,-170.8
1054.812,-662.46,-9.028
919.88,-686.128,-15.86
1013.82,-555.588,-139.568
1035.536,-422.852,-409.92
951.356,-339.404,-534.116
794.708,-342.82,-362.096
729.072,-424.072,-331.108
761.28,-457.5,-269.376
829.844,-370.148,-313.296
784.46,-305.244,-289.628
751.032,-310.368,-222.772
844.728,-353.8,-145.912
858.148,-389.424,5.856
835.7,-413.336,73.688
819.596,-418.704,114.68
866.2,-439.932,152.988
915.244,-437.492,112.484
1108.98,-475.068,94.428
1197.796,-599.508,227.408
1479.128,-751.276,168.848
1931.748,-967.216,296.948
2227.232,-1210.972,517.28
2151.348,-1239.276,597.556
2075.952,-1098.488,411.14
2024.712,-991.86,341.844
1880.508,-845.704,122.488
1782.908,-724.68,127.612
1607.716,-655.14,231.312
1510.848,-614.392,191.54
881.816,-479.704,281.332
117.12,-196.42,161.772
107.116,155.916,-0.244
37.332,334.28,157.38
44.896,291.824,211.304
-96.868,232.776,193.004
-86.376,232.532,352.58
-82.228,245.708,373.076
-144.448,275.476,382.592
-254.248,321.348,509.472
-314.028,358.192,641.964
-434.076,418.216,745.908
-315.004,568.032,610.732
-247.172,627.812,448.228
-281.576,650.016,324.764
-380.152,670.512,286.456
-498.248,702.72,365.268
-310.612,692.228,277.916
-256.444,752.984,213.256
-194.712,857.66,166.896
-238.144,906.46,248.88
-177.144,885.232,227.652
-94.184,915.976,152.012
-164.944,969.656,199.836
-197.64,997.228,208.864
-173.728,999.18,197.396
-150.548,1012.356,162.016
-107.36,1052.128,146.888
-113.948,1051.64,116.388
-194.224,1036.512,139.08
-144.204,1006.256,124.196
-143.228,971.12,110.044
-55.876,984.052,67.832
-34.648,1033.096,54.412
-62.464,1037.244,69.296
-75.884,1026.996,83.204
-25.376,1017.968,34.16
-67.1,1013.088,63.44
-39.528,1015.528,85.644
-17.568,999.668,110.532
30.012,979.172,131.272
64.904,1001.864,163.724
63.196,993.812,196.664
35.868,977.464,230.58
-25.132,945.012,254.736
-26.84,918.172,218.136
-28.548,920.368,164.7
-88.572,934.764,176.412
-74.42,941.352,143.96
-30.988,971.364,79.788
-68.808,999.912,111.996
-92.476,993.08,110.532
-47.58,1004.06,111.02
-5.612,1017.236,113.704
-1.464,996.74,111.508
-11.468,977.22,118.584
46.848,969.9,114.924
44.164,970.388,164.944
38.064,969.168,197.396
44.652,985.272,204.96
55.388,998.204,181.536
77.104,1010.16,114.924
18.544,1025.532,131.272
-28.304,994.788,111.508
-32.94,964.288,111.264
-28.792,961.604,128.344
-51.728,952.576,145.912
-70.028,954.04,165.92
-8.296,971.852,131.516
-4.392,993.324,130.784
-20.252,994.788,128.1
-38.308,978.928,120.78
-14.396,965.264,80.032
27.816,987.712,72.956
69.052,987.224,33.916
68.808,1018.7,63.928
50.752,1016.016,105.408
19.764,1005.28,137.128
16.836,997.96,153.232
14.152,975.512,146.644
-1.708,964.044,148.352
-5.612,961.116,158.844
-20.74,961.604,166.164
-34.892,966.484,180.072
-20.984,968.924,171.532
15.86,971.852,127.612
-17.08,976.0,135.908
3.904,980.148,129.076
49.288,983.076,77.104
29.768,997.228,110.288
-9.516,994.544,126.148
-11.712,996.496,129.32
23.18,1000.644,113.704
-1.952,1003.084,121.024
-0.976,989.42,121.268
54.412,974.048,73.932
18.3,982.1,96.38
0.488,983.076,120.536
17.812,996.74,96.868
27.328,996.74,106.872
29.768,990.884,114.192
18.788,989.176,116.388
0.244,978.684,137.128
-10.248,975.268,159.82
-4.392,967.704,170.556
-31.232,956.968,174.216
-4.88,953.796,153.72
16.104,966.24,120.292
21.96,976.244,106.628
33.184,992.104,78.812
40.504,1003.572,92.476
42.212,1005.768,79.056
29.036,1009.184,98.576
7.32,1002.108,130.54
20.008,984.784,118.34
20.008,975.512,120.78
31.964,983.076,117.364
16.348,989.908,108.336
-4.88,998.448,125.416
-5.612,989.664,122.488
-11.468,980.148,132.492
30.256,973.316,98.332
2.684,982.588,122.732
-13.176,973.56,132.004
-12.2,972.584,133.712
-6.832,976.976,135.176
-7.808,972.584,142.984
30.5,977.22,115.412
53.924,984.54,82.472
35.136,1000.156,99.308
33.184,994.788,97.6
6.1,987.956,114.436
51.484,994.544,84.668
22.936,1002.108,96.624
-2.684,998.936,119.56
-25.864,1004.548,139.324
-30.988,990.64,148.84
-30.988,972.584,155.916
22.204,955.504,98.82
18.544,970.388,101.26
26.108,988.688,101.016
0.976,1033.34,123.952
21.716,1094.584,142.74
13.908,1175.836,116.388
-45.872,1254.16,157.38
-120.536,1316.136,176.168
-212.768,1430.328,168.116
-100.284,1488.644,95.892
-84.18,1487.18,-8.296
-258.396,1471.808,-50.752
-434.808,1489.864,-41.724
-410.652,1527.928,-81.252
-161.04,1470.344,-157.136
-90.28,1402.756,-192.516
-204.228,1388.604,-126.636
-102.236,1305.4,-51.24
-198.86,1207.8,53.192
-180.56,1101.904,49.776
-153.476,1031.632,-101.504
-240.828,969.412,-98.332
-485.804,776.896,1.22
-53.924,532.652,-91.988
81.496,309.88,5.612
145.424,102.236,-26.352
220.82,11.956,231.068
399.916,-56.608,291.58
815.692,-75.884,-115.168
991.128,1.22,-68.808
1103.856,78.324,272.304
1333.704,-40.26,495.564
1516.216,-132.004,818.864
1638.704,-304.268,984.052
1562.82,-323.056,1158.756
1601.86,-350.14,1085.556
1379.088,-402.6,1201.944
1197.796,-481.9,1266.604
965.264,-523.136,1215.852
643.428,-456.28,1049.932
410.164,-346.968,814.228
224.48,-279.38,621.468
123.708,-233.508,453.352
-59.048,-233.02,324.032
-172.752,-168.848,207.156
-149.328,-146.644,59.292
-23.424,-117.608,-203.008
183.244,-50.02,-397.964
226.92,-5.124,-542.656
281.332,-8.296,-697.108
394.548,-88.816,-723.948
546.072,-115.9,-776.896
658.8,-111.264,-923.052
728.34,-103.944,-940.62
851.56,-91.988,-1100.928
893.772,-38.308,-1129.964
898.896,-8.784,-1251.964
1081.896,-73.2,-1403.976
1085.068,-77.836,-1399.096
1141.676,-98.088,-1421.056
1252.696,-143.716,-1516.704
1282.464,-223.016,-1461.56
1327.116,-308.416,-1323.212
1306.864,-433.832,-1201.456
1265.628,-553.88,-1033.584
1080.676,-619.272,-793.244
907.436,-606.34,-670.756
746.884,-613.904,-516.304
532.408,-609.512,-327.936
478.484,-603.168,-106.628
615.856,-651.724,16.836
618.052,-742.736,342.088
709.796,-758.108,487.268
647.332,-697.84,618.784
566.812,-644.404,596.092
965.508,-653.188,576.572
1062.376,-766.404,867.42
1135.088,-826.184,990.396
952.82,-814.96,1176.324
1080.432,-863.028,1277.34
1190.72,-864.248,1336.876
1392.996,-865.224,1382.504
1341.024,-970.632,1418.128
1447.408,-1027.24,1299.3
1754.848,-958.188,1090.436
1774.612,-864.248,844.972
1633.092,-826.184,641.72
1448.384,-833.504,512.156
1310.036,-810.08,500.932
1256.844,-839.604,272.304
1214.632,-854.976,131.516
1192.184,-814.472,-60.512
1272.216,-627.324,-330.376
1186.328,-527.04,-508.252
1049.444,-489.952,-477.02
1059.204,-530.944,-478.484
996.008,-598.776,-396.988
924.516,-555.1,-369.66
885.476,-557.052,-423.828
973.072,-513.62,-527.284
980.148,-520.208,-584.38
1010.16,-479.704,-549.244
1048.468,-475.312,-478.972
990.64,-483.608,-370.88
971.364,-473.848,-284.016
944.524,-416.02,-239.12
863.028,-350.384,-179.828
836.432,-320.128,-143.96
824.72,-329.156,-58.56
884.744,-345.016,-53.68
923.54,-374.54,49.044
925.98,-397.476,73.2
1003.328,-404.308,35.136
979.904,-383.568,108.824
1079.7,-404.796,126.148
1122.644,-455.304,175.192
1173.884,-548.268,220.576
1319.064,-616.1,218.624
1464.976,-682.712,275.72
1588.196,-681.004,246.44
1650.66,-649.528,216.184
1726.544,-562.42,125.904
1705.316,-519.476,58.804
1643.096,-464.576,76.86
1601.616,-442.128,180.072
1663.348,-451.888,107.36
1649.928,-428.464,142.252
1356.884,-358.924,124.928
969.168,-99.308,159.82
1210.24,37.088,116.632
1384.212,40.016,-22.448
1095.804,70.76,180.316
840.336,50.996,327.448
822.768,47.336,139.568
588.772,133.956,364.048
630.74,207.644,170.312
474.092,274.012,162.504
144.204,418.46,281.332
94.184,441.152,337.696
178.12,468.236,138.104
20.496,527.284,317.2
-9.516,536.068,335.012
-92.476,502.64,344.284
-145.18,537.776,328.912
-152.744,610.732,355.996
-213.5,680.272,301.584
-187.88,699.548,255.712
-269.376,705.892,282.552
-334.768,700.524,340.38
-357.216,711.016,365.024
-387.228,732.488,333.548
-356.24,782.264,275.232
-354.532,862.54,197.884
-348.188,911.828,127.856
-375.76,929.152,119.316
-396.5,929.64,139.568
-366.976,925.004,124.928
-333.548,934.276,70.76
-323.3,954.04,56.608
-299.144,972.828,32.452
-294.02,980.148,51.484
-250.832,977.22,63.684
-228.14,966.728,110.776
-250.344,954.04,185.196
-149.084,958.92,127.612
-142.74,966.484,106.384
-216.916,967.704,141.032
-171.288,980.392,104.188
-131.272,985.516,66.368
-175.924,970.388,105.896
-176.9,979.172,92.232
-140.788,978.928,56.364
-184.22,962.58,90.524
-204.716,950.136,106.384
-202.032,958.676,89.06
