acc_x[mg],acc_y[mg],acc_z[mg]
-34.648,984.296,-10.736
-37.088,982.344,-14.884
-45.384,977.952,-20.008
-50.264,978.684,-23.668
-53.436,982.344,-24.888
-51.484,985.272,-22.692
-40.26,995.764,-25.376
-41.724,995.52,-22.692
-27.816,997.228,-21.96
-29.768,991.128,-16.592
-29.28,991.128,-14.64
-39.772,988.688,-5.124
-36.356,994.788,-7.32
-41.968,991.86,-5.368
-38.552,994.788,-10.004
-32.94,1003.572,-6.344
-38.552,1006.988,-10.004
-41.48,1013.088,-12.688
-43.92,1015.528,-13.176
-40.016,1015.284,-5.856
-42.944,1012.356,-11.712
-36.112,1007.476,-10.248
-17.324,1005.768,-4.636
-22.692,1012.356,-9.76
-31.476,1006.256,-0.732
-32.696,1002.84,3.172
-42.7,1004.06,-1.708
-35.38,1013.088,-0.244
-53.68,1013.088,6.344
-63.196,1017.48,-9.516
-42.212,1033.096,-14.396
-26.596,1052.86,-21.716
-33.428,1034.56,-23.424
-23.912,1027.728,-21.716
-29.768,1021.628,-35.136
-17.568,1025.044,-29.524
-10.98,1018.212,-19.764
-31.964,1004.792,-25.132
-26.352,905.24,-1.708
-52.704,1049.444,-30.256
-52.216,1020.408,-46.848
-67.832,998.448,-84.912
-99.796,1014.796,-79.788
-75.64,1027.24,-97.112
-64.172,1026.264,-102.724
-28.792,1020.408,-92.232
-30.988,994.788,-80.032
-32.208,964.288,-69.54
-20.74,939.644,-55.876
-14.396,930.86,-32.94
-21.96,900.116,-7.808
-33.184,877.424,-3.172
-38.064,872.788,6.588
-71.492,888.892,9.76
-43.188,905.972,-13.664
-132.004,910.364,-56.364
-129.076,914.756,-45.872
-119.56,914.268,-38.796
-114.436,925.736,-39.284
-123.952,939.888,-40.504
-149.084,948.916,-39.04
-146.888,963.8,-51.24
-141.032,986.98,-58.56
-144.692,993.324,-63.44
-122.0,1012.112,-74.664
-105.652,1030.168,-66.612
-96.624,1036.268,-65.636
-81.252,1031.144,-54.9
-74.908,1023.58,-39.772
-72.956,1019.432,-33.428
-74.908,1026.996,-39.04
-76.86,1040.172,-38.796
-75.396,1047.248,-45.628
-94.672,1039.684,-52.216
-96.38,1039.196,-54.168
-91.012,1018.944,-44.164
-85.644,993.568,-43.188
-74.664,971.852,-51.728
-59.292,961.36,-49.776
-58.072,945.988,-33.184
-72.224,919.148,-21.228
-78.568,901.336,-14.884
-86.62,884.744,-27.328
-118.828,892.552,-15.372
-146.644,934.276,-13.42
-115.9,900.36,-29.524
-155.916,967.216,-40.504
-126.148,981.856,-59.78
-116.876,997.716,-60.512
-111.996,1022.848,-53.924
-97.112,1047.98,-57.828
-101.016,1054.812,-55.388
-96.136,1058.228,-59.78
-93.452,1068.476,-56.852
-106.14,1065.304,-65.88
-99.064,1043.1,-55.388
-87.352,1026.996,-40.016
-105.896,1010.648,-46.36
-106.872,987.224,-30.744
-105.652,964.776,-23.18
-114.192,952.82,-25.376
-110.288,955.016,-29.768
-114.192,949.16,-22.692
-114.436,966.972,-50.752
-126.148,962.824,-52.216
-134.2,953.308,-52.704
-132.736,950.868,-54.656
-127.612,942.084,-51.728
-118.584,943.06,-52.704
-126.88,928.908,-44.408
-115.656,914.512,-44.896
-96.136,889.38,-27.084
-49.532,908.168,-21.472
-63.928,888.648,-1.708
-15.372,860.588,-5.612
-103.456,786.656,-46.848
-124.196,846.68,-128.1
98.332,846.436,-219.844
423.34,1030.168,-392.108
550.464,1322.724,-210.816
194.712,905.972,622.2
355.02,684.176,869.128
551.928,262.056,780.8
422.852,300.852,3.66
729.072,261.568,339.648
928.908,485.316,401.38
1209.264,655.14,537.044
1250.988,548.268,571.448
1042.368,368.196,553.148
906.46,261.08,540.46
838.384,173.24,529.724
951.6,186.416,538.508
918.172,175.68,548.024
901.092,188.368,506.3
944.524,184.708,479.948
949.648,172.996,453.596
943.792,195.444,480.924
998.204,203.252,467.504
987.468,171.532,457.988
959.164,164.944,445.056
929.152,180.804,439.688
902.8,211.06,431.392
880.596,229.848,415.776
845.948,225.7,405.04
858.148,255.712,386.008
863.76,275.232,381.86
842.044,262.544,377.224
817.888,241.804,390.644
814.716,236.924,398.696
837.896,244.732,398.696
844.24,253.272,391.132
865.468,254.492,383.324
872.544,236.924,391.376
878.4,238.632,388.204
883.524,235.704,384.056
867.908,243.024,367.22
850.34,240.828,355.02
827.648,244.488,333.06
790.316,231.312,311.832
738.1,211.548,285.724
671.488,183.244,271.816
628.3,154.696,263.276
593.164,133.712,254.248
590.236,108.824,247.172
552.172,63.196,261.568
572.18,45.628,269.864
686.372,50.752,249.368
754.448,59.536,214.964
708.576,18.788,199.592
621.224,-17.812,193.492
480.436,-55.144,248.88
537.288,-69.54,254.004
723.948,-78.568,231.068
882.548,-43.188,222.772
956.968,-79.3,280.844
1132.404,-109.8,301.096
1195.6,-153.964,361.12
1262.944,-196.908,424.804
1326.14,-226.432,447.008
1437.648,-211.304,450.18
1461.316,-215.208,465.308
1453.264,-252.784,453.108
1390.312,-291.824,456.768
1349.076,-304.512,456.768
1323.212,-300.12,428.708
1355.176,-276.94,397.476
1311.256,-276.696,386.496
1254.648,-271.328,359.9
1201.212,-246.44,335.744
1138.992,-254.736,319.884
1069.208,-261.08,304.756
1052.372,-259.128,298.656
1049.688,-236.68,283.772
1023.336,-232.288,273.768
992.348,-250.1,268.644
945.256,-267.912,283.284
912.316,-283.284,313.052
950.136,-291.58,333.304
993.324,-278.892,315.248
953.552,-260.836,299.144
945.012,-248.148,280.844
952.332,-218.136,247.904
956.236,-216.184,252.052
933.3,-192.272,252.54
917.928,-130.54,256.444
882.792,-113.216,254.492
884.256,-123.952,254.492
940.132,-106.14,241.072
946.232,-69.296,238.876
951.6,-62.708,241.56
996.496,-55.876,234.484
1067.256,-52.216,263.276
1099.464,-55.144,289.872
1087.02,12.688,252.052
1149.728,182.268,149.328
1129.232,321.104,26.352
987.224,339.16,15.616
885.72,605.364,168.848
908.168,526.552,56.12
607.316,412.36,-22.204
297.192,635.132,68.32
394.304,565.592,-75.396
163.968,447.252,114.192
306.952,764.94,32.94
327.692,1026.508,-46.604
317.932,1214.144,-12.2
147.132,1173.152,146.888
16.592,1119.96,289.628
-71.248,1026.752,221.308
-49.532,993.812,168.36
-66.856,1009.916,44.896
-142.984,1013.332,-27.572
-116.388,1049.2,-26.596
-125.66,1067.256,-41.48
-107.116,1126.792,-71.736
-162.26,1141.188,-59.048
-192.76,1129.232,-41.968
-155.672,1111.42,-45.872
-107.604,1049.2,-61.732
-87.352,1013.82,-58.804
-108.336,969.412,-19.276
-112.972,962.092,-11.956
-114.68,961.116,-20.496
-123.708,979.66,-27.816
-111.02,981.856,-25.864
-81.008,973.316,-18.056
-87.352,942.572,-20.74
-106.14,933.3,-27.816
-118.584,949.892,-34.648
-116.632,955.016,-18.3
-92.72,975.756,-7.564
-84.912,978.684,2.684
-87.84,963.556,4.636
-99.064,948.672,-13.42
-93.94,971.12,-30.012
-96.136,992.836,-15.86
-102.724,1001.62,-13.908
-102.236,1001.376,-20.984
-92.964,1001.62,-15.372
-100.04,997.228,-20.984
-102.48,1016.016,-26.352
-109.8,1022.848,-19.764
-112.484,1005.768,-19.52
-103.7,982.588,-23.18
-94.184,979.172,-12.688
-81.252,984.54,2.44
-83.448,976.976,-7.076
-86.864,970.632,-12.444
-78.08,975.756,-13.176
-79.544,976.976,-9.516
-78.08,980.88,-10.004
-80.032,970.144,-10.736
-89.06,966.728,-10.004
-82.228,976.0,-3.66
-98.332,997.716,-10.004
-113.948,1048.224,-6.344
-128.1,1119.472,12.444
-161.284,1209.02,2.928
-193.736,1295.152,-18.788
-193.004,1334.436,-15.128
-170.556,1352.248,-10.248
-174.948,1313.94,-11.224
-165.676,1232.932,6.588
-162.26,1176.324,-5.612
-177.388,1144.848,-34.16
-183.244,1136.796,-25.376
-170.068,1141.676,-12.932
-120.78,1165.588,1.464
-84.18,1209.264,25.376
-95.404,1253.916,23.18
-177.144,1284.416,-5.124
-199.104,1248.792,-12.932
-179.34,1234.64,5.856
-143.96,1237.08,-5.612
-85.156,1180.96,28.304
-99.064,1168.76,31.964
-132.004,1117.764,10.492
-97.844,1085.312,16.592
-53.436,1077.992,25.132
-60.024,1075.308,-6.344
-5.856,1120.204,-20.008
-38.796,1069.208,-14.64
-46.848,993.324,-27.572
-80.764,940.132,-57.34
-21.472,937.692,-51.972
-115.9,858.88,-17.812
-110.288,701.744,-20.008
-142.496,689.544,-20.252
-126.88,648.064,-49.776
-64.416,759.816,-27.816
-21.96,791.536,-35.38
-57.584,672.708,-3.172
-100.772,658.068,-71.004
-143.716,660.264,-67.344
-114.192,672.952,-62.464
-95.404,664.412,-39.772
-100.772,617.32,-21.716
-77.592,622.932,-19.032
-86.376,644.16,-29.036
-85.156,684.42,-12.688
-82.472,704.672,9.272
-129.076,685.64,9.028
-154.696,680.516,-10.004
-165.676,758.84,-38.308
-162.992,842.288,-73.688
-161.04,844.728,-68.808
-205.692,849.852,-77.836
-197.884,890.356,-79.3
-204.228,931.348,-96.868
-186.172,955.992,-106.384
-185.684,984.296,-113.704
-170.8,1008.94,-104.432
-129.32,1026.02,-86.864
-104.92,1012.112,-67.344
-95.404,1004.792,-56.608
-116.388,1005.524,-48.312
-137.372,1028.216,-70.76
-139.568,1004.792,-60.756
-157.868,1054.324,-93.94
-118.096,1021.628,-49.532
-91.5,1005.036,-39.772
-107.604,994.3,-43.92
-103.7,989.664,-39.772
-131.028,985.76,-49.776
-144.204,1005.524,-72.224
-148.596,1007.964,-80.032
-117.608,1026.752,-89.548
-103.944,1030.412,-82.472
-134.688,1004.792,-76.128
-148.108,986.248,-82.96
-131.272,971.12,-75.64
-109.556,959.652,-57.34
-111.02,942.328,-55.876
-91.988,916.708,-38.064
-81.008,909.388,-12.932
-146.156,920.124,-35.136
-138.104,952.332,-136.884
-71.736,929.152,-228.384
220.088,623.908,-306.952
41.724,862.54,-135.664
-85.888,830.82,393.328
219.356,360.876,542.656
664.412,268.644,439.932
686.128,-75.396,184.952
641.72,166.652,146.4
1305.644,629.764,105.164
1659.932,655.384,263.52
1491.084,473.848,508.252
1209.264,239.852,458.476
1128.5,41.724,336.232
1017.968,102.236,362.096
1097.268,270.108,454.328
1085.312,224.724,443.104
1022.604,163.236,363.072
1002.84,141.52,342.088
985.516,218.38,345.016
977.464,265.96,325.008
951.6,250.344,293.776
930.128,217.648,287.92
891.088,220.088,281.82
878.888,217.16,281.332
857.66,208.62,284.016
802.516,202.764,259.372
776.652,211.304,241.56
742.736,197.152,232.044
706.38,209.596,204.96
692.228,223.016,183.976
685.64,218.868,171.288
669.78,192.272,164.7
636.108,142.74,155.428
610.976,119.072,143.96
579.5,130.052,145.18
529.968,121.024,156.404
492.148,76.128,170.312
550.952,29.768,172.264
626.592,-14.884,175.192
664.656,-35.624,171.532
687.592,-50.264,172.508
691.252,-82.716,168.604
709.064,-121.268,178.12
765.672,-147.132,188.368
817.4,-210.816,203.252
904.264,-275.72,224.968
983.564,-303.048,260.104
1094.34,-291.336,285.724
1242.692,-256.2,250.344
1342.488,-262.3,232.776
1512.556,-238.388,231.556
1525.976,-263.276,257.664
1499.136,-304.756,264.008
1524.512,-330.62,271.572
1520.12,-341.356,270.108
1465.708,-355.996,271.572
1423.252,-353.8,257.42
1423.74,-329.4,254.736
1374.208,-332.084,242.536
1351.272,-325.74,214.964
1311.012,-311.1,189.1
1249.036,-286.212,177.388
1162.416,-286.456,164.7
1090.192,-307.44,162.992
1033.584,-331.108,173.972
984.54,-329.644,169.336
946.232,-319.396,149.572
937.936,-303.048,146.156
941.84,-300.12,144.936
922.808,-296.948,142.008
906.216,-301.828,152.256
923.784,-301.34,154.94
927.2,-302.56,162.016
909.876,-299.388,163.724
971.12,-296.216,186.172
1002.108,-281.332,192.272
974.536,-293.776,208.132
1003.816,-284.504,207.4
986.248,-240.828,166.652
1014.064,-198.372,213.012
1039.684,-168.848,204.228
1058.472,-168.848,227.896
1157.048,-123.464,206.668
1178.032,-111.752,176.656
1087.02,78.568,108.824
1005.036,104.676,104.676
871.812,175.924,146.644
803.98,197.152,89.304
788.608,339.16,126.392
422.608,187.88,-54.168
247.172,491.904,-219.844
277.184,851.316,-396.256
370.636,1027.728,-330.62
506.056,1042.124,-161.528
459.696,1259.284,-167.628
364.292,1192.184,-49.044
131.516,1066.036,-14.396
20.74,1018.212,-76.86
-65.148,996.984,-48.312
22.936,997.716,-19.276
23.424,1023.336,-64.66
8.54,1047.98,-91.012
-83.692,1071.404,-169.58
-100.772,1064.328,-180.316
-52.216,1046.76,-123.22
-37.332,1078.236,-111.264
-50.264,1057.74,-111.264
-65.392,1043.344,-105.896
-77.836,983.076,-109.556
-51.728,938.668,-112.972
-42.212,941.596,-109.312
-49.044,975.512,-105.408
-58.804,980.636,-92.964
-61.0,966.24,-110.532
-60.024,947.208,-103.944
-42.212,946.476,-83.936
-62.708,957.456,-120.292
-96.624,955.748,-137.616
-63.196,978.684,-119.56
-54.656,982.1,-88.816
-63.684,983.808,-87.596
-63.44,978.196,-108.092
-82.228,969.412,-120.048
-65.636,995.52,-119.56
-54.9,1010.404,-103.456
-40.748,1013.82,-102.968
-57.34,1012.112,-116.632
-77.592,1004.06,-124.928
-75.152,994.544,-113.216
-50.264,992.592,-98.576
-46.848,981.612,-100.284
-45.14,976.488,-108.58
-66.612,967.216,-110.532
-57.828,961.116,-106.628
-50.02,966.24,-95.404
-39.04,972.828,-91.744
-43.188,985.028,-98.576
-53.192,989.176,-103.456
-56.608,1011.868,-102.968
-48.556,1055.056,-99.308
-74.664,1073.356,-111.264
-77.348,1086.288,-107.36
-82.228,1085.556,-105.896
-110.776,1081.652,-124.196
-104.92,1096.536,-110.044
-91.012,1173.884,-112.728
-120.536,1212.924,-100.772
-132.736,1219.756,-99.064
-135.664,1259.284,-105.164
-142.984,1344.928,-114.192
-164.944,1392.996,-102.236
-149.816,1469.124,-91.256
-150.548,1520.364,-104.188
-122.488,1575.508,-138.348
-91.256,1604.544,-148.352
-93.208,1576.24,-175.924
-123.708,1470.588,-211.792
-68.32,1364.936,-192.028
-5.856,1285.148,-176.168
9.028,1168.028,-162.016
53.192,1090.924,-156.16
73.2,1028.948,-132.004
54.656,951.112,-155.428
-3.66,840.336,-89.548
54.9,819.84,-57.828
16.348,802.516,-52.948
-40.992,759.328,-74.42
0.732,754.448,-53.68
-63.928,668.804,-32.208
-25.376,715.896,-39.04
-13.908,670.268,-43.92
-24.156,690.52,-59.536
-54.656,623.176,-21.96
-76.128,609.512,-9.76
-62.952,605.12,-10.492
-87.108,590.968,24.644
-119.56,596.824,10.492
-135.176,641.72,-51.484
-185.928,616.588,-70.516
-144.448,651.236,-59.78
-113.704,678.32,-42.212
-121.756,718.824,-48.8
-154.208,742.98,-64.172
-159.332,740.052,-74.176
-148.108,751.032,-79.3
-171.288,747.128,-64.66
-212.524,771.04,-73.444
-227.408,804.468,-71.248
-216.428,837.408,-66.856
-202.276,881.328,-80.52
-194.468,933.788,-101.504
-198.616,969.168,-98.576
-202.032,1002.596,-105.652
-189.344,1005.28,-91.256
-160.552,1007.964,-72.956
-141.276,1015.04,-55.388
-155.916,1024.312,-57.34
-155.916,1030.656,-64.172
-159.82,1022.604,-68.808
-164.456,1018.456,-81.252
-153.72,1014.064,-70.028
-158.112,1024.8,-65.88
-173.728,1018.7,-75.152
-162.26,1010.648,-84.668
-172.996,999.18,-95.648
-186.172,974.048,-91.988
-189.1,944.768,-79.788
-177.632,916.22,-70.76
-173.728,883.524,-53.68
-188.124,853.756,-51.484
-191.54,828.38,-54.412
-189.588,827.648,-73.444
-210.084,814.472,-96.868
-212.768,813.984,-103.456
-216.428,808.616,-121.756
-139.568,788.12,-106.872
-67.832,710.528,-65.392
-138.836,530.212,42.944
-145.424,392.596,88.084
1.464,264.252,31.232
498.492,197.152,158.844
1272.704,358.924,403.82
1640.168,568.764,117.364
1178.764,464.088,-7.564
990.64,188.612,160.552
1202.676,476.044,265.228
1382.016,176.412,510.692
1268.556,125.904,524.112
1084.58,-131.028,422.608
1180.96,-39.772,368.684
1256.844,69.296,449.204
1270.02,81.008,433.1
1153.876,43.188,321.592
1100.196,1.22,309.636
1134.112,69.296,325.252
1099.708,101.016,287.92
1093.608,102.236,246.196
1075.552,96.38,232.044
1008.94,85.888,213.256
930.372,96.38,196.176
872.056,111.264,177.388
816.18,112.728,167.872
778.116,85.644,154.94
714.188,59.048,140.788
682.468,76.86,135.908
643.672,81.74,123.952
603.656,91.988,87.84
546.56,78.324,70.76
537.044,58.804,78.08
528.748,-3.66,91.744
555.832,-34.404,109.556
578.768,-64.416,131.516
614.88,-77.348,108.824
681.248,-81.008,113.46
731.024,-115.168,158.844
765.428,-123.708,149.572
850.828,-170.8,200.324
906.216,-195.932,179.096
954.772,-209.596,151.524
1065.304,-198.86,176.656
1111.664,-237.168,212.28
1114.592,-298.168,237.168
1160.952,-333.792,221.308
1265.14,-299.144,197.152
1347.124,-258.396,221.552
1421.3,-259.128,223.504
1420.568,-283.284,201.3
1445.212,-278.16,192.272
1521.34,-240.096,192.028
1517.436,-232.776,181.536
1495.232,-215.696,157.38
1491.328,-186.172,134.444
1476.444,-151.036,128.344
1448.14,-147.864,113.46
1355.42,-176.656,113.46
1285.148,-183.976,111.996
1231.956,-185.44,124.928
1159.488,-198.372,121.268
1081.408,-223.748,130.052
1017.48,-248.88,133.956
988.688,-250.1,136.396
956.968,-239.852,120.048
920.612,-226.676,107.604
920.124,-217.16,106.872
932.08,-216.184,103.212
935.496,-215.208,101.504
947.94,-202.276,89.548
956.236,-204.96,94.428
962.58,-191.784,83.692
965.752,-190.076,93.208
974.536,-187.392,103.456
981.368,-190.808,101.748
1000.156,-196.664,119.072
994.056,-201.788,121.512
999.424,-210.572,140.3
1016.016,-202.032,140.056
1019.188,-197.396,138.836
1009.672,-178.12,133.224
1004.548,-167.872,129.564
981.612,-158.112,125.172
974.292,-152.744,121.756
975.268,-144.936,119.072
961.604,-146.644,115.168
968.436,-146.156,127.856
1003.084,-147.864,130.784
988.688,-153.964,142.984
998.204,-149.084,161.284
1025.044,-110.776,153.72
1011.38,-72.712,159.576
1058.96,-49.044,184.22
1077.992,-4.148,154.208
1056.276,-22.936,180.316
922.076,-24.644,-105.164
728.34,214.232,-266.204
463.356,391.62,-80.276
192.272,469.7,-112.484
711.748,955.016,-294.508
821.792,1107.028,-240.096
818.376,1114.348,-274.988
643.672,1107.516,-174.704
255.468,1043.588,-135.664
86.62,878.888,-211.792
255.712,900.116,-33.916
257.664,894.504,125.172
414.8,995.52,72.468
279.624,1056.52,40.748
139.568,1025.044,-44.408
119.072,986.736,-51.728
147.62,1039.928,-109.556
79.544,1021.14,-76.372
32.452,985.76,-77.836
-32.208,909.144,-113.46
-56.608,935.984,-78.812
23.424,935.252,-109.068
41.48,973.804,-107.36
67.588,1050.176,-75.396
56.608,1071.16,-75.64
7.076,1033.584,-94.428
7.564,1015.772,-123.22
-24.888,997.228,-105.896
-9.272,992.836,-85.156
-48.312,952.332,-108.092
-66.368,967.216,-126.636
-39.284,984.784,-91.012
-53.192,1003.084,-96.868
-60.756,980.392,-106.14
-46.116,993.324,-100.284
-19.032,984.296,-75.884
-38.308,987.224,-81.252
-45.872,997.716,-102.236
-62.22,976.0,-97.356
-40.26,965.508,-117.852
-22.448,990.884,-102.968
-24.156,1009.428,-62.952
-47.092,1011.38,-66.368
-57.584,1003.328,-96.136
-45.14,995.032,-111.752
-20.496,973.316,-93.94
-18.3,971.852,-94.672
-19.032,988.444,-71.004
-22.692,1031.632,-77.836
-42.944,1089.948,-83.204
-71.004,1152.656,-84.668
-134.2,1255.868,-95.648
-195.2,1421.544,-78.812
-241.804,1590.392,-59.048
-238.876,1680.672,-50.264
-199.348,1697.508,-30.012
-158.844,1628.456,-3.904
-141.764,1519.144,2.44
-150.06,1388.604,-18.056
-145.668,1270.508,-26.596
-100.04,1268.312,-61.0
-131.516,1264.896,-146.4
-125.172,1213.9,-139.324
-79.3,1221.22,-123.708
-20.496,1238.788,-138.104
-7.564,1238.056,-147.132
36.6,1192.184,-107.848
10.248,1071.892,-101.26
31.964,992.104,-132.98
23.424,882.304,-68.076
56.608,826.916,-59.292
34.404,778.116,-55.144
71.492,789.584,-63.196
115.412,855.708,-78.08
128.1,776.408,-14.64
66.124,639.036,30.744
28.06,549.244,50.02
5.856,589.748,17.568
0.0,538.752,-1.22
-23.424,469.212,26.108
-100.528,447.008,4.88
-186.904,454.816,-10.736
-219.112,486.536,-37.332
-196.664,555.588,-43.432
-162.504,631.228,-25.864
-156.648,686.128,-30.5
-135.908,654.408,-27.328
-177.632,697.352,-51.24
-155.672,720.776,-61.488
-156.404,783.728,-74.176
-167.14,844.484,-83.692
-181.048,855.708,-81.496
-192.272,857.66,-101.26
-182.756,870.348,-110.288
-210.572,889.38,-111.996
-205.204,898.652,-103.456
-206.18,898.164,-104.92
-210.328,917.44,-112.728
-220.332,918.416,-111.752
-190.564,904.508,-85.156
-159.82,896.456,-82.228
-159.332,892.064,-99.796
-171.288,879.376,-109.556
-186.904,856.928,-110.532
-194.468,858.148,-110.532
-186.172,873.52,-108.824
-139.812,913.292,-91.012
-48.068,899.872,-76.128
96.38,986.98,-68.32
458.232,1097.512,-93.208
823.744,1038.22,-76.616
754.448,1020.408,25.376
743.956,796.66,120.292
766.16,575.596,-24.156
198.86,105.164,244.976
668.316,314.272,231.312
1492.548,800.32,-261.08
1980.06,540.216,20.008
1498.648,226.92,33.428
1017.968,15.372,34.16
1033.584,101.504,58.316
1205.36,206.668,102.48
1108.004,155.428,74.908
938.668,97.112,39.284
978.684,181.536,59.536
1006.744,256.688,50.508
960.872,238.144,6.832
928.176,226.188,3.904
955.26,264.74,21.96
942.572,273.036,9.272
923.784,248.88,1.22
921.588,232.044,10.248
892.308,212.524,24.4
899.872,214.72,21.96
876.936,217.648,21.96
864.004,241.56,3.66
831.064,220.332,9.272
829.6,224.968,2.928
814.716,224.968,14.396
807.396,224.968,9.272
772.26,200.568,27.572
724.68,158.112,38.308
663.436,93.452,66.124
608.536,53.68,84.668
572.912,60.024,82.472
542.656,99.552,71.98
528.748,95.648,41.724
540.216,62.952,23.912
558.272,28.304,26.108
592.432,-22.936,48.8
605.608,-93.208,84.668
600.484,-163.968,93.452
674.416,-221.552,87.84
802.516,-234.484,106.384
848.632,-252.54,107.848
965.752,-267.424,79.3
1117.032,-250.1,32.94
1187.548,-253.516,20.496
1177.056,-315.248,48.068
1215.364,-392.108,69.784
1358.592,-376.736,38.796
1533.784,-313.54,-7.076
1617.72,-286.212,-32.452
1620.16,-338.672,-17.08
1651.148,-356.484,-11.956
1656.516,-335.5,0.732
1645.292,-290.604,-13.664
1636.996,-266.204,-30.988
1542.08,-257.42,-60.512
1470.588,-222.528,-69.296
1395.436,-225.456,-57.828
1309.792,-253.272,-61.0
1246.108,-264.496,-49.532
1143.14,-259.616,-41.236
1040.66,-274.012,-14.64
960.872,-306.464,2.684
916.464,-321.836,14.396
925.492,-302.56,18.056
918.172,-275.72,17.324
927.688,-261.812,4.148
957.944,-231.312,-8.54
971.852,-221.552,13.176
974.292,-248.148,46.604
1007.964,-241.316,55.876
1054.08,-197.396,67.344
1119.96,-124.44,64.416
1135.576,-82.96,66.612
1060.424,-61.732,23.668
947.94,-29.768,71.248
735.172,46.36,60.756
588.284,316.956,-91.5
298.168,454.572,-315.004
118.828,507.764,-237.656
302.316,1108.736,-147.376
283.528,1067.988,-219.356
333.06,1196.332,-164.456
280.356,1200.724,-116.632
266.936,1017.48,-115.656
403.576,991.128,22.448
251.808,998.204,14.884
59.292,988.932,97.6
16.104,1016.748,69.54
-66.368,1026.996,-23.18
-45.14,981.124,-104.188
-62.952,972.34,-156.892
-84.18,1017.236,-116.876
-77.348,1063.84,-65.392
-76.616,1101.416,-33.672
-96.136,1103.856,-76.616
-70.76,1076.284,-123.708
-23.18,1044.564,-94.428
18.3,1045.296,-43.92
31.232,1054.324,2.684
28.792,1051.884,10.004
-15.86,998.448,-55.388
-72.956,937.448,-165.432
-68.808,897.92,-137.372
4.636,921.588,-64.172
54.168,973.56,-28.304
25.62,1014.796,-7.808
-38.308,994.788,-48.8
-25.864,974.292,-84.424
-1.708,961.848,-78.324
5.612,975.512,-58.072
-23.668,989.908,-60.268
-19.032,995.764,-58.804
-21.96,986.98,-64.172
-22.448,989.908,-76.86
-29.036,993.324,-82.228
-35.38,990.64,-81.74
-22.692,986.492,-75.884
-9.272,995.764,-72.712
-18.056,1004.792,-66.856
-19.276,994.788,-67.588
-18.788,1002.596,-74.42
-26.352,1004.06,-77.104
-13.664,1008.696,-66.368
-1.464,1004.304,-58.56
9.272,1005.524,-52.46
5.612,1026.508,-48.312
-15.616,1073.112,-43.432
-29.768,1128.256,-28.548
-63.44,1223.66,-28.304
-114.68,1371.28,-13.664
-169.336,1509.628,14.396
-217.648,1606.252,5.368
-217.648,1662.128,-15.86
-162.504,1644.56,-18.056
-101.26,1542.568,-5.368
-46.36,1456.924,2.684
-8.54,1391.288,3.66
28.792,1348.588,-7.076
70.516,1316.136,-24.888
95.404,1317.112,-28.06
55.632,1313.94,-77.348
-21.228,1281.976,-172.02
5.612,1219.268,-107.36
62.22,1060.668,-4.636
134.688,998.448,-17.08
115.9,882.304,-5.124
86.376,876.204,-39.772
49.288,947.208,-66.612
18.788,858.636,-52.948
96.136,820.084,-22.448
180.56,769.088,-24.644
120.292,688.812,-7.32
-24.644,622.688,-6.1
-72.712,587.064,-28.304
-77.348,513.376,-21.96
-38.308,469.944,-41.724
-28.548,459.452,-46.116
-53.924,476.288,-23.912
-55.144,512.888,42.456
-83.204,583.404,13.908
-48.556,625.372,4.148
-3.66,588.04,25.132
-14.396,577.792,31.964
-122.0,622.688,22.936
-202.764,706.868,-5.124
-236.192,764.94,-22.204
-225.7,833.992,-43.676
-173.728,870.104,-58.072
-161.04,936.472,-56.364
-175.436,979.66,-65.88
-185.928,988.688,-45.872
-168.604,991.372,-51.728
-154.208,962.824,-34.892
-135.176,952.576,-17.324
-126.636,987.468,-16.592
-151.524,1002.352,-24.644
-163.48,1014.796,-34.892
-154.208,1016.992,-47.336
-144.204,1016.748,-43.188
-145.668,1002.108,-43.432
-133.468,980.148,-54.168
-118.828,958.92,-51.972
-116.876,935.252,-50.264
-127.368,926.468,-41.48
-159.576,939.4,-48.8
-136.64,968.68,-81.74
-125.172,1031.632,-116.144
-62.22,1049.688,-127.368
-57.584,1021.14,-104.188
-77.592,988.932,-76.616
-41.724,929.396,-61.244
-23.424,871.568,-68.32
-15.616,850.34,-89.792
30.5,784.46,-143.472
97.6,792.512,-186.904
233.752,780.068,-221.064
494.832,771.772,-326.716
624.152,971.852,-413.58
616.344,1159.976,-278.648
-302.316,930.372,373.076
-601.704,202.276,434.808
551.44,115.168,343.796
1311.012,325.74,142.496
1578.192,454.816,26.84
1631.872,494.832,-162.26
1514.508,344.04,-86.132
1381.04,204.96,-2.196
1318.088,132.004,76.616
1199.992,140.544,97.356
1120.204,173.24,98.088
1119.228,182.512,60.268
1129.232,198.86,42.944
1084.336,229.116,21.228
1018.456,236.192,1.464
978.44,232.288,1.952
929.396,208.132,2.684
930.372,223.748,-7.808
916.22,256.2,-22.448
859.368,267.912,-17.08
854.244,225.944,-8.052
864.004,191.052,12.688
873.032,174.948,34.404
842.288,198.616,19.276
833.26,216.428,-1.464
833.016,198.616,1.708
795.684,178.12,6.1
722.728,183.0,30.012
681.492,173.728,28.548
660.264,126.148,28.792
640.012,78.812,38.796
590.236,55.388,66.368
571.692,34.404,73.2
592.432,-2.196,68.076
666.364,-25.62,46.604
726.144,-13.42,-0.488
760.06,-17.08,-0.976
808.372,-19.764,-23.18
810.568,-48.068,-22.692
837.164,-72.468,-7.808
838.628,-87.352,-33.184
827.16,-124.44,-33.916
833.26,-164.944,-15.128
845.948,-200.568,20.984
983.32,-216.672,20.74
1151.924,-181.292,-25.62
1262.7,-183.0,-34.892
1286.612,-239.852,-24.4
1388.848,-294.264,-20.252
1530.612,-299.388,-53.924
1618.452,-248.148,-94.184
1630.408,-206.424,-117.608
1614.548,-194.468,-125.172
1560.868,-222.528,-111.508
1492.792,-243.268,-85.888
1423.008,-226.92,-73.2
1324.676,-231.8,-72.468
1267.092,-263.276,-84.424
1256.356,-267.424,-99.796
1219.268,-260.348,-90.036
1146.556,-257.42,-85.156
1088.484,-276.94,-73.688
1047.98,-294.996,-54.9
993.08,-300.852,-39.04
970.144,-298.168,-37.332
992.104,-276.696,-50.264
982.832,-275.964,-58.072
976.0,-277.428,-63.928
952.088,-291.336,-48.556
931.592,-307.684,-39.528
939.156,-306.708,-44.652
978.44,-293.776,-53.924
979.416,-290.116,-56.364
962.336,-296.216,-55.144
967.704,-297.436,-41.724
982.832,-290.36,-37.82
986.248,-295.728,-42.944
985.272,-284.992,-48.556
978.928,-261.812,-52.948
963.556,-246.684,-65.88
956.236,-256.2,-68.32
1000.4,-260.104,-75.152
1027.24,-267.668,-67.832
990.64,-269.62,-62.952
970.388,-256.2,-65.392
999.424,-254.004,-65.88
989.664,-257.664,-75.64
981.612,-268.888,-73.2
996.74,-278.404,-68.32
1004.548,-273.036,-60.512
987.468,-279.624,-56.852
1004.06,-269.132,-57.34
1033.34,-250.832,-53.924
1076.772,-227.164,-50.508
1125.572,-192.76,-49.288
1205.36,-98.82,-111.508
1335.412,97.6,-239.364
1373.476,60.024,-365.024
1108.736,-189.588,-450.424
660.508,-0.976,-177.388
424.804,459.208,-235.216
263.764,878.156,-66.856
495.32,688.812,-75.64
18.3,1181.448,-234.24
107.116,999.18,-162.992
119.316,886.94,-149.572
279.38,756.156,-532.164
193.248,837.408,-203.984
199.592,942.084,-161.284
146.156,1035.536,-161.528
138.836,969.412,-245.708
182.512,1005.036,-260.348
225.7,902.556,-264.74
80.276,989.42,-124.928
138.592,993.324,-108.092
118.096,1036.756,-91.012
123.22,1038.464,-152.256
122.732,1006.012,-180.316
144.692,971.852,-180.316
136.396,963.8,-150.06
155.916,962.58,-179.828
74.176,962.824,-170.312
72.468,930.128,-194.468
119.316,944.524,-188.124
115.168,952.82,-173.484
40.748,944.036,-142.252
55.632,958.432,-150.06
61.732,952.576,-152.988
189.1,945.5,-215.208
30.5,958.92,-78.812
109.556,967.948,-177.388
147.132,974.536,-192.516
131.516,1015.284,-128.588
121.756,987.712,-163.724
103.7,999.912,-204.228
91.744,1019.188,-159.088
170.8,1010.16,-207.4
151.28,995.276,-168.116
27.816,981.612,-113.216
15.372,972.828,-129.076
135.176,974.78,-175.192
174.216,955.504,-181.78
157.136,944.036,-160.308
138.592,935.008,-146.4
138.836,933.788,-160.308
154.696,940.132,-167.384
168.848,957.212,-182.268
169.092,972.584,-180.804
144.692,969.168,-180.804
125.904,967.948,-177.876
129.808,960.384,-182.024
142.008,968.68,-187.148
133.468,978.928,-187.636
141.764,1006.256,-192.028
128.588,1011.624,-190.808
125.172,991.372,-188.856
144.448,967.46,-177.388
158.844,962.336,-176.412
152.256,971.852,-159.576
149.816,985.76,-167.872
147.62,978.196,-169.336
143.716,961.116,-176.656
144.692,961.604,-174.704
150.06,969.168,-172.996
146.888,963.312,-172.752
145.18,959.408,-178.12
141.276,958.432,-180.56
140.056,963.068,-184.708
143.472,968.68,-184.952
146.888,982.344,-191.54
154.208,1003.328,-197.152
163.236,1026.996,-192.516
149.084,1067.012,-184.22
119.56,1109.468,-184.464
91.988,1175.104,-187.392
94.428,1270.264,-205.448
70.028,1365.424,-199.836
50.264,1416.42,-196.176
50.508,1418.616,-182.512
96.624,1388.848,-151.768
130.296,1372.988,-120.536
154.208,1370.06,-121.512
204.228,1423.496,-173.484
159.088,1417.64,-149.572
138.348,1389.824,-160.308
129.32,1352.248,-157.868
163.968,1309.304,-155.672
213.744,1275.632,-180.072
189.832,1212.68,-172.996
190.076,1144.848,-173.484
182.268,1058.96,-132.248
167.384,1014.064,-85.644
137.86,971.608,-60.268
96.868,934.52,-49.532
83.204,906.948,-91.744
117.608,894.26,-133.956
162.992,890.356,-136.396
162.748,834.48,-117.364
134.688,736.148,-95.892
78.324,644.892,-62.708
57.584,590.968,-55.876
72.712,587.552,-61.244
48.312,578.768,-37.088
26.108,579.744,-30.744
-35.868,578.768,-12.2
-12.444,610.488,-18.056
-38.796,616.832,-15.372
-46.604,623.42,-17.812
-46.116,632.448,-13.176
-52.216,677.344,-6.588
-102.724,720.288,-12.2
-141.52,760.548,-34.648
-177.144,779.336,-37.332
-205.204,798.612,-44.164
-188.612,816.912,-35.624
-185.196,849.12,-24.644
-182.756,866.688,-21.716
-172.264,893.528,-40.26
-156.648,914.268,-40.504
-156.648,931.348,-31.476
-152.256,949.892,-20.74
-136.884,973.804,-22.448
-138.104,985.272,-31.72
-135.664,982.832,-36.112
-156.648,945.744,-37.088
-158.356,894.748,-30.5
-165.676,833.26,-14.152
-154.452,766.16,-8.296
-180.804,711.26,9.76
-184.22,707.6,0.244
-181.78,749.568,-31.232
-171.776,820.816,-39.528
-135.664,875.716,-26.84
17.324,906.704,13.908
174.704,841.312,71.492
249.856,587.552,132.004
457.988,374.052,187.636
413.336,60.024,169.092
487.512,-113.948,107.36
619.76,198.372,36.844
1032.608,595.36,104.92
1478.396,763.476,103.7
1514.752,492.88,59.048
1370.548,216.916,91.744
1523.048,250.832,212.524
1537.932,200.812,274.988
1403.976,179.34,256.2
1345.66,147.132,244.732
1302.96,211.548,207.156
1267.092,258.152,152.5
1202.432,269.132,135.908
1160.952,266.936,126.392
1104.344,233.752,133.224
1068.964,190.564,143.472
1048.956,158.356,147.62
1000.644,184.464,137.86
1002.596,194.956,127.856
962.336,195.932,110.288
944.28,232.532,92.232
935.252,247.904,77.592
919.88,218.624,78.08
931.348,212.28,89.304
935.74,225.456,93.94
898.408,220.088,81.008
893.528,200.08,86.62
930.86,209.108,85.888
909.388,211.06,72.468
879.864,222.772,57.096
863.028,240.828,48.312
829.112,245.464,36.356
820.816,243.756,17.324
823.988,225.944,11.224
819.108,199.104,17.812
762.988,159.82,31.476
647.088,104.676,48.312
533.628,21.716,70.272
521.184,8.052,52.216
555.832,64.904,7.32
592.432,81.984,-22.204
600.728,21.472,-11.224
576.816,-55.388,16.104
561.2,-129.076,61.244
588.528,-183.0,107.36
667.828,-196.42,104.432
798.368,-193.98,104.92
964.044,-169.092,82.472
1108.492,-144.936,28.548
1293.444,-130.54,-6.1
1395.192,-143.228,-21.96
1453.752,-177.388,24.156
1433.988,-237.412,52.46
1460.096,-244.244,34.16
1535.004,-170.068,9.516
1625.772,-102.724,-27.084
1614.06,-96.136,-44.408
1550.132,-137.86,-34.892
1497.672,-165.188,-9.76
1432.036,-179.34,-5.368
1331.508,-169.824,-15.86
1267.824,-167.384,-17.568
1220.244,-183.976,-22.936
1157.536,-193.004,-34.404
1113.86,-180.316,-36.844
1088.24,-178.12,-42.944
1046.516,-201.056,-45.628
993.324,-210.572,-41.968
978.928,-205.936,-31.476
979.416,-211.304,-27.816
978.196,-227.652,-30.5
980.148,-240.828,-23.912
999.912,-230.824,-16.592
984.296,-224.968,-11.468
984.296,-221.552,-15.128
995.032,-223.992,-8.296
989.176,-227.652,-9.516
988.2,-230.336,-10.004
982.1,-228.872,1.952
977.708,-218.868,0.0
978.44,-224.48,-0.976
1006.744,-220.332,-4.636
1006.012,-209.84,-2.684
1005.524,-203.984,-5.612
1008.208,-204.96,-8.54
1018.456,-225.212,-11.468
1012.356,-224.48,-8.784
1004.792,-220.332,-2.44
1006.744,-209.352,-9.516
1004.792,-204.96,-16.104
1009.184,-216.672,-12.2
1003.816,-240.584,-6.1
978.44,-235.216,0.732
985.76,-222.04,6.832
1007.476,-215.696,-1.708
993.812,-226.188,-8.784
997.228,-229.116,-9.76
986.98,-226.92,6.344
978.684,-225.7,4.636
996.008,-235.46,17.08
1032.608,-276.696,37.82
1138.748,-270.596,38.308
1316.38,-148.596,-3.416
995.032,65.148,28.548
954.772,185.684,-118.34
648.796,216.916,-164.944
460.184,405.04,-121.756
326.228,589.504,-108.336
516.548,939.644,-67.1
574.132,1276.608,-49.044
423.34,1162.904,-101.504
481.168,1056.764,-259.616
392.108,931.104,-156.892
410.408,917.684,-58.072
240.584,960.628,-24.4
212.768,939.156,-46.36
394.304,919.636,-145.912
332.572,983.076,-99.796
233.264,1010.892,-112.972
213.988,993.324,-107.36
258.152,981.124,-152.744
219.112,985.76,-119.072
187.88,998.936,-105.652
140.3,997.228,-50.264
135.42,973.804,-13.908
81.74,1009.428,-25.62
105.408,928.908,-101.504
111.508,967.704,-137.86
81.252,939.4,-43.92
94.672,927.932,-30.5
143.716,952.332,-109.312
99.308,921.588,-120.048
48.312,943.304,-26.108
46.116,992.592,60.756
84.424,1060.18,16.348
45.872,998.936,5.856
35.868,992.104,3.66
1.22,974.78,23.424
-10.736,955.748,19.276
-25.62,994.056,-0.976
-9.516,996.008,-23.668
36.6,1020.652,-21.716
52.948,1037.488,-45.872
-36.356,992.592,-26.596
-89.548,978.196,-12.932
-59.536,990.152,-20.984
-41.48,1013.332,-26.596
-71.004,1002.84,-40.016
-94.184,983.564,-63.44
-88.816,969.168,-55.388
-53.924,973.804,-41.48
-64.66,959.408,-51.24
-66.368,973.804,-48.068
-64.66,993.324,-64.416
-60.756,986.004,-72.712
-42.212,987.468,-54.656
-41.48,999.424,-25.62
-43.676,982.344,-39.528
-45.14,982.344,-56.364
-71.004,996.008,-63.196
-72.224,1005.768,-64.416
-37.088,990.64,-72.224
-52.46,985.028,-48.312
-74.42,978.684,-42.7
-47.824,980.148,-59.78
-38.308,980.148,-65.636
-40.748,984.052,-61.244
-28.06,999.424,-61.976
-40.748,995.032,-89.792
-60.756,994.3,-79.788
-40.992,1014.308,-58.072
-3.66,1048.468,-86.62
-56.608,1054.568,-80.032
-105.408,1078.724,-77.592
-101.992,1106.052,-91.012
-101.016,1161.44,-103.944
-148.108,1229.516,-84.18
-193.004,1321.016,-63.928
-178.608,1427.4,-37.82
-197.64,1523.536,-48.556
-248.392,1554.768,-20.984
-189.832,1560.624,-15.372
-64.172,1584.78,-35.136
12.932,1638.46,-44.408
-13.176,1650.172,13.664
34.648,1653.588,2.44
28.548,1616.988,-14.64
-72.956,1509.14,-35.624
-63.928,1427.888,-114.436
-16.836,1320.528,-117.364
-34.648,1171.932,-93.452
83.204,1057.984,-50.02
76.616,957.456,-73.688
78.812,847.9,-116.144
64.904,785.192,-89.792
33.916,738.832,-38.064
-13.908,697.596,-56.852
-36.356,613.172,-75.884
-91.988,519.72,-52.704
-133.224,464.088,-45.384
-120.78,401.136,-27.572
-137.86,411.384,-46.848
-196.42,393.572,-39.284
-156.404,441.884,-24.156
-132.736,467.504,22.204
-166.652,485.804,46.116
-200.08,485.804,40.748
-232.044,504.348,-10.492
-277.916,570.716,-7.808
-254.492,662.948,7.32
-262.056,705.648,-7.076
-343.064,666.12,-28.06
-402.6,670.024,-47.092
-405.284,690.764,-51.972
-402.6,731.024,-59.78
-417.24,728.096,-57.828
-415.532,742.492,-60.268
-377.224,739.32,-72.224
-397.964,718.824,-80.032
-391.62,709.308,-77.836
-414.556,705.648,-67.1
-430.416,706.136,-64.904
-405.528,749.08,-60.268
-373.32,812.276,-73.932
-298.9,868.884,-85.4
-310.612,976.976,-62.952
-230.58,1140.944,-3.416
-174.216,1258.064,43.92
2.196,1019.432,-6.1
232.776,549.976,-151.768
305.488,229.604,-201.056
317.688,-51.484,-173.24
-148.352,-208.62,46.848
-141.032,497.516,152.5
844.972,1031.632,287.432
1432.524,655.628,199.836
1327.604,42.212,29.524
1406.66,-68.32,226.432
1573.8,137.86,467.748
1456.68,205.936,373.564
1503.284,161.04,288.896
1557.696,233.02,210.572
1495.964,314.516,147.132
1389.58,287.188,142.252
1311.744,216.184,147.132
1272.46,182.024,173.728
1220.244,113.704,180.316
1119.716,71.492,146.644
1103.368,136.884,130.54
1131.184,222.04,122.244
1076.772,198.128,79.544
1010.16,115.9,77.836
1034.804,77.104,108.092
978.44,83.936,127.368
913.78,136.152,100.284
900.604,232.288,67.588
901.092,266.936,36.6
915.0,219.356,12.444
947.452,173.484,23.424
961.848,161.284,65.88
961.604,188.612,87.596
961.848,195.932,69.54
968.192,186.904,46.36
958.92,188.612,42.456
974.048,190.808,43.188
980.636,193.98,47.824
938.912,193.98,44.164
947.208,194.224,43.92
961.848,208.62,30.744
981.124,227.164,5.856
935.74,210.816,-3.66
887.672,194.712,-4.392
871.812,181.048,16.592
831.064,148.108,18.788
779.336,133.956,8.784
726.388,112.24,-1.708
680.516,77.836,-5.856
642.208,46.604,-5.368
631.716,30.5,-1.708
639.524,12.2,-5.856
596.824,-27.084,-0.732
604.876,-60.756,-0.976
631.96,-100.528,27.572
664.168,-132.492,29.768
635.62,-122.244,8.296
675.392,-105.164,-8.54
758.596,-132.98,-5.612
861.808,-166.652,4.148
993.08,-202.52,11.468
1125.572,-206.18,-13.176
1261.236,-173.972,-70.028
1388.116,-108.092,-106.872
1587.952,-64.416,-129.564
1684.82,-84.912,-124.684
1633.824,-112.728,-117.364
1554.036,-107.36,-116.388
1505.968,-70.516,-126.88
1463.512,-45.872,-130.052
1358.836,-74.42,-149.816
1296.86,-140.788,-151.524
1292.468,-189.832,-136.64
1269.288,-183.244,-121.756
1235.616,-155.672,-114.436
1166.564,-168.116,-109.556
1120.692,-205.204,-94.916
1077.504,-220.088,-81.252
1049.444,-210.572,-88.084
1044.32,-191.784,-83.204
1033.584,-181.78,-87.84
1013.576,-184.952,-89.06
993.568,-198.616,-81.252
966.484,-223.992,-80.764
958.188,-238.632,-81.496
962.092,-223.016,-74.664
968.68,-201.3,-75.884
969.412,-213.5,-74.664
975.512,-226.188,-75.152
965.264,-232.532,-69.296
978.196,-220.332,-64.66
1000.644,-220.576,-77.836
1003.084,-214.476,-86.864
996.496,-213.988,-81.984
984.296,-207.888,-83.936
972.584,-184.464,-85.644
982.832,-180.56,-88.084
1027.728,-173.728,-101.504
1034.56,-188.612,-100.04
1005.524,-191.052,-87.108
923.052,-207.644,-72.224
966.728,-190.32,-86.132
1028.46,-83.936,-61.0
1075.796,54.9,-92.964
1141.92,214.476,-100.04
1084.824,370.148,-113.46
914.268,417.24,-250.588
751.52,608.536,-259.86
292.556,796.416,-228.872
305.488,1170.712,-83.936
773.724,1231.224,-36.112
545.096,1162.416,-49.044
425.536,920.368,-208.62
143.472,745.908,-68.32
149.816,780.556,-120.78
162.016,875.716,-132.004
159.576,890.6,-21.472
158.6,923.052,-2.44
58.072,955.504,-10.492
2.928,899.872,-39.04
-111.264,1021.14,-39.772
-128.588,1033.828,-74.908
-115.9,1082.14,-20.252
-31.964,1064.572,93.452
-104.188,990.396,-127.368
-108.336,838.14,-276.208
-178.852,880.108,-96.624
-199.836,963.556,-92.476
-215.208,981.856,-107.848
-172.264,933.788,-152.256
-105.896,993.324,-106.628
-179.584,1015.528,-57.828
-180.56,993.568,-87.84
-121.024,1029.436,-52.948
-111.508,1042.368,-49.288
-138.348,996.496,-70.028
-133.468,961.604,-78.812
-125.416,959.896,-51.728
-105.896,983.076,-45.14
-106.384,992.592,-49.044
-105.164,986.004,-46.36
-116.388,967.704,-47.824
-108.824,951.844,-73.444
-103.7,955.992,-60.268
-87.596,960.872,-77.836
-138.592,960.384,-41.236
-132.98,989.664,-52.46
-96.868,998.936,-83.692
-83.204,1002.352,-72.468
-98.332,982.832,-81.252
-105.896,967.216,-83.448
-98.088,977.952,-71.492
-100.772,987.956,-76.616
-113.704,989.42,-95.404
-124.196,998.204,-85.888
-103.7,1008.208,-90.768
-93.208,986.248,-105.896
-85.888,971.12,-96.624
-86.132,976.732,-91.256
-110.044,986.736,-83.448
-98.82,997.96,-91.012
-78.812,988.688,-106.872
-63.684,994.544,-96.38
-78.568,986.736,-91.744
-78.08,990.152,-105.164
-95.16,999.668,-84.424
-63.928,1014.064,-70.272
-47.58,1013.576,-88.084
-67.588,1018.212,-86.132
-71.492,1041.636,-86.132
-83.692,1097.268,-85.644
-108.824,1166.808,-84.424
-118.828,1230.492,-101.992
-185.928,1291.492,-130.052
-207.888,1389.092,-130.296
-142.496,1506.456,-140.3
-157.38,1598.932,-98.576
-220.088,1660.42,-85.156
-214.232,1655.052,-70.516
-135.42,1624.064,-123.22
-91.744,1536.956,-167.14
-41.968,1473.76,-117.608
-13.908,1392.02,-100.528
26.108,1318.576,-83.936
13.664,1217.316,-64.416
-4.148,1105.564,-75.396
13.42,1041.636,-107.36
6.344,1014.308,-117.12
-64.904,968.68,-95.648
-38.308,928.42,-83.936
-35.624,872.788,-87.108
-65.392,823.256,-83.448
-107.116,793.244,-83.936
-119.316,778.116,-88.084
-109.556,778.36,-87.596
-89.792,763.964,-72.712
-111.02,738.344,-82.96
-114.192,672.708,-85.156
-173.728,588.528,-78.08
-123.708,524.356,-63.196
-111.752,503.128,-27.816
-124.928,475.8,12.932
-228.384,454.084,-1.22
-234.972,504.592,-23.424
-209.596,533.628,-0.732
-233.264,563.152,27.816
-268.4,573.4,32.452
-348.188,619.516,7.564
-357.216,627.812,-30.744
-329.888,682.224,-22.448
-353.068,707.112,-36.356
-403.82,710.284,-47.092
-420.412,725.9,-64.904
-429.928,760.304,-42.944
-419.68,822.036,-39.04
-421.632,846.924,-69.052
-425.536,856.928,-74.176
-422.364,871.568,-71.248
-434.564,866.444,-66.124
-427.244,863.76,-60.756
-379.176,872.3,-39.04
-381.128,834.48,-35.624
-376.248,766.892,-36.112
-335.012,708.82,-37.576
-292.312,642.452,-30.256
-270.596,597.556,-40.504
-269.864,580.232,-33.672
-235.704,569.496,-18.056
-237.168,568.276,-48.8
-131.028,582.184,-103.944
4.88,608.292,-120.048
156.404,694.912,-167.628
477.752,821.792,-134.932
1095.56,893.528,-152.256
1481.324,1109.224,-25.864
1159.976,835.212,-178.364
484.34,306.708,-160.064
793.732,732.976,321.348
1672.864,770.064,450.668
1605.276,405.772,91.012
1078.236,104.188,63.684
1124.108,244.488,222.284
1264.164,323.056,234.24
1344.196,320.616,139.568
1283.196,344.528,120.78
1140.944,307.928,63.684
1056.032,244.732,47.336
1020.652,234.728,80.52
972.096,283.528,85.888
959.652,290.36,53.436
980.88,276.208,43.92
987.224,260.592,55.388
925.98,253.516,38.064
897.432,266.936,48.312
903.776,271.816,39.528
897.676,272.548,35.38
930.616,276.696,38.064
913.536,271.816,46.116
882.792,261.812,49.044
884.744,249.368,43.92
912.804,259.128,48.556
911.096,277.184,43.92
931.836,299.144,33.428
983.076,299.632,19.52
958.432,285.48,18.788
915.244,268.156,25.132
915.244,232.288,25.132
903.044,232.044,23.424
867.664,251.32,14.152
827.648,250.588,7.076
784.948,203.252,12.2
741.028,158.112,24.156
685.396,118.34,33.672
631.472,79.788,38.552
609.512,54.9,48.8
580.964,15.128,56.608
549.244,-0.732,38.308
602.924,14.64,8.052
668.072,-10.492,3.416
671.244,-80.276,0.0
683.2,-109.8,-13.176
677.1,-119.56,-17.812
729.804,-119.804,-68.808
836.432,-141.52,-45.628
941.84,-197.884,-25.132
1054.568,-265.472,-50.02
1195.844,-267.18,-47.58
1290.516,-234.24,-71.248
1384.212,-199.104,-92.964
1478.152,-133.468,-130.052
1562.82,-114.436,-177.144
1652.368,-83.692,-198.616
1613.328,-62.464,-189.588
1470.588,-84.18,-198.616
1438.624,-99.308,-193.736
1531.1,-88.328,-214.476
1482.788,-103.456,-208.376
1406.416,-119.072,-208.376
1328.58,-136.152,-193.492
1269.044,-146.156,-158.6
1228.54,-167.384,-140.788
1146.068,-192.76,-133.712
1077.26,-210.816,-138.592
1029.924,-215.452,-115.656
988.444,-216.916,-95.404
998.204,-225.456,-95.648
976.732,-230.092,-91.988
918.66,-240.096,-92.476
902.312,-249.368,-77.348
928.42,-255.956,-79.3
954.528,-247.904,-77.104
963.312,-224.236,-69.052
965.996,-228.628,-70.272
960.628,-238.388,-81.74
966.728,-239.364,-77.104
996.252,-212.768,-70.516
1018.944,-200.568,-65.636
1036.024,-203.74,-77.592
1021.14,-222.04,-87.352
1007.476,-220.088,-83.204
1025.044,-189.832,-75.396
1095.56,-122.244,-38.552
1095.316,-71.248,6.588
1094.828,-28.06,-13.908
970.144,-9.76,16.348
885.964,62.464,0.732
751.276,260.348,-59.048
553.88,544.12,-213.256
429.44,771.284,-230.336
-68.076,1024.068,-80.276
420.412,1268.556,177.876
681.248,1217.804,89.548
211.548,1051.884,119.56
116.632,783.484,-148.84
370.88,898.408,-353.068
409.92,1107.028,-369.904
556.564,813.74,-371.124
258.396,1067.744,185.684
-12.2,1081.896,444.08
-330.62,1100.196,415.044
-416.996,1172.176,154.696
-234.972,1052.86,-155.428
-50.508,1021.384,-187.636
-128.832,1062.62,39.528
-86.62,1116.056,13.176
-21.716,1130.208,-13.664
-95.404,1097.512,-2.196
-113.948,1047.004,-32.208
-59.292,1001.864,-80.52
-70.516,990.152,-62.708
-37.82,992.348,-67.1
-30.744,964.044,-80.032
-5.856,955.016,-72.468
7.808,952.576,-58.56
-23.912,939.888,-58.56
-16.592,949.404,-84.18
-40.992,966.972,-56.364
-23.912,992.104,-52.46
-27.572,1027.484,-55.388
-60.024,1000.888,-94.184
-62.464,970.632,-105.408
-67.344,964.044,-56.608
-51.24,990.152,-66.368
-45.628,1008.452,-73.2
-40.26,1015.772,-65.392
-43.188,999.18,-84.18
-30.012,984.54,-93.452
-37.576,981.612,-58.072
-39.284,1006.744,-45.384
-54.656,998.448,-63.44
-53.436,975.512,-72.956
-51.972,962.092,-74.42
-65.148,958.432,-81.496
-50.996,978.684,-84.912
-47.336,982.344,-73.688
-39.284,986.736,-65.88
-37.088,965.264,-64.416
-35.38,965.508,-80.276
-83.204,971.608,-84.18
-59.78,988.688,-75.396
-29.524,1002.352,-61.976
-28.06,1009.916,-71.492
-29.036,1049.2,-66.612
-54.9,1078.724,-52.216
-86.376,1080.432,-55.632
-80.52,1077.748,-59.292
-77.348,1053.836,-52.46
-65.392,1031.876,-71.248
-82.716,1024.8,-81.008
-90.768,1028.46,-75.152
-61.976,1045.784,-72.468
-77.104,1049.932,-79.788
-71.004,1073.844,-75.884
-76.372,1115.08,-41.724
-100.04,1175.836,-30.5
-117.608,1266.116,-34.404
-164.456,1412.516,-10.248
-202.032,1537.2,-30.988
-197.884,1626.748,-44.164
-207.888,1654.076,-60.756
-149.084,1660.176,-63.928
-159.332,1647.976,17.812
-131.272,1598.688,-11.956
-58.56,1540.372,-38.552
12.932,1462.78,-94.184
41.236,1360.056,-96.136
45.14,1256.356,-91.256
5.856,1138.504,-71.492
56.852,1009.916,-120.292
99.308,943.792,-150.304
113.948,843.996,-131.516
102.48,897.188,-102.968
-6.588,758.108,-73.444
25.864,763.72,-56.364
56.12,742.98,-88.084
42.212,704.916,-69.54
63.44,775.676,-121.756
27.328,665.144,-117.852
-79.3,488.244,-88.328
-21.96,552.172,-120.78
61.976,649.04,105.652
115.9,610.732,-41.724
-145.912,456.768,-7.564
-197.396,461.892,-124.684
-300.364,493.368,-75.884
-255.224,486.78,10.98
-146.4,559.736,29.768
-127.368,644.404,44.652
-275.72,706.136,4.392
-358.192,684.908,21.228
-274.256,736.636,-9.76
-248.148,753.96,-64.66
-202.52,916.22,5.612
-301.096,935.252,83.204
-267.18,911.096,29.036
-258.152,986.004,-39.772
-376.248,928.176,-32.208
-319.152,990.884,14.64
-262.056,1007.232,19.52
-286.7,940.62,20.252
-309.636,892.064,29.28
-324.032,870.836,23.668
-317.688,886.452,38.552
-311.1,905.972,36.6
-301.828,909.876,21.716
-315.736,913.536,14.884
-323.788,902.556,8.296
-320.372,861.564,-5.612
-329.156,801.784,-11.956
-359.9,767.868,0.976
-320.616,739.808,19.764
-323.3,664.9,-9.516
-311.344,677.832,-3.172
-342.576,549.732,-24.888
-258.152,555.588,-39.772
-223.016,575.84,2.928
-78.568,623.908,79.056
38.308,660.02,95.404
123.464,691.496,31.964
486.048,840.58,-30.5
890.356,1081.652,-96.136
1024.8,1203.896,-178.852
734.684,963.8,-243.756
87.108,424.56,-176.412
-533.14,80.276,197.152
1056.52,648.552,424.316
2240.164,761.036,578.524
1516.948,296.948,-100.04
1123.132,50.752,-8.296
1401.536,205.448,264.496
1397.388,97.6,118.584
1429.84,103.944,90.524
1364.936,166.164,112.24
1271.24,111.996,63.928
1260.748,95.892,41.48
1164.856,158.844,27.572
1116.056,198.616,28.06
1113.86,191.296,17.812
1086.288,130.784,-5.856
1036.268,84.668,-6.344
1002.352,90.768,18.056
980.88,117.852,43.92
977.464,149.084,64.416
977.708,135.664,26.108
946.232,131.516,17.08
921.1,120.048,-2.928
899.628,137.86,18.3
916.464,175.436,39.04
921.588,178.608,43.676
934.032,152.744,-7.564
919.392,145.18,-21.228
885.232,136.396,-19.276
857.904,138.348,1.464
853.268,157.38,3.416
833.26,146.888,-16.348
792.512,132.736,-30.744
710.772,126.148,-30.988
624.152,86.62,-10.004
611.952,45.628,16.836
629.032,10.492,30.5
631.716,-11.956,29.036
587.552,-32.696,9.76
573.4,-20.984,1.952
597.312,-33.916,-5.856
600.24,-82.472,-25.864
633.424,-146.4,-39.528
713.212,-186.904,-55.876
823.988,-188.368,-82.472
856.928,-162.748,-75.64
823.744,-208.132,-79.056
933.544,-306.22,-131.76
1143.14,-350.872,-145.424
1330.776,-357.46,-142.984
1387.14,-345.992,-130.784
1436.428,-322.812,-163.236
1520.364,-295.24,-179.828
1569.652,-283.04,-174.46
1603.568,-292.556,-171.288
1603.812,-306.952,-182.756
1573.556,-301.828,-213.988
1552.572,-284.016,-214.72
1539.396,-262.544,-203.74
1467.904,-237.656,-203.984
1357.86,-257.664,-214.476
1292.468,-274.5,-196.176
1207.312,-291.092,-161.284
1112.152,-295.24,-118.584
1016.504,-329.888,-95.404
980.636,-355.264,-92.232
960.872,-339.648,-82.228
934.276,-301.096,-81.984
863.272,-323.544,-96.868
841.068,-325.74,-87.352
863.516,-317.932,-107.604
849.852,-303.536,-90.768
863.76,-302.072,-97.112
958.676,-282.552,-123.952
958.92,-265.96,-72.956
954.528,-286.456,-124.928
921.588,-256.688,-105.164
989.42,-235.948,-112.972
1032.364,-215.94,-157.136
1022.848,-208.132,-172.264
994.3,-229.848,-149.084
957.456,-211.06,-118.096
994.544,-207.156,-142.984
1019.676,-229.116,-150.06
987.956,-194.712,-136.152
1003.084,-166.408,-115.168
998.692,-162.748,-142.252
1032.12,-157.868,-162.26
1076.528,-161.284,-152.5
1100.44,-179.828,-144.692
1085.068,-178.364,-149.084
1069.94,-140.544,-125.172
1067.012,-118.828,-131.76
1038.464,-108.336,-135.908
1040.416,-15.372,-110.532
999.668,1.708,-103.212
859.856,163.48,-67.1
623.42,308.904,-118.828
541.436,437.98,-210.084
-3.904,705.404,-171.532
224.724,913.78,-204.472
384.3,1704.096,17.568
751.032,1618.696,101.016
1522.804,1197.064,-427.244
362.096,818.376,-39.284
-197.884,702.964,122.976
136.396,681.004,-95.648
326.228,784.46,-93.452
233.508,804.956,-107.36
-11.224,916.708,-51.24
-25.864,1021.628,-99.552
-42.944,1086.776,-149.816
-48.556,1091.656,-121.512
35.136,1057.496,-175.192
54.9,1035.78,-153.72
-1.22,1045.784,-99.552
-66.856,1047.004,-181.292
-101.016,1028.216,-210.572
-17.08,1052.372,-148.596
73.2,1086.532,-74.664
103.944,1055.544,-37.576
19.52,960.872,-124.44
-71.736,941.84,-176.9
-84.912,972.828,-129.564
21.472,1001.62,-90.768
70.76,975.756,-88.328
25.62,929.884,-111.508
7.32,913.78,-128.588
6.1,935.252,-123.22
4.88,950.38,-100.284
21.716,955.016,-111.752
-29.036,960.384,-122.244
-41.236,984.54,-135.908
2.684,999.18,-147.376
17.812,999.424,-142.252
10.004,988.688,-122.976
-15.372,966.24,-166.408
-14.884,969.412,-157.624
17.812,1005.524,-127.856
19.52,1030.168,-107.848
10.736,1026.02,-127.612
29.036,1006.744,-137.86
68.32,1011.624,-102.236
45.628,1010.404,-73.2
53.192,1026.264,-40.016
73.688,1027.728,-64.416
36.356,997.228,-80.764
-1.952,962.336,-102.968
14.152,952.82,-99.796
52.46,966.728,-86.132
63.196,978.44,-100.528
13.176,960.384,-126.636
16.104,962.58,-149.572
43.432,984.052,-137.372
29.036,985.272,-148.108
11.224,965.996,-168.848
39.528,979.172,-137.86
60.512,977.952,-112.484
33.672,960.14,-107.116
15.86,940.132,-120.536
41.48,937.936,-103.456
66.612,943.792,-81.252
69.296,944.524,-76.372
25.376,936.716,-165.188
30.256,981.368,-120.048
40.26,1037.0,-97.844
53.924,1027.484,-117.608
47.824,1008.208,-118.828
32.208,984.052,-110.532
55.388,972.584,-99.552
68.564,967.46,-87.352
60.756,973.56,-101.26
66.368,974.78,-109.8
81.252,986.98,-107.604
62.22,998.692,-109.312
17.08,1017.236,-103.456
35.136,1012.112,-112.484
36.844,979.172,-132.736
36.112,979.172,-131.272
19.276,1001.132,-104.188
51.24,1004.548,-100.284
80.52,993.812,-83.936
72.468,981.856,-83.936
74.908,983.32,-86.132
61.488,992.836,-82.716
56.364,998.692,-89.304
72.468,995.276,-104.92
54.656,977.22,-117.852
67.344,992.348,-84.18
104.676,1007.964,-70.76
96.136,1024.556,-61.244
58.072,1024.8,-91.5
53.924,1026.752,-103.7
41.48,986.248,-108.824
66.612,982.588,-92.72
90.524,1013.332,-35.624
87.108,998.936,-57.34
88.084,971.364,-89.548
91.744,965.02,-96.868
65.148,958.92,-101.26
40.748,937.448,-157.136
10.736,933.3,-173.972
63.684,989.176,-96.624
82.96,1021.872,-123.464
46.604,1025.532,-147.376
39.284,1068.964,-101.26
-108.824,1083.36,-112.728
60.756,1147.776,-152.988
14.396,1165.588,-133.712
51.972,1161.684,-91.744
40.504,1147.776,-113.704
31.964,1126.548,-92.72
33.916,1109.468,-83.936
16.104,1144.116,-112.24
29.768,1090.436,-149.084
26.84,1154.852,-157.136
-10.736,1088.972,-145.18
-12.932,1052.616,-173.484
-50.752,1066.768,-176.412
-71.736,1077.26,-157.136
0.488,1045.54,-170.8
-0.976,1039.928,-154.94
-29.28,1008.94,-126.148
21.472,941.84,-146.644
45.384,879.132,-147.132
82.716,842.532,-126.392
124.928,819.352,-131.76
81.252,880.84,-115.412
60.024,1045.784,-65.148
-83.448,1196.332,-10.98
-70.76,899.872,-99.552
-40.016,727.852,-236.436
3.416,1009.672,-205.204
75.396,942.328,-206.912
65.636,990.64,-225.944
-32.208,947.452,-202.764
-23.18,1112.64,-159.088
-20.252,1185.352,-94.428
-46.36,1064.572,-20.252
30.5,1039.44,-32.208
41.48,1073.112,-47.336
42.944,1118.008,-51.484
72.712,1160.464,-9.028
79.788,1116.788,-16.592
43.432,1169.248,-56.608
50.264,1210.728,-8.784
-34.404,1313.452,85.888
-221.064,1299.056,-10.004
173.484,1278.56,-60.268
302.316,1387.14,-98.332
125.904,1242.204,-110.288
31.964,1154.852,-93.696
-53.192,1112.396,-32.208
-148.108,1084.092,28.792
-65.88,1018.7,-46.848
-173.24,863.028,-47.336
-188.124,809.592,-24.156
-149.328,722.728,-31.72
-221.796,753.472,23.668
-183.0,748.836,-54.168
-154.94,714.676,-34.648
39.04,711.504,-99.552
104.92,757.62,-69.784
162.748,696.62,-140.788
88.328,755.912,-100.772
58.072,793.976,-66.856
-0.732,813.984,-42.456
-87.596,797.636,-45.384
-118.096,814.228,-77.592
-116.388,790.072,-105.164
-163.236,779.58,-126.392
-208.376,779.092,-151.768
-289.384,783.484,-141.52
-314.272,816.912,-147.376
-328.912,836.676,-140.544
-273.768,830.332,-128.832
-273.524,829.6,-120.78
-306.708,851.072,-117.364
-293.044,867.42,-172.02
-328.668,938.668,-154.94
-290.36,963.312,-158.844
-227.652,978.684,-156.404
-254.004,972.584,-161.528
-250.588,973.316,-141.764
-273.768,964.044,-135.908
-321.836,942.572,-116.388
-330.132,929.64,-132.248
-332.084,919.88,-112.972
-321.348,902.556,-107.848
-326.472,872.788,-88.572
-358.192,868.396,-88.572
-351.36,850.584,-89.792
-345.748,848.388,-94.184
-341.356,855.952,-84.668
-317.688,869.128,-101.504
-335.256,867.664,-113.704
-326.96,870.104,-130.052
-336.72,867.664,-125.66
-323.3,870.592,-116.632
-317.688,859.612,-104.432
-332.328,848.388,-94.916
-358.924,855.464,-95.648
-361.364,863.516,-110.288
-383.812,859.124,-128.832
-452.62,821.304,-163.968
-543.632,780.312,-164.212
-569.984,750.544,-155.916
-570.228,731.512,-132.98
-470.188,661.728,-71.004
-420.656,494.588,-51.972
-383.812,430.66,-22.692
-150.06,391.132,-43.432
185.44,312.564,74.42
688.08,472.628,123.464
1043.832,379.908,128.832
1066.036,479.948,212.524
1407.148,49.044,80.032
1242.936,465.064,-34.648
1174.128,437.248,60.024
1397.144,470.432,135.908
1371.28,374.784,257.176
1173.64,177.388,238.632
1118.252,132.492,305.976
1126.304,177.144,325.252
1186.084,164.456,275.72
1092.632,117.364,289.872
960.872,121.268,250.344
878.888,147.62,213.012
833.016,186.172,176.412
782.02,235.46,125.66
687.836,243.756,100.284
721.996,221.308,104.92
749.08,169.336,130.784
706.136,154.208,148.352
675.88,140.056,167.14
757.376,143.716,162.016
865.956,118.096,147.132
907.68,79.544,136.884
890.844,61.732,145.668
857.172,32.696,162.992
904.752,26.352,145.668
937.204,48.068,100.528
910.12,45.384,76.86
885.72,14.884,78.08
920.124,-14.152,94.672
856.196,-70.76,98.82
874.496,-102.236,108.092
911.096,-145.912,121.024
921.1,-163.724,109.312
939.156,-158.112,116.876
929.152,-223.016,136.884
890.356,-252.296,117.608
930.616,-282.796,127.124
989.42,-303.048,136.396
967.704,-342.332,113.948
965.02,-366.0,96.624
1025.532,-366.244,71.004
1133.38,-366.488,85.888
1224.392,-396.988,95.648
1273.924,-405.284,90.768
1247.084,-413.58,95.404
1232.2,-433.832,77.836
1252.696,-461.404,77.104
1295.64,-461.648,101.748
1384.212,-466.284,81.984
1376.16,-483.608,147.132
1446.92,-484.828,122.488
1420.324,-465.796,148.596
1433.988,-401.624,151.524
1407.148,-334.28,158.356
1321.992,-353.068,162.016
1218.536,-314.028,119.072
1120.936,-144.448,27.816
1041.88,-58.804,-61.488
975.268,268.4,-78.08
932.324,303.78,-75.64
930.372,465.064,-106.384
944.28,575.596,-169.092
825.696,759.816,-149.328
866.932,1018.944,-190.32
874.496,1008.94,-88.328
767.624,1002.84,-75.64
594.628,861.076,-60.512
416.752,703.94,-69.54
258.396,671.488,-183.488
195.444,683.444,-177.876
243.268,665.144,-145.18
169.336,729.804,-39.772
78.812,677.832,-88.084
-182.268,694.18,-72.468
-182.268,746.64,-131.76
-145.668,826.916,-180.316
-67.832,989.42,-193.004
-50.02,1098.732,-214.232
-29.28,1135.576,-232.044
-12.2,1128.5,-249.368
11.468,1095.56,-249.856
33.916,1069.696,-264.008
58.804,1075.308,-215.94
79.788,1081.164,-191.54
87.352,1073.6,-173.728
111.508,1063.596,-161.772
124.928,1067.256,-157.136
99.552,1050.664,-158.6
91.744,1057.984,-155.916
74.176,1109.224,-111.264
68.076,1182.912,-107.36
-4.636,1265.872,-118.828
-18.056,1360.544,-138.836
15.616,1495.232,-158.356
-1.952,1584.536,-143.472
4.88,1642.852,-127.124
-13.908,1630.408,-121.268
10.736,1551.84,-132.492
20.74,1455.704,-87.596
93.94,1352.248,-88.084
117.364,1320.284,-129.808
97.356,1282.464,-131.516
71.98,1251.72,-106.384
93.452,1212.68,-111.02
89.792,1155.34,-94.184
42.212,1097.268,-48.8
-7.076,1012.844,-19.276
-47.336,921.344,-31.476
-18.544,862.296,-82.716
22.936,845.46,-130.052
-39.528,792.512,-99.064
-90.524,741.76,-59.536
-21.716,679.052,-61.488
32.208,601.704,-35.624
45.872,589.748,-2.44
-3.904,629.276,71.492
-48.8,629.52,64.904
-96.868,638.548,35.868
-98.088,659.044,-56.852
-106.872,660.508,-38.308
-122.732,661.728,-17.812
-159.332,653.92,-23.912
-218.136,623.176,11.224
-252.296,608.78,30.256
-262.056,615.368,17.568
-236.68,661.484,-25.376
-265.96,670.268,-21.716
-244.488,711.016,-23.912
-261.324,715.896,-43.432
-285.724,726.876,-41.724
-305.732,761.036,-81.252
-311.588,797.148,-112.972
-313.784,816.424,-127.612
-322.812,808.128,-141.764
-348.92,793.488,-117.852
-375.516,784.948,-122.732
-406.504,780.8,-119.804
-385.032,768.112,-124.196
-285.724,787.388,-90.524
-179.096,858.636,-13.42
98.332,813.984,-40.504
282.064,856.44,55.632
518.988,595.848,-78.568
802.516,417.728,-40.26
1001.864,246.928,-19.52
778.116,472.384,14.64
1018.456,674.904,26.352
1421.056,859.368,165.676
1397.876,643.672,132.492
997.472,301.584,98.088
787.388,199.348,178.364
820.328,280.6,252.296
859.368,373.076,200.324
826.672,444.568,160.796
824.72,420.168,137.616
896.944,339.648,139.568
983.32,299.876,188.368
1054.08,331.352,206.912
1040.416,369.416,178.852
974.78,370.148,142.008
928.176,326.228,131.76
855.708,278.648,123.708
821.304,265.228,116.144
805.688,270.108,125.66
769.576,247.416,112.972
742.736,250.588,100.284
711.748,244.732,100.284
697.352,213.744,85.644
757.132,213.988,97.112
810.568,209.84,94.672
823.256,186.172,70.028
859.368,176.412,76.86
880.596,166.896,93.696
874.008,137.86,83.692
873.52,119.316,86.376
891.332,113.948,98.332
946.964,86.62,100.284
990.396,62.708,104.188
993.08,62.464,104.676
979.416,24.156,114.192
998.936,-36.356,126.392
1003.084,-58.072,151.28
994.056,-57.096,148.84
979.172,-64.416,125.172
970.144,-100.04,111.264
939.156,-137.128,98.82
872.788,-193.248,122.488
828.38,-229.604,137.372
843.264,-243.512,111.264
887.428,-250.588,93.696
927.932,-256.444,105.652
987.956,-291.58,140.3
1104.588,-319.884,162.748
1223.66,-324.276,173.972
1299.056,-324.276,186.66
1362.984,-310.124,185.196
1394.216,-297.436,184.22
1408.368,-286.944,185.196
1383.968,-284.26,174.704
1358.104,-271.572,170.312
1365.18,-260.348,168.116
1336.144,-263.764,163.236
1297.104,-238.632,154.696
1230.98,-232.532,142.984
1184.376,-245.952,120.292
1159.0,-252.052,119.56
1169.736,-226.188,129.076
1146.068,-205.448,122.0
1087.752,-175.68,104.676
1035.292,-155.916,97.844
998.692,-130.784,91.256
981.856,-84.668,72.712
1004.304,6.1,-4.88
1026.996,24.888,-48.8
974.78,89.792,-79.788
928.176,169.092,-121.512
837.408,169.58,-162.992
544.608,232.532,-184.708
369.416,339.648,-264.496
323.056,602.436,-92.476
468.968,931.836,-71.98
333.792,1305.644,40.016
582.916,1278.804,-33.184
389.424,1093.852,-63.196
128.344,1063.596,-130.052
70.516,1028.46,-101.992
-4.636,1088.728,-137.128
42.944,954.528,-158.356
-130.54,1254.16,-100.772
87.596,1208.776,-159.576
166.164,1214.632,-138.348
122.732,1086.044,-143.96
11.468,1003.816,-156.892
54.412,992.348,-167.872
113.948,987.224,-185.196
145.18,960.384,-199.592
82.228,933.544,-165.188
24.888,885.476,-187.392
63.928,882.304,-230.092
82.228,900.116,-220.088
87.352,935.008,-210.816
78.568,974.292,-197.884
87.108,980.636,-171.776
96.868,971.852,-165.676
77.592,960.628,-173.972
55.876,936.228,-171.776
69.54,971.364,-174.704
76.616,1021.384,-155.916
66.612,1053.592,-140.544
59.536,1048.712,-153.232
47.824,1014.308,-170.068
43.92,983.564,-165.92
63.196,975.756,-157.868
71.492,979.66,-139.324
75.64,970.632,-150.792
79.3,958.432,-154.208
74.664,959.164,-153.964
77.348,962.824,-151.036
72.712,976.488,-142.984
62.708,974.78,-156.648
48.556,962.336,-165.432
53.68,978.928,-172.508
49.288,995.764,-154.696
48.312,997.716,-153.72
45.14,973.804,-155.916
56.852,958.92,-157.624
58.804,958.676,-156.648
62.952,971.852,-159.088
72.468,987.712,-154.94
74.42,981.856,-155.184
65.392,959.652,-165.92
53.192,957.212,-163.724
61.0,974.048,-161.04
65.148,988.2,-162.26
59.292,992.592,-158.6
54.656,993.324,-157.624
62.952,990.152,-149.084
75.64,990.884,-151.28
51.972,986.004,-148.84
57.34,987.956,-153.72
72.224,996.252,-145.668
72.224,989.908,-145.668
71.248,984.54,-133.956
78.812,978.928,-137.86
85.644,971.364,-140.056
59.536,957.456,-137.372
59.048,964.532,-149.084
63.684,978.44,-151.524
59.78,979.66,-148.596
66.612,982.344,-157.624
57.34,974.536,-160.308
53.192,976.0,-163.724
52.948,980.88,-162.26
64.416,1003.328,-152.988
54.168,1007.72,-143.228
57.584,992.348,-146.156
54.412,968.68,-149.084
54.656,961.604,-149.084
56.852,970.876,-136.152
73.932,962.336,-149.816
67.588,967.704,-148.84
66.124,974.78,-142.496
66.124,972.34,-144.448
64.66,960.872,-149.328
56.608,967.704,-145.668
60.756,975.756,-146.644
65.148,991.372,-154.94
59.78,998.692,-152.744
59.536,1004.548,-154.94
52.216,1002.108,-161.284
39.04,990.884,-156.648
46.116,992.592,-162.26
45.14,992.592,-156.892
45.384,986.98,-150.548
55.876,962.336,-163.48
47.58,960.628,-156.648
61.976,966.972,-151.036
68.32,972.096,-149.816
63.928,964.532,-154.696
56.608,969.168,-150.304
57.828,972.096,-148.84
57.34,974.048,-149.328
52.704,977.22,-151.28
50.508,981.856,-148.596
50.508,983.808,-147.864
43.92,980.148,-147.376
38.064,986.492,-150.06
42.456,996.008,-149.328
44.652,991.128,-149.084
56.364,980.392,-147.62
61.732,981.612,-141.276
60.756,987.224,-138.348
57.584,981.612,-137.128
