acc_x[mg],acc_y[mg],acc_z[mg]
-26.84,969.656,-34.404
-38.064,972.828,-41.48
-41.236,979.416,-51.484
-47.58,988.688,-58.804
-54.412,989.176,-57.34
-65.392,982.832,-51.972
-60.756,974.78,-47.092
-47.824,973.804,-42.944
-35.136,976.732,-33.916
-25.132,984.54,-31.232
-18.3,992.348,-33.672
-12.932,997.716,-34.404
-19.764,1001.132,-33.184
-25.132,997.96,-32.94
-29.036,989.176,-30.744
-28.548,985.272,-26.108
-34.404,986.98,-27.084
-33.184,987.712,-33.428
-34.892,986.98,-32.94
-38.796,982.588,-34.404
-40.26,981.124,-40.016
-40.26,983.32,-43.676
-36.6,988.688,-44.896
-37.82,984.784,-43.432
-39.284,982.832,-34.648
-41.968,976.976,-23.912
-41.48,966.972,-20.74
-44.652,958.432,-19.032
-37.576,953.308,-15.372
-36.356,952.332,-14.884
-31.964,957.212,-19.032
-30.988,968.192,-22.448
-25.132,986.98,-26.352
-25.62,997.228,-28.792
-34.648,1002.108,-36.112
-41.968,1006.256,-37.576
-44.652,1009.916,-38.796
-43.432,1018.456,-47.824
-39.528,1023.58,-52.704
-30.256,1022.116,-55.876
-31.476,1011.868,-48.068
-26.84,1007.232,-38.308
-22.692,1000.888,-29.768
-21.228,995.764,-25.376
-19.764,991.86,-20.984
-14.884,996.496,-20.496
-13.908,998.692,-24.4
-15.616,1001.376,-25.376
-24.888,996.74,-22.936
-37.82,989.664,-18.056
-43.92,991.86,-16.592
-50.264,991.616,-21.716
-43.676,1000.888,-29.036
-37.82,1000.888,-29.28
-26.352,1000.644,-28.06
-24.644,997.96,-25.376
-16.592,995.276,-21.716
-19.276,989.42,-15.86
-34.648,986.736,-7.076
-33.916,981.124,-10.492
-23.424,987.956,-16.836
-20.496,992.836,-24.644
-31.476,996.984,-30.5
-32.696,1001.376,-37.088
-30.5,1007.476,-32.696
-37.576,1006.744,-27.572
-44.408,1006.256,-29.768
-39.284,1000.156,-31.232
-35.136,997.716,-31.232
-36.112,994.788,-30.5
-40.016,998.204,-30.744
-44.896,998.448,-33.428
-44.164,990.884,-30.5
-43.676,987.956,-28.06
-49.044,983.32,-17.568
-24.644,979.172,-20.496
-34.648,986.736,-20.74
-36.844,985.516,-20.252
-36.356,985.516,-24.4
-40.504,985.76,-27.572
-44.164,977.464,-36.112
-41.724,974.048,-37.576
-50.508,973.804,-37.332
-61.244,972.584,-36.356
-60.512,970.144,-37.82
-59.292,974.536,-37.576
-57.34,975.756,-37.088
-58.316,975.268,-33.184
-54.656,979.66,-31.964
-57.096,984.052,-31.72
-65.392,992.592,-29.036
-56.364,995.032,-38.064
-53.436,1006.5,-42.456
-46.848,1017.724,-41.724
-42.212,1017.968,-40.992
-51.728,1014.796,-35.136
-46.604,1006.744,-36.6
-43.432,1002.352,-33.428
-49.532,999.18,-27.084
-54.656,992.104,-24.156
-62.464,987.956,-18.056
-74.908,981.368,-13.42
-86.62,976.488,-10.492
-106.628,970.876,-9.028
-125.172,962.58,-17.08
-139.324,961.116,-23.668
-139.08,958.188,-34.16
-130.54,960.872,-45.628
-110.288,968.68,-59.048
-99.796,971.608,-67.1
-95.404,965.508,-71.736
-81.252,962.336,-77.348
-76.372,953.796,-80.764
-45.14,962.092,-83.936
-30.012,978.684,-79.544
-21.472,983.076,-76.128
2.44,993.324,-65.148
5.124,1000.156,-32.208
-39.772,987.712,-1.708
-119.072,966.972,23.18
-170.556,920.856,54.656
-170.556,889.38,58.072
-1.464,889.38,69.296
232.044,764.94,-16.104
443.836,646.356,-37.82
700.28,767.38,-66.368
935.74,464.332,-163.968
1071.648,512.888,-119.56
896.456,572.18,-133.224
615.124,349.896,57.584
860.588,247.66,263.764
1266.116,120.292,499.224
1478.396,0.244,510.204
1389.092,-11.224,490.928
1256.356,81.008,443.592
1142.652,155.672,335.744
1054.568,127.368,256.2
868.396,64.172,231.556
621.224,24.888,198.128
531.432,-0.976,198.128
550.464,21.96,208.376
575.596,47.58,177.388
588.284,67.1,129.32
573.888,66.856,77.592
579.5,73.688,47.824
586.088,53.924,45.872
617.32,35.624,67.1
652.212,8.784,104.676
708.088,-42.212,138.592
691.984,-96.136,167.628
678.564,-129.564,176.412
678.32,-115.168,192.028
682.468,-111.508,174.704
775.432,-114.68,166.652
921.588,-152.5,169.824
1049.444,-180.56,210.328
1038.22,-238.876,217.648
1029.436,-275.964,211.304
1055.544,-288.652,228.384
1045.54,-288.652,244.732
1039.928,-310.612,244.244
1012.356,-350.628,254.736
1022.848,-388.692,272.304
1059.204,-414.068,281.82
1097.512,-412.848,266.448
1103.612,-395.036,220.82
1097.268,-394.304,197.152
1128.5,-409.188,192.76
1215.852,-435.784,234.972
1240.984,-455.304,267.424
1267.336,-456.768,285.236
1302.716,-446.52,296.216
1343.22,-411.872,283.04
1362.252,-397.232,278.648
1343.708,-382.104,281.576
1282.708,-393.816,269.376
1232.932,-380.396,248.88
1272.46,-305.244,155.428
1258.552,-142.984,204.716
1404.464,-21.228,156.892
1483.764,28.792,122.976
1524.756,127.124,134.932
1553.06,214.232,62.708
1556.964,301.828,-114.68
1361.032,481.656,-41.236
888.892,465.064,299.876
628.544,702.72,384.3
696.376,1246.84,-43.676
545.34,1003.572,307.44
587.552,821.792,299.388
132.736,490.928,150.548
-37.82,572.18,-131.028
-33.428,460.672,-366.732
42.212,310.368,-378.2
33.916,411.628,-123.464
-44.408,582.184,-36.356
-76.616,762.744,-29.524
47.336,896.456,-30.988
232.776,1063.352,-65.636
194.468,1146.556,-65.392
209.108,1185.596,-77.348
188.124,1179.74,-24.644
128.832,1150.704,25.864
137.128,1120.692,-3.416
227.652,1071.648,-14.884
208.132,1059.448,-17.324
131.028,1066.768,-17.812
138.836,1061.156,-56.12
125.416,1017.968,-44.896
149.328,1000.4,-40.26
146.644,1007.72,-49.532
202.52,1027.24,-59.536
215.452,1018.7,-19.276
214.964,1021.384,-23.912
182.024,1048.712,-37.332
208.132,1060.668,-17.08
228.14,1062.376,-11.468
191.784,1029.68,-11.956
168.36,1023.336,-32.94
136.152,1048.468,-53.924
156.892,1104.1,-27.084
171.044,1172.42,-9.028
161.284,1218.536,-66.856
161.772,1269.288,-85.156
130.54,1341.268,-98.576
120.536,1342.244,-112.484
66.612,1378.6,-71.736
82.96,1481.568,-150.06
67.344,1325.896,-90.28
90.524,1385.432,-136.64
87.596,1416.42,-191.296
104.676,1387.872,-189.832
79.544,1366.156,-214.476
61.0,1311.256,-206.912
153.964,1303.204,-176.656
124.684,1257.088,-146.4
97.6,1202.92,-110.288
-5.124,1011.624,-81.74
103.212,1090.924,-127.856
-132.248,886.94,3.66
-4.88,1006.256,-173.24
-20.252,1059.936,-155.184
11.956,1081.896,-46.36
-14.884,997.228,4.148
-54.9,861.076,-68.076
4.636,806.42,-48.312
24.4,889.136,1.952
28.548,892.064,37.088
20.252,878.156,10.248
13.42,832.772,22.936
-8.54,773.48,50.264
-108.58,723.948,44.164
17.568,664.168,-119.56
-243.268,650.016,129.564
-117.608,621.956,5.368
10.736,565.348,-64.416
-100.04,554.368,85.888
-18.544,548.756,6.832
-75.152,559.004,27.816
33.428,635.376,29.036
65.392,683.688,17.324
-16.836,681.736,11.712
-66.856,698.328,20.252
-70.76,729.56,5.368
-41.236,796.172,-23.668
-51.972,852.78,-51.24
-45.384,862.54,-88.572
-86.376,861.076,-91.988
-95.16,889.624,-76.86
-57.096,914.756,-51.24
-110.288,923.784,-97.6
-133.224,885.232,-61.0
-200.812,889.38,-104.676
-172.752,894.016,-80.52
-185.684,910.12,-70.516
-164.456,900.116,-64.904
-198.86,909.388,-49.044
-203.252,897.92,-37.576
-255.224,876.936,-34.404
-230.824,873.276,-14.64
-142.252,764.696,-6.832
124.684,730.292,-13.42
695.644,649.528,47.824
690.764,530.944,19.276
733.708,364.536,-73.932
601.948,406.748,-215.452
543.388,476.288,175.436
1225.612,496.296,444.324
1622.112,-92.476,473.116
1554.768,-206.18,369.904
1422.764,-57.828,508.496
1356.884,205.204,352.336
1203.896,226.92,164.456
1116.544,252.784,124.44
1043.588,190.32,121.024
1007.964,75.396,148.352
966.972,56.608,157.624
956.48,116.876,162.748
954.284,154.452,117.12
887.672,147.132,83.936
868.884,159.576,86.132
825.208,121.024,100.772
771.772,69.296,102.968
662.46,31.232,123.952
505.08,54.9,101.016
344.284,95.16,42.212
292.068,112.972,2.196
322.812,84.18,-4.148
357.46,-1.708,34.892
416.752,-93.452,104.676
527.04,-173.24,151.036
554.124,-172.508,107.36
506.544,-149.572,40.992
451.4,-168.604,34.16
495.808,-199.592,82.472
725.168,-288.164,144.692
949.16,-400.892,211.548
991.128,-491.416,193.004
964.044,-416.264,184.22
952.088,-350.384,193.98
1128.012,-348.676,212.28
1317.112,-406.016,264.984
1461.072,-477.264,319.64
1524.024,-511.424,389.668
1476.932,-516.06,409.92
1494.5,-490.196,391.62
1584.536,-457.5,369.66
1680.428,-416.508,353.8
1645.292,-387.96,327.204
1502.308,-403.82,294.02
1410.564,-423.096,297.924
1334.924,-442.128,318.42
1273.436,-460.916,331.352
1199.992,-441.884,324.764
1137.772,-390.4,275.476
1120.204,-352.58,259.372
1095.56,-359.168,248.148
1019.676,-366.488,231.068
923.052,-351.116,213.5
913.292,-288.652,152.744
860.588,-151.768,86.376
919.636,45.872,4.636
1140.212,189.1,-111.02
1232.932,149.328,-257.908
978.928,329.644,-344.772
671.244,74.908,-219.6
522.648,1098.244,-21.96
699.06,1283.196,-21.96
756.4,1259.772,21.716
397.72,1137.284,-70.76
293.288,912.804,-198.372
366.0,862.784,-321.348
318.176,849.364,-302.072
149.328,855.708,-137.616
97.356,821.792,-57.34
94.184,760.304,-144.204
54.412,808.616,-183.488
101.992,922.32,-187.88
169.092,947.94,-187.392
203.252,924.516,-190.808
188.368,971.608,-221.064
208.62,1047.492,-206.912
246.684,1112.152,-201.056
250.832,1125.572,-195.444
256.444,1094.584,-181.048
250.832,1065.792,-185.196
260.104,1047.736,-165.92
276.208,1040.904,-149.084
269.62,1011.624,-146.4
244.0,952.576,-153.72
244.732,931.836,-162.26
242.048,954.04,-163.724
236.192,979.172,-161.772
247.416,966.728,-169.336
238.144,935.74,-164.7
236.192,926.468,-148.596
246.928,938.18,-133.712
250.588,944.768,-136.884
238.632,928.908,-140.544
215.452,892.552,-144.448
231.8,904.264,-140.056
239.364,939.644,-134.932
232.044,950.624,-137.86
223.504,923.784,-154.696
217.404,901.092,-159.576
218.136,909.144,-155.428
221.796,934.032,-158.112
221.796,944.768,-154.696
222.772,951.844,-163.236
221.064,965.752,-160.552
212.524,964.044,-155.672
219.356,957.456,-152.256
226.92,948.916,-148.352
214.72,942.084,-145.424
205.448,935.252,-157.136
215.452,956.48,-163.236
218.38,965.508,-161.772
208.62,959.896,-171.532
205.936,950.38,-172.752
212.036,955.992,-173.24
211.792,977.708,-161.04
211.06,974.292,-166.652
208.376,965.264,-174.46
220.332,971.608,-165.432
217.404,976.488,-157.868
210.572,974.536,-167.872
199.836,984.296,-174.216
193.98,989.42,-172.264
207.156,996.252,-165.676
209.596,981.856,-152.988
213.5,955.748,-157.624
205.692,945.012,-164.212
193.736,940.62,-158.356
193.248,967.46,-158.844
205.936,1004.548,-168.848
214.964,1034.56,-178.12
209.84,1036.512,-171.044
202.276,1020.652,-162.26
182.024,989.908,-160.796
181.78,979.172,-166.408
172.264,972.828,-171.776
179.584,975.512,-177.876
189.832,974.048,-174.704
190.076,975.268,-164.7
180.072,961.36,-159.82
169.824,956.724,-167.384
183.488,977.952,-162.748
190.076,1037.244,-158.112
174.216,1100.928,-144.448
152.5,1181.936,-143.472
114.68,1256.356,-162.016
92.232,1336.632,-187.636
41.48,1383.236,-189.588
32.696,1422.276,-194.224
30.5,1432.036,-187.88
48.312,1403.976,-223.016
56.12,1386.408,-232.532
88.572,1396.168,-244.976
100.284,1392.02,-230.824
121.268,1406.416,-208.864
105.408,1368.596,-184.464
147.864,1321.016,-185.928
184.464,1297.104,-201.056
98.82,1267.092,-199.836
72.956,1237.568,-200.08
131.516,1255.136,-200.568
94.428,1201.212,-201.788
95.404,1176.812,-169.824
130.052,1092.388,-171.044
96.136,1026.02,-164.944
77.104,931.104,-156.404
94.184,833.504,-161.04
34.892,718.336,-153.232
-3.904,640.988,-103.456
8.54,569.252,-82.228
-12.444,493.124,-52.46
-33.916,476.532,-48.556
-32.452,467.748,-1.464
-60.512,512.888,-13.664
-82.96,532.408,-20.008
-61.732,577.304,-50.996
-73.444,598.044,-59.048
-95.648,636.108,-66.368
-107.116,660.508,-67.1
-78.08,705.892,-37.332
-71.736,756.888,-17.568
-104.676,781.044,-20.008
-146.4,781.776,-85.888
-148.596,803.736,-106.384
-182.024,799.832,-116.144
-191.296,781.288,-126.392
-183.244,782.508,-116.876
-172.752,795.44,-86.376
-168.116,822.768,-71.98
-195.932,838.384,-71.98
-221.064,865.468,-87.84
-214.232,890.6,-105.896
-212.28,923.052,-113.948
-225.944,942.084,-117.12
-220.088,972.096,-121.024
-220.332,994.544,-130.052
-217.648,1003.816,-152.744
-215.94,1003.816,-162.748
-216.184,1001.864,-158.356
-206.18,997.716,-145.18
-205.448,1001.132,-127.856
-219.112,981.856,-118.096
-223.016,965.264,-127.856
-213.988,963.312,-143.96
-199.592,969.9,-126.392
-192.516,968.192,-117.12
-225.212,948.184,-123.708
-246.928,938.18,-131.516
-251.32,934.276,-127.124
-225.456,945.256,-125.904
-195.444,956.236,-121.512
-153.964,950.136,-115.9
-87.108,938.668,-109.068
-10.492,905.24,-150.304
288.896,849.364,-93.696
878.644,659.776,-24.888
1069.94,520.94,71.736
606.828,238.876,-98.332
196.908,356.728,-29.28
678.564,888.892,230.824
1560.136,773.968,294.752
1555.744,154.208,46.116
1210.972,63.44,228.14
893.772,233.996,374.784
739.076,252.54,276.208
881.816,258.884,339.648
1018.7,184.464,330.62
1024.556,87.596,303.536
992.104,124.44,301.096
947.696,208.376,267.668
918.904,283.04,206.912
911.34,295.972,180.56
913.048,269.132,174.704
873.276,224.48,167.384
831.064,241.56,155.916
783.972,248.636,146.644
738.832,251.808,114.924
713.212,235.948,97.112
662.46,218.868,72.956
594.872,191.052,72.956
532.164,117.852,89.06
498.98,80.764,75.884
429.684,110.044,48.312
423.096,128.832,29.768
488.0,85.888,36.356
507.52,15.616,73.688
524.356,-65.88,109.8
555.832,-118.096,154.208
609.268,-150.06,150.06
712.724,-156.16,149.816
794.464,-180.56,162.992
840.824,-264.74,179.096
879.62,-303.048,199.836
900.116,-320.616,185.44
947.452,-341.6,167.628
985.516,-378.688,185.928
963.556,-429.196,215.696
999.912,-437.736,246.928
1114.836,-440.42,263.276
1263.92,-434.564,243.268
1386.896,-418.948,236.192
1382.992,-420.168,266.448
1365.912,-417.972,290.36
1372.256,-369.416,288.164
1392.996,-343.064,269.864
1400.316,-393.084,244.488
1388.604,-458.232,233.752
1397.632,-481.9,224.236
1411.784,-486.048,208.132
1469.612,-456.036,206.668
1487.18,-433.832,217.892
1446.432,-432.368,207.156
1345.66,-439.932,198.128
1226.588,-455.792,176.656
1125.328,-482.876,172.508
1033.584,-507.032,156.648
964.532,-433.588,131.272
875.228,-265.472,95.648
890.6,-80.032,39.528
1117.52,-85.156,-4.636
1130.696,-91.256,76.372
959.896,-55.144,45.14
899.384,-117.852,2.684
907.68,-64.172,-30.5
1034.316,-83.692,8.052
1042.124,3.904,63.196
1017.48,20.252,28.548
1009.428,83.936,-21.228
1065.548,113.216,-74.42
1282.22,322.324,-36.112
1312.964,420.412,-123.22
1104.832,548.268,-264.74
925.004,795.44,-287.676
766.16,820.328,37.576
703.94,959.408,24.4
662.704,969.412,-91.5
450.18,717.604,-64.904
340.868,911.34,-189.344
350.384,828.868,-217.648
315.736,1000.156,-150.548
304.024,856.684,-118.34
314.272,940.62,-46.848
383.812,975.756,-27.572
253.272,934.276,-23.668
88.328,889.868,-56.852
78.08,768.844,-89.792
92.72,598.532,-180.316
-10.492,855.952,-126.636
130.784,949.648,-120.048
201.788,1109.956,-132.492
212.28,1013.82,-153.232
95.16,987.224,-184.22
50.752,974.536,-222.528
79.788,965.508,-257.176
54.412,948.672,-217.16
99.552,986.248,-173.972
97.6,969.412,-172.752
68.564,921.832,-214.476
63.196,934.276,-241.316
88.572,970.388,-253.516
111.508,1026.996,-218.624
108.824,1050.664,-179.828
95.892,1024.068,-156.404
102.724,997.472,-159.82
118.584,988.932,-150.304
131.272,989.42,-156.648
165.432,995.52,-132.98
149.572,983.564,-117.852
117.12,987.468,-125.904
100.528,988.688,-145.912
115.656,994.3,-153.964
112.972,995.032,-150.792
118.096,995.276,-145.668
107.848,975.512,-145.912
110.044,966.484,-148.108
117.852,966.24,-134.932
134.688,979.172,-127.124
135.908,984.54,-128.344
121.756,982.344,-132.492
126.88,974.536,-139.812
122.976,970.144,-149.816
111.264,966.24,-150.06
111.02,988.2,-154.696
102.48,981.612,-153.964
124.684,972.584,-161.284
124.44,965.752,-164.212
111.996,969.412,-155.428
120.78,968.68,-160.308
117.364,963.556,-159.576
117.364,960.14,-163.724
111.996,967.216,-158.844
119.56,976.244,-154.208
120.536,972.34,-155.428
110.288,970.632,-154.94
119.56,979.904,-154.696
122.244,982.344,-154.696
108.58,970.876,-158.844
111.752,978.684,-161.528
105.896,973.316,-157.136
105.652,956.48,-158.844
108.824,954.528,-162.016
108.336,961.848,-163.48
116.632,987.468,-158.356
111.996,1001.376,-159.332
108.092,1009.184,-162.992
102.968,1017.236,-155.916
98.576,1035.292,-148.84
82.228,1049.688,-154.696
66.124,1044.808,-158.6
65.636,1035.536,-159.088
77.104,1040.66,-148.596
68.076,1048.468,-151.036
45.384,1043.344,-148.352
44.896,1064.328,-149.816
33.916,1083.604,-160.064
27.328,1084.58,-169.336
37.332,1105.076,-171.044
45.872,1173.396,-159.82
11.468,1228.052,-150.304
-13.908,1277.828,-166.652
16.592,1325.652,-198.372
47.092,1385.92,-211.548
52.46,1483.276,-231.8
29.28,1549.644,-231.312
-29.036,1547.692,-244.732
-15.372,1523.048,-275.232
9.028,1467.172,-244.732
59.292,1406.66,-238.388
83.936,1363.472,-212.768
132.736,1268.312,-180.316
179.584,1218.78,-177.144
161.528,1133.868,-194.712
145.668,1065.304,-172.264
179.096,1041.636,-147.376
179.096,1040.416,-124.196
145.18,1005.524,-95.16
106.14,993.812,-92.964
110.044,996.984,-88.084
96.38,947.94,-69.296
61.976,860.1,-60.512
30.012,795.196,-36.844
81.984,772.504,-5.856
26.352,679.052,-2.44
-21.472,644.404,-3.66
28.548,724.924,0.732
50.752,763.476,17.568
51.728,782.752,13.42
15.128,765.672,-10.004
-33.428,755.18,12.2
-20.008,758.596,18.544
-98.82,740.54,5.856
-151.28,720.532,-20.496
-244.244,693.204,-62.708
-206.912,694.912,-74.176
-173.484,711.992,-73.2
-158.844,701.256,-96.868
-160.064,666.12,-93.696
-180.316,668.072,-64.172
-146.644,659.776,-21.96
-136.396,691.496,-1.952
-205.692,707.844,-26.352
-207.156,745.42,-26.352
-197.64,783.484,-50.02
-217.404,818.62,-71.492
-224.724,824.476,-82.472
-247.904,834.48,-102.968
-270.108,833.504,-110.532
-273.524,832.772,-104.188
-288.896,839.848,-102.724
-312.564,826.916,-104.432
-287.432,832.04,-113.704
-272.792,810.568,-125.172
-275.476,833.992,-115.9
-285.48,851.316,-117.852
-311.832,851.56,-141.52
-299.632,873.764,-129.564
-252.54,892.796,-110.776
-292.8,891.82,-111.264
-283.772,929.64,-104.432
-215.94,906.704,-124.196
-204.472,896.212,-122.488
-123.464,834.724,-128.1
3.904,827.16,-159.576
140.544,782.02,-155.916
383.08,649.528,-183.976
735.416,509.716,-111.508
849.608,454.084,-67.1
769.82,365.268,-41.48
802.028,524.356,26.596
1317.112,718.336,319.152
1588.684,590.236,335.5
1327.848,88.084,240.828
1239.52,-111.996,343.552
1161.44,-29.768,477.752
1036.024,125.904,396.988
1004.06,181.78,332.328
1072.624,196.664,316.224
1036.756,203.496,258.396
1006.744,228.628,222.04
930.372,278.892,170.068
858.148,272.792,136.396
864.492,235.704,159.332
872.544,201.056,178.364
871.568,178.12,190.564
851.804,178.852,172.264
795.928,180.316,142.496
740.784,184.22,103.456
689.3,182.024,87.84
643.672,136.152,106.628
564.372,104.92,104.92
476.776,127.856,64.66
453.108,127.856,54.412
473.116,72.224,59.292
479.216,-21.716,83.448
492.148,-111.02,103.456
497.272,-131.028,103.7
454.328,-105.164,62.464
487.756,-102.724,9.272
545.584,-136.884,47.824
678.564,-199.348,88.816
812.52,-286.7,129.808
934.276,-363.804,133.224
1034.072,-363.56,172.264
1144.848,-322.568,197.396
1291.492,-312.808,193.248
1434.476,-311.1,216.428
1465.708,-288.652,258.884
1399.828,-294.264,233.996
1383.236,-266.692,220.332
1391.044,-259.128,214.964
1357.86,-301.096,195.2
1250.5,-328.668,153.476
1182.424,-333.548,168.116
1216.584,-362.34,201.056
1272.216,-397.476,220.088
1273.436,-424.56,206.912
1230.736,-459.696,187.392
1233.908,-476.532,184.708
1242.692,-465.064,203.496
1226.588,-445.056,202.276
1156.072,-452.864,183.976
1004.06,-488.244,139.812
916.22,-476.776,110.044
950.38,-498.492,19.52
868.396,-303.292,40.748
963.068,-268.888,7.076
1070.916,-114.68,10.004
1024.556,-80.52,33.428
1162.172,-295.728,-43.432
1024.556,-159.576,-142.252
1081.164,228.872,-223.504
709.308,413.58,-220.332
558.516,1110.688,-33.672
1214.876,1350.784,87.352
723.46,1473.516,284.016
714.188,1228.296,125.416
445.056,960.628,-156.648
422.12,788.852,-202.52
286.944,762.744,-95.404
62.22,924.272,54.656
-25.864,888.892,-38.064
74.908,897.676,-122.0
60.512,957.944,-107.36
-11.468,1070.672,-77.104
23.18,1134.112,-105.408
46.116,1084.336,-114.68
-22.936,1079.456,-114.192
130.052,981.124,-202.276
76.372,928.176,-193.736
-50.508,934.032,-187.88
-80.032,935.74,-152.256
1.952,942.572,-170.556
41.236,956.968,-197.64
66.856,998.936,-169.824
90.036,1050.176,-140.544
27.328,1005.524,-180.316
12.932,976.244,-199.592
55.876,1009.184,-170.8
81.008,1035.048,-122.0
70.76,1029.68,-129.808
30.012,991.372,-181.292
16.104,966.24,-211.548
13.664,978.196,-181.78
44.164,1001.62,-152.744
77.104,998.204,-144.448
43.432,990.64,-144.692
11.224,972.828,-153.964
1.708,958.676,-150.548
40.992,943.304,-157.624
77.104,951.6,-162.26
53.68,968.924,-164.944
16.104,999.668,-161.772
13.42,986.248,-159.088
22.448,951.844,-167.384
46.604,953.796,-164.7
50.508,975.756,-141.276
47.824,984.052,-139.568
41.236,981.612,-146.644
44.164,983.564,-150.06
33.916,984.296,-152.5
43.676,987.224,-141.52
50.508,970.388,-141.276
40.504,973.072,-145.424
25.62,976.244,-157.38
37.088,979.66,-175.436
37.088,976.244,-173.24
33.916,973.804,-165.188
49.044,980.392,-165.432
44.164,982.588,-160.552
39.284,980.392,-162.504
33.672,974.292,-167.628
38.064,982.1,-170.312
48.068,989.908,-165.432
39.528,988.2,-162.748
33.184,979.416,-162.016
41.48,968.192,-160.064
53.924,966.728,-166.164
47.58,976.732,-163.48
41.968,975.268,-164.212
50.752,972.584,-165.92
58.56,980.148,-156.892
47.092,996.74,-150.792
42.456,991.616,-148.352
44.408,981.612,-143.228
45.628,987.468,-145.668
49.044,987.712,-161.528
50.752,986.736,-165.92
44.652,989.664,-151.524
55.632,985.028,-145.912
58.072,970.632,-151.28
50.264,972.34,-153.964
48.8,974.78,-152.744
49.532,970.876,-154.696
50.508,961.36,-157.868
48.8,970.144,-159.82
60.268,994.788,-152.988
59.78,1009.184,-140.3
63.684,998.936,-136.884
59.048,972.584,-149.328
53.924,972.34,-152.988
64.416,979.904,-153.232
63.684,1000.644,-152.744
57.096,1016.748,-151.036
63.196,1046.028,-137.128
45.384,1114.592,-137.86
-46.604,1208.044,-150.304
-177.388,1326.384,-211.06
-319.396,1465.464,-283.284
-370.392,1590.148,-269.132
-387.716,1652.856,-218.624
-375.272,1618.452,-168.36
-330.62,1564.04,-150.06
-230.824,1534.028,-183.0
-150.792,1533.54,-206.424
-137.128,1498.404,-166.164
-30.5,1497.672,-119.072
89.548,1448.384,-77.104
53.68,1333.948,-75.884
6.1,1222.928,-93.208
41.48,1161.196,-94.184
137.128,1100.928,-71.492
138.104,1075.064,-20.74
12.688,1060.912,-53.68
122.0,974.536,-88.572
166.164,970.632,-70.272
132.248,1076.04,-55.388
214.232,1058.228,-46.36
244.488,955.26,-76.86
283.284,881.572,-50.264
223.26,974.292,13.908
186.172,892.796,7.808
190.564,857.904,3.416
179.828,766.16,-5.368
99.796,605.12,-80.52
57.828,533.872,-87.84
43.676,533.628,-59.048
189.1,486.78,-125.172
179.584,484.828,-13.176
79.056,448.228,-28.06
-82.96,423.584,-33.428
-127.856,444.08,-12.2
-95.892,542.412,-16.104
-78.324,587.064,10.248
-30.256,652.944,-23.424
-0.732,732.488,-91.744
-114.436,751.764,-91.988
-71.98,773.968,-102.724
-28.06,813.74,-105.164
-166.408,831.064,-148.596
-50.752,853.024,-187.636
-56.608,865.712,-175.924
-97.112,854.244,-171.532
-85.888,864.492,-172.02
-112.24,866.2,-183.976
-91.012,863.76,-179.096
-69.784,887.184,-180.56
-61.0,879.864,-193.98
-74.42,913.292,-203.008
-31.232,941.84,-223.26
-23.912,951.844,-231.556
-13.908,910.608,-229.36
-14.152,860.1,-227.408
-30.5,796.66,-218.868
-126.392,686.86,-228.384
-157.38,548.268,-198.86
55.388,463.356,-108.336
281.088,401.38,-62.464
488.488,314.028,-100.284
802.272,141.52,-134.444
1000.4,92.232,-106.872
1019.188,210.572,-145.424
1213.168,552.904,58.072
1760.948,874.984,219.6
1841.468,587.796,162.504
1521.584,94.184,50.508
1119.96,-124.928,141.032
997.716,-31.476,238.144
1195.112,115.656,188.612
1320.772,250.344,148.84
1292.224,277.428,82.96
1151.192,173.484,61.488
1027.972,69.784,74.664
977.464,76.86,104.676
965.264,137.86,92.476
916.464,167.384,52.948
871.568,158.356,37.088
790.072,107.116,34.648
674.172,36.356,20.984
579.5,31.72,27.816
534.604,58.56,47.092
516.792,65.88,48.312
479.704,32.94,41.968
385.032,-1.22,-24.888
357.948,-22.448,-43.92
453.108,-62.708,-36.6
562.176,-74.42,-13.664
687.104,-104.188,18.788
718.58,-186.172,15.86
715.408,-211.792,0.976
796.172,-172.02,16.592
765.428,-138.592,-11.712
759.328,-197.64,-43.676
891.332,-258.884,-12.688
998.936,-268.888,16.348
1010.404,-270.84,-0.976
1011.624,-312.32,-10.492
1058.472,-368.196,3.66
1155.828,-403.576,20.74
1269.044,-402.356,53.924
1283.44,-386.74,52.704
1281.244,-410.164,23.18
1337.12,-431.148,21.716
1375.672,-457.5,15.128
1392.02,-450.18,-3.416
1460.584,-411.872,1.22
1503.528,-392.596,12.932
1514.508,-410.652,24.888
1474.492,-461.892,47.58
1433.012,-483.852,62.464
1446.92,-440.908,95.648
1466.684,-373.808,107.116
1379.82,-354.044,81.008
1230.248,-396.256,38.308
1167.784,-390.4,29.768
1139.236,-385.032,23.18
1090.436,-366.0,14.396
1035.292,-386.496,-4.148
984.54,-388.936,8.296
942.084,-396.988,11.956
959.896,-385.52,4.392
976.244,-339.16,-6.344
932.812,-212.524,-4.88
892.064,-169.824,-85.4
875.472,-40.504,-136.396
1042.368,102.236,-197.64
1122.4,137.86,-219.844
825.94,480.924,-243.512
679.54,976.0,-11.712
1020.652,1170.956,30.988
813.496,1299.788,24.888
722.728,1051.884,-115.412
521.184,918.416,-209.84
265.472,984.784,-68.808
472.872,916.952,-162.016
226.92,760.548,28.304
59.292,712.48,25.376
224.236,688.08,-93.208
136.884,637.572,-122.976
-175.68,638.304,-200.812
-133.468,772.748,-143.472
7.564,956.236,-107.36
58.316,1034.316,-85.156
48.068,1039.196,-54.656
48.8,1034.56,-49.044
50.508,1060.912,-27.816
12.444,1071.648,-28.548
34.892,1067.256,-57.096
69.296,1075.308,-74.42
73.444,1099.464,-68.808
52.216,1077.504,-64.904
37.576,1049.688,-68.564
46.36,1031.388,-80.032
34.892,1017.968,-96.624
54.9,997.716,-129.564
30.988,986.736,-120.536
38.552,984.052,-100.772
64.904,994.056,-98.332
72.956,983.32,-107.116
54.9,958.676,-126.636
32.94,955.748,-148.84
52.46,973.072,-137.372
66.612,968.68,-120.536
64.904,943.06,-125.66
65.392,945.988,-135.664
53.436,957.456,-134.444
71.004,979.66,-122.244
74.42,982.344,-126.88
46.604,984.54,-140.056
45.384,980.392,-137.128
60.512,981.612,-124.44
47.336,976.976,-125.66
52.704,995.52,-130.784
60.268,1014.064,-112.728
50.508,1006.988,-110.288
40.26,984.052,-134.688
42.7,976.732,-142.984
45.384,1003.084,-117.608
58.56,992.836,-115.656
58.072,968.192,-122.0
46.848,972.584,-127.368
42.944,993.324,-130.784
58.804,984.54,-130.296
74.176,978.928,-127.856
61.488,970.632,-124.928
60.024,965.752,-135.42
59.78,972.34,-133.468
73.932,976.976,-127.368
68.076,981.856,-132.004
62.952,982.588,-127.368
74.664,985.028,-123.952
67.588,973.072,-130.052
69.54,970.632,-127.124
66.124,982.1,-128.832
53.924,989.42,-126.148
50.508,1008.208,-119.316
49.044,1059.204,-95.404
24.644,1102.392,-90.524
-43.432,1182.18,-122.0
-150.548,1242.692,-135.664
-172.264,1310.28,-148.596
-174.216,1335.656,-150.304
-171.776,1346.88,-138.836
-184.22,1366.888,-132.492
-189.588,1392.752,-122.488
-123.464,1418.86,-139.568
-56.12,1467.904,-142.008
-102.236,1513.044,-119.804
-69.296,1541.348,-118.584
25.132,1582.584,-83.692
56.364,1601.128,-75.396
69.54,1583.316,-71.248
187.392,1512.8,-90.28
227.896,1420.08,-61.0
254.98,1338.34,-88.816
271.816,1240.984,-100.04
302.804,1166.808,-85.4
292.068,1063.84,-72.712
323.056,969.168,-82.472
306.708,904.264,-77.836
260.104,909.144,-9.76
243.024,926.712,-23.668
204.228,864.004,-63.196
299.876,765.428,-140.3
177.144,760.304,-123.708
135.176,653.676,-137.616
75.152,641.964,-140.056
74.42,599.752,-135.176
89.792,552.66,-127.124
-121.512,557.296,-58.316
-173.484,513.132,5.124
-137.128,485.56,-10.492
-48.312,661.728,36.6
30.988,750.544,21.228
102.236,668.56,-62.708
-5.612,741.76,-118.096
-71.492,796.904,-134.2
34.648,802.76,-247.66
-133.468,840.092,-76.372
-292.8,792.756,10.248
-223.748,810.812,-13.176
-80.276,846.924,-140.544
-148.84,910.608,-130.784
-126.392,811.788,-125.172
-73.2,900.848,-205.448
-131.76,886.94,-86.376
-122.732,929.396,-92.72
-94.428,932.568,-70.76
-142.496,876.448,-107.848
-130.784,819.352,-124.196
-125.172,799.832,-106.384
-72.468,865.712,-38.308
-139.324,840.824,50.996
-139.324,763.964,-41.236
-184.708,709.064,-50.508
-233.264,766.892,-64.172
-272.304,787.632,-39.772
-241.804,766.16,-96.624
-226.432,770.064,-122.244
-253.516,802.028,-71.248
-147.132,773.236,-82.228
-212.524,709.064,-82.96
-220.576,602.68,-90.036
-285.48,586.332,-61.244
-286.944,554.856,-94.916
41.48,577.548,-114.192
541.924,598.044,-81.496
941.108,424.316,-170.068
1206.58,432.124,-172.264
1094.096,479.216,-314.76
739.564,569.984,-378.688
1035.048,695.644,-43.188
2036.18,820.816,285.968
1780.468,193.492,154.94
1284.66,-58.316,156.404
1068.476,42.212,261.324
1039.928,168.116,132.004
1153.876,280.356,62.464
1202.188,327.692,36.356
1139.236,268.644,-6.832
966.24,158.112,0.244
856.684,113.948,24.4
903.532,150.304,56.852
928.176,226.92,29.28
893.528,247.904,-13.42
843.996,174.704,-23.912
751.764,121.756,-10.736
643.428,116.144,0.976
552.172,122.488,6.1
530.944,108.824,10.248
571.936,102.48,20.252
613.66,78.324,15.616
560.956,38.308,-21.96
437.736,14.64,-56.608
440.908,3.172,-64.66
562.908,-0.488,-46.116
731.268,-60.024,-41.968
765.184,-112.972,-56.608
627.08,-139.324,-91.5
593.652,-159.088,-64.172
703.696,-212.28,-10.98
819.84,-306.952,-15.128
866.688,-358.192,-2.928
865.468,-354.044,-2.44
928.42,-355.508,-21.716
1047.004,-347.944,-31.72
1127.28,-371.856,-31.476
1212.192,-403.088,-27.328
1276.12,-408.212,-9.76
1372.988,-405.284,-8.784
1512.068,-390.156,-14.64
1631.628,-348.92,-27.816
1686.284,-282.552,-17.568
1699.704,-265.96,-33.672
1708.0,-279.624,-34.404
1707.024,-294.264,-35.624
1652.124,-245.464,-22.936
1494.012,-223.26,-40.504
1307.352,-275.72,-66.368
1222.684,-324.032,-57.34
1168.272,-361.12,-40.748
1142.164,-355.996,-28.304
1074.332,-369.416,-20.496
997.716,-405.772,-21.716
949.16,-393.328,-5.368
948.184,-310.856,-10.492
921.1,-326.716,-37.576
923.296,-322.812,-17.568
895.724,-338.428,-67.588
854.0,-305.0,-72.224
847.9,-260.592,-62.952
877.912,-195.688,-105.408
815.448,-41.236,-161.284
765.916,120.292,-167.14
749.324,257.42,-93.208
520.208,429.684,-236.924
341.844,749.08,-382.836
791.292,1249.036,-410.896
642.208,1604.544,177.632
695.644,1686.04,180.804
1186.084,1188.28,-152.744
132.736,885.232,283.04
-308.416,829.844,70.516
8.784,815.692,-210.084
261.324,962.336,-79.3
66.124,1072.868,72.956
277.184,1062.864,-14.396
115.168,996.252,-88.816
-93.452,952.332,-184.464
-151.036,964.044,-110.776
-54.412,1024.312,-141.764
65.88,1057.496,-169.58
-2.196,1050.42,-166.408
-33.672,1038.708,-135.908
44.164,1046.76,-130.296
58.072,1037.0,-99.796
91.988,1021.14,-82.96
136.152,1056.276,-81.984
94.916,1076.04,-99.308
67.588,1048.468,-110.044
89.792,1009.672,-97.356
129.076,986.98,-90.768
95.404,979.416,-103.212
61.488,982.1,-115.656
92.72,975.268,-113.216
119.316,963.556,-109.8
105.652,943.06,-111.752
82.472,952.82,-104.432
62.464,965.02,-115.656
66.368,994.544,-119.072
73.932,1007.476,-109.8
78.08,988.932,-107.604
85.644,967.46,-111.752
66.368,960.14,-119.56
69.784,985.272,-103.7
61.732,984.296,-111.02
74.176,981.612,-112.484
71.004,980.88,-103.456
39.284,997.472,-119.316
35.136,1025.532,-113.216
49.044,1060.668,-89.304
26.108,1057.74,-87.108
-3.416,1050.664,-103.7
-7.076,1076.04,-91.5
-23.668,1128.988,-76.86
-40.748,1178.276,-86.376
-83.936,1272.46,-102.968
-177.388,1361.276,-72.468
-237.9,1423.496,-88.816
-287.188,1433.744,-138.104
-262.3,1449.604,-88.572
-165.676,1433.988,-49.532
-99.552,1419.104,-36.844
-96.38,1434.964,-36.6
-106.628,1447.408,-52.704
-123.708,1411.784,-106.384
-61.244,1394.948,-109.312
-11.468,1411.784,-61.0
88.816,1442.04,-35.38
130.296,1457.412,-20.984
138.836,1415.688,-23.18
146.644,1336.388,-43.676
121.756,1275.632,-25.376
126.148,1176.568,-4.88
162.748,1074.088,-29.28
161.284,1041.636,-54.412
194.712,905.728,-62.464
180.072,830.332,-58.072
138.104,765.428,-51.728
53.924,674.172,-38.552
11.712,631.472,-52.948
5.124,653.188,-74.176
68.808,516.06,-111.508
40.016,611.22,-63.684
131.028,661.972,-5.856
-23.18,727.12,20.008
-111.752,759.816,-0.976
-55.388,718.336,-40.26
-43.676,739.076,40.26
-170.556,793.488,148.84
-10.004,812.276,184.952
0.976,768.356,59.536
150.792,746.64,-262.056
217.648,733.708,-272.792
282.552,789.584,-266.692
18.3,899.384,-83.204
-176.9,832.04,94.672
-330.864,756.888,4.636
-74.176,713.7,-183.732
34.648,637.572,-316.956
-261.324,963.8,-162.016
-405.528,934.032,-3.416
-347.7,989.42,65.148
-442.372,1000.644,-38.064
-155.184,1036.024,-78.568
-297.192,988.932,33.916
-105.896,850.584,-228.14
-9.76,802.272,-249.856
-289.14,835.944,15.128
-299.876,888.648,37.332
-70.516,848.632,-78.08
-156.892,855.952,42.944
-299.144,905.972,81.252
-208.132,717.36,-61.0
-337.696,958.188,79.056
-198.372,847.9,26.596
-203.74,901.092,81.008
-222.04,953.064,56.608
-186.172,938.18,13.42
-185.196,898.164,-36.112
-197.152,917.684,-13.176
-262.3,943.792,10.492
-198.86,948.184,-10.004
-136.396,947.94,7.076
-162.016,945.744,17.08
-186.904,949.648,15.616
-218.136,954.284,-0.488
-202.276,962.336,1.464
-176.656,966.972,7.808
-178.12,965.02,20.252
-200.324,955.26,-8.784
-217.648,973.804,-17.324
-169.092,991.128,-0.488
-140.544,985.028,1.22
-148.596,968.68,-3.416
-190.32,963.8,-3.416
-185.44,961.604,-10.736
-175.68,947.208,-6.588
-199.104,930.372,-9.76
-226.432,907.924,-5.368
-206.424,882.792,-14.64
-233.02,859.124,-19.032
-257.176,822.036,-28.304
-298.412,789.584,-20.008
-334.524,767.38,-41.236
-319.64,738.832,-52.948
-245.22,670.024,-87.352
106.14,607.072,-118.34
137.128,851.56,143.716
-88.816,823.744,129.808
560.956,485.804,-117.364
977.708,381.616,-319.64
755.912,313.052,-413.092
267.912,622.932,-16.592
1133.136,907.68,309.636
2159.888,914.512,345.748
1740.696,318.42,-84.424
955.992,-68.32,-72.712
1064.816,259.128,226.676
1085.8,244.244,105.408
1418.128,291.092,46.116
1321.748,325.74,-26.352
1082.14,280.356,-112.484
913.292,260.592,-75.64
839.116,268.156,-37.82
935.74,266.692,-18.3
1003.816,253.028,-29.768
995.276,235.216,-36.112
933.3,225.944,-48.312
831.308,234.972,-73.688
730.048,261.812,-76.86
678.076,254.248,-63.196
680.028,199.104,-48.068
589.992,149.816,-28.792
430.416,130.052,-5.368
305.488,148.84,3.172
277.916,182.756,-54.656
356.24,150.792,-72.956
434.564,45.14,-41.48
470.676,-101.748,-21.716
461.404,-175.924,2.196
419.924,-172.02,-44.164
445.3,-134.2,-75.64
505.812,-140.788,-37.332
529.48,-283.04,-22.936
618.052,-417.484,-41.236
752.496,-469.944,-85.644
893.772,-435.784,-75.396
962.336,-377.712,-50.264
1075.552,-449.448,-112.728
1242.692,-497.028,-142.74
1439.112,-428.708,-168.116
1596.736,-317.444,-166.652
1711.416,-281.576,-199.104
1833.904,-307.928,-175.192
1878.068,-287.92,-136.884
1691.652,-244.0,-123.22
1589.904,-233.752,-130.052
1612.596,-251.076,-136.884
1561.112,-253.028,-149.328
1491.816,-244.732,-145.912
1426.668,-238.144,-130.784
1341.268,-247.416,-94.672
1250.988,-264.008,-83.692
1146.068,-282.308,-91.5
1114.592,-298.9,-93.696
1129.72,-304.756,-74.42
1123.864,-276.94,-70.76
1070.184,-290.36,-84.424
1003.572,-334.036,-77.104
1007.964,-368.44,-57.34
996.74,-369.66,-55.876
968.68,-350.628,-68.076
981.368,-335.012,-66.612
1009.916,-324.032,-64.416
1013.82,-323.056,-71.248
1014.796,-320.86,-84.912
1029.924,-316.224,-86.62
1038.464,-318.908,-87.352
1057.74,-306.708,-75.396
1052.616,-297.924,-89.792
1043.1,-284.26,-87.108
1005.768,-272.792,-107.604
984.54,-252.296,-116.144
996.008,-253.76,-113.704
976.0,-280.112,-124.684
939.4,-301.34,-122.976
914.756,-297.924,-116.388
927.688,-283.04,-109.556
1012.356,-256.2,-101.992
1075.552,-226.188,-93.696
952.576,-247.416,-134.444
861.32,-266.936,-148.352
866.2,-275.232,-131.76
898.164,-254.98,-118.096
849.364,-223.748,-124.44
762.744,-169.58,-143.228
716.14,4.148,-186.904
663.924,189.1,-239.364
663.924,259.372,-443.592
805.444,477.264,-634.4
601.46,367.22,-636.596
722.484,653.188,-257.42
491.416,1452.288,67.588
811.544,1433.256,-270.84
293.044,1234.152,-148.352
827.892,1038.708,-622.2
902.312,922.564,-427.488
146.888,992.348,311.832
87.84,982.588,244.244
156.404,932.08,-164.7
324.764,1062.132,-373.076
244.732,1103.856,-131.516
-41.968,962.336,-97.844
-20.008,836.92,-195.688
-6.1,912.316,-214.476
1.708,1021.872,-204.716
19.52,1059.936,-153.72
-17.568,1010.16,-177.632
68.076,1017.968,-172.02
52.948,1033.34,-179.34
34.892,1035.048,-211.06
58.804,1036.512,-155.428
105.164,1035.292,-142.496
119.804,1014.308,-162.748
112.972,989.42,-166.164
129.808,978.44,-175.192
107.604,978.928,-162.504
82.472,981.856,-152.5
82.228,968.436,-170.068
102.724,952.576,-189.1
92.476,963.068,-175.192
100.284,969.9,-160.308
93.94,952.82,-157.868
92.476,945.988,-170.8
78.324,956.968,-161.04
87.84,985.516,-146.888
105.896,980.148,-162.504
94.916,979.416,-183.0
83.936,1002.108,-154.94
79.056,1003.084,-148.352
72.224,985.028,-160.552
70.272,960.384,-162.016
92.232,961.116,-160.796
97.844,966.484,-176.168
73.688,956.724,-174.704
60.268,972.828,-157.38
87.108,988.932,-139.08
89.304,986.98,-160.064
54.656,974.536,-183.244
60.756,975.512,-168.848
75.64,975.024,-161.772
80.276,967.948,-175.68
72.224,971.12,-185.196
70.028,968.192,-182.512
90.768,962.58,-177.876
95.16,952.82,-184.708
89.06,962.092,-182.268
86.864,965.508,-172.508
81.252,972.34,-174.704
79.056,976.0,-170.312
81.984,976.244,-173.972
90.036,963.068,-182.268
89.304,962.58,-176.412
84.18,964.288,-168.116
81.984,982.344,-164.7
81.252,987.224,-167.628
84.912,1009.428,-158.112
88.084,1057.252,-144.692
51.484,1138.748,-112.728
3.904,1264.164,-124.44
-65.148,1410.808,-137.128
-183.0,1546.96,-125.904
-208.376,1647.244,-110.288
-280.844,1737.768,-47.824
-250.832,1699.46,-88.572
-215.208,1688.724,-160.552
-154.94,1654.564,-165.676
-21.96,1633.092,-118.34
97.6,1580.388,-40.504
170.312,1501.576,-31.964
263.276,1414.956,-107.604
195.444,1344.684,-107.604
143.96,1312.964,-211.06
98.576,1241.96,-203.252
294.264,1250.744,-209.108
377.468,1171.2,-172.02
343.064,1185.84,-96.38
419.924,1069.208,-115.412
353.8,985.76,-121.268
204.472,944.036,-158.112
289.384,876.936,-170.312
320.616,853.024,-141.032
281.088,777.14,-133.468
247.66,683.2,-126.392
143.472,633.912,-155.184
77.836,625.616,-111.02
67.832,629.032,-10.98
68.808,555.832,-6.344
171.044,520.94,-40.016
215.452,544.852,-51.728
-33.672,631.228,168.116
38.308,469.944,-118.34
-212.036,529.236,-61.244
-348.188,449.936,21.472
133.224,418.216,-433.832
127.368,662.704,-305.488
176.9,853.268,-236.68
319.64,763.964,-509.228
-125.416,785.924,-246.928
-974.78,758.352,295.484
-728.096,738.588,-28.792
-523.624,940.376,-33.184
-181.048,921.1,-120.048
-64.416,909.632,-124.44
-106.384,805.2,-161.04
-142.984,741.272,-70.028
-192.028,652.456,-61.976
-300.364,867.664,14.396
-277.184,775.188,-40.992
-324.52,762.256,-15.616
-327.936,906.46,-3.904
-308.66,919.636,4.392
-298.656,881.572,-21.472
-327.692,879.376,-33.916
-369.172,920.856,-59.536
-359.412,931.348,-67.1
-300.608,899.872,-83.204
-274.012,880.352,-54.168
-292.312,868.396,-52.216
-291.336,866.2,-60.268
-284.992,862.784,-65.636
-305.488,868.64,-76.128
-282.796,888.16,-76.86
-171.532,886.94,-75.396
-216.672,889.38,-59.78
-162.016,897.92,-68.808
-174.216,867.908,-73.2
-208.864,876.936,-97.844
-181.048,854.244,-91.988
-91.988,891.088,-60.024
-96.868,903.532,-42.944
-134.688,884.988,-68.076
-183.0,856.44,-77.104
-155.916,766.648,-101.748
228.872,673.684,-137.86
538.996,770.064,-91.5
1202.188,770.064,-226.432
1348.832,800.076,-457.744
503.128,738.588,-517.768
-452.376,868.64,-155.916
1024.068,1319.064,251.32
1840.736,908.656,-14.152
1227.564,146.4,-276.94
1156.316,137.128,-9.272
922.076,312.564,79.544
927.444,338.916,59.292
1134.112,314.272,44.896
1140.7,284.748,-14.64
1098.0,258.64,-40.992
1050.664,278.404,-33.672
948.428,308.904,-47.824
924.76,323.056,-49.776
903.532,319.152,-35.624
982.1,287.92,-25.864
1020.164,267.668,-30.5
958.676,284.26,-34.404
880.352,304.512,-41.236
838.872,294.996,-48.8
799.1,252.784,-54.9
736.148,257.664,-60.268
653.676,265.228,-59.78
606.584,245.952,-58.316
522.892,208.132,-51.972
448.228,181.78,-24.4
411.872,146.156,-22.936
477.752,118.828,-12.688
531.188,84.424,-21.716
530.456,11.956,-64.66
481.656,-23.18,-47.58
462.136,-48.312,-19.52
501.176,-94.428,-16.836
628.3,-146.644,-27.572
723.948,-187.636,-55.876
644.404,-239.364,-80.764
668.56,-259.128,-93.452
818.376,-275.476,-87.596
864.98,-307.196,-104.92
954.04,-349.408,-115.656
1139.236,-350.384,-110.044
1326.872,-335.012,-93.452
1473.76,-326.228,-133.956
1615.524,-299.632,-144.692
1549.4,-292.8,-117.12
1457.412,-336.232,-162.016
1497.428,-302.56,-151.28
1539.152,-265.228,-143.228
1509.384,-295.24,-184.464
1551.596,-274.5,-176.412
1462.78,-292.068,-176.9
1418.86,-290.848,-198.86
1433.5,-259.372,-206.18
1482.788,-206.912,-173.24
1425.936,-212.036,-192.516
1301.008,-236.192,-188.124
1172.176,-271.328,-170.068
1088.484,-280.112,-135.908
1077.748,-287.92,-125.172
1040.66,-300.852,-139.812
996.984,-309.88,-152.012
962.092,-306.952,-142.984
969.412,-292.556,-124.196
985.028,-285.968,-132.736
971.852,-300.852,-135.664
960.872,-295.728,-134.444
985.516,-290.116,-129.808
983.808,-233.752,-124.44
926.224,-231.556,-150.792
898.896,-213.988,-182.512
804.468,-181.292,-205.692
815.936,-21.96,-212.768
667.096,219.356,-173.24
723.216,383.568,-292.068
503.128,666.364,-355.996
215.452,669.536,-372.832
914.756,1242.204,-63.196
424.072,1860.256,240.096
304.268,1944.192,580.476
1852.692,1006.988,-1356.396
1329.068,689.544,-1499.136
180.56,764.94,-142.008
-424.072,865.956,760.792
-455.304,849.12,549.244
156.16,757.132,-183.976
231.8,894.504,-560.712
-70.028,992.348,-395.524
-311.1,1065.06,-74.42
-226.676,1090.192,-16.348
-39.772,1080.92,-166.164
11.712,1090.192,-227.896
-77.836,1100.196,-194.712
-117.608,1126.304,-158.356
-43.188,1140.456,-92.964
27.816,1135.088,-87.84
69.784,1095.56,-126.88
3.904,1061.888,-116.388
47.58,1013.088,-111.752
99.064,979.172,-126.148
134.688,968.68,-164.944
84.18,990.884,-117.364
67.1,990.884,-93.696
74.664,963.312,-124.196
63.196,943.304,-173.972
40.26,923.54,-167.628
46.848,921.588,-147.376
58.56,955.748,-156.404
30.988,961.116,-142.252
63.196,983.564,-145.912
36.844,997.472,-153.72
14.884,991.128,-176.168
23.424,980.148,-176.168
34.16,982.344,-170.8
31.72,981.612,-155.428
40.748,973.072,-153.476
33.672,967.704,-168.604
13.664,967.46,-188.124
5.368,977.952,-188.612
23.912,989.176,-172.752
56.852,1005.036,-148.596
57.34,995.764,-152.744
60.756,997.96,-155.184
40.016,998.936,-133.224
32.452,976.488,-137.86
58.804,965.264,-168.36
71.492,978.44,-163.968
57.584,984.784,-143.716
52.948,980.392,-136.152
48.8,974.536,-140.788
44.408,966.972,-147.62
55.876,982.588,-162.992
51.484,986.004,-168.116
66.368,972.34,-170.068
62.464,965.996,-175.68
46.604,966.972,-179.34
48.312,980.148,-179.34
61.0,1003.328,-178.852
55.876,1028.948,-165.92
57.584,1046.516,-173.484
37.332,1043.344,-186.66
35.136,1032.608,-191.052
47.092,1041.392,-161.04
74.664,1052.128,-139.812
61.0,1110.2,-180.072
-24.156,1147.288,-191.052
-44.408,1179.008,-165.188
31.232,1199.26,-144.936
100.284,1202.432,-140.056
99.308,1170.956,-134.444
105.164,1186.328,-96.38
87.84,1230.98,-112.728
35.38,1209.264,-115.412
111.264,1175.592,-160.308
157.136,1176.568,-109.8
175.436,1170.712,-98.088
216.916,1178.52,-80.276
230.58,1151.68,-45.14
186.416,1124.108,-71.736
124.684,1089.948,-81.008
185.928,1082.872,-48.8
246.928,1056.032,-68.076
234.972,1030.9,-85.888
175.192,967.948,-147.376
147.864,970.144,-192.272
131.76,980.392,-130.784
163.48,955.748,-171.288
154.452,920.368,-185.196
99.552,907.436,-184.952
96.624,910.852,-163.236
110.044,923.784,-152.5
133.956,927.688,-164.212
157.136,961.36,-145.18
138.348,988.932,-140.544
144.204,986.736,-114.924
147.62,942.572,-119.316
112.972,904.996,-119.072
116.144,867.908,-106.14
155.916,882.06,-134.444
97.844,913.048,-83.448
131.272,937.692,-66.368
187.88,924.272,-32.696
261.568,904.02,-41.724
159.82,850.34,-74.908
93.94,815.936,-100.528
108.336,853.756,-99.796
69.052,921.1,-103.456
98.576,968.68,-171.776
129.564,993.568,-147.376
120.78,985.028,-91.5
84.424,931.104,-102.968
-11.224,831.064,-216.428
-86.864,828.624,-237.9
109.312,885.232,-121.756
212.524,892.064,-53.68
110.288,863.516,-104.92
23.18,839.848,-129.076
47.58,878.4,-111.508
159.332,981.856,-53.192
-133.224,985.028,-112.24
-73.444,979.904,-166.164
45.384,1089.216,-122.488
-182.268,1083.116,-72.956
385.032,1140.212,-294.02
-59.536,1327.604,-66.856
-44.652,1156.804,-88.328
-239.12,1024.068,53.436
-29.768,1002.108,-4.88
63.196,1016.504,-63.196
81.74,967.948,-122.488
78.324,1086.532,-73.932
47.336,1222.44,-46.116
34.648,987.468,-254.248
-96.38,959.896,-219.6
141.032,913.048,-338.184
35.136,525.82,-152.988
192.028,547.78,-254.98
96.868,937.936,-74.908
-48.556,1089.704,-24.888
-76.616,1030.168,-17.568
-17.812,971.12,-120.048
1.952,937.204,-170.068
53.68,1055.056,-180.072
23.912,1128.5,-58.56
-141.764,1172.908,-9.516
-92.476,1118.008,-22.448
-116.876,1071.648,-56.608
-203.74,1035.292,-53.436
-61.732,1040.66,-77.104
-43.676,1007.964,-38.796
-38.796,960.384,-25.864
-80.276,915.244,-3.416
-96.136,905.728,-22.204
-127.368,886.208,-47.336
-167.628,864.492,-61.244
-165.676,842.288,-78.812
-231.556,797.88,-73.932
-277.184,779.58,-109.8
-257.176,756.644,-113.948
-261.568,719.068,-101.504
-274.744,667.34,-83.448
-282.308,636.352,-63.684
-288.896,636.352,-54.168
-314.516,639.28,-48.312
-324.276,639.524,-49.532
-340.38,645.624,-42.944
-362.584,670.024,-21.716
-394.06,711.504,-28.792
-396.5,748.348,-35.136
-386.496,779.58,-43.676
-360.144,792.268,-48.556
-353.8,813.74,-52.704
-317.688,821.548,-57.584
-333.304,768.6,-72.956
-390.888,668.804,-69.54
-61.732,591.456,4.148
334.036,542.9,113.216
912.804,653.188,157.38
1235.128,614.636,297.192
1117.764,149.572,216.672
1349.564,-199.104,65.392
1556.476,-678.076,-491.904
1538.176,41.48,-23.424
1464.976,291.092,44.896
1163.636,-3.416,317.2
1136.552,-144.448,151.28
1171.444,-108.824,178.852
1230.492,21.96,192.272
1204.384,71.004,119.804
1194.136,64.66,35.38
1112.64,120.536,-15.86
989.42,180.316,-59.78
901.092,177.632,-63.44
842.288,172.02,-39.284
818.864,139.08,-3.172
757.864,91.256,13.908
693.204,34.404,45.14
579.256,-6.1,74.664
450.912,-29.28,62.22
436.516,-33.428,37.576
454.572,-57.096,-2.928
470.92,-78.812,7.076
507.52,-116.388,24.644
460.184,-196.42,30.012
391.376,-234.484,59.292
490.44,-201.544,39.772
603.412,-158.356,-11.468
592.676,-126.148,-19.032
645.868,-149.328,-63.44
711.748,-198.128,-85.888
774.7,-272.304,-113.704
926.224,-325.74,-61.0
983.808,-363.316,19.52
1005.524,-415.776,60.024
1103.368,-408.7,32.452
1118.496,-394.06,-17.324
1190.232,-374.052,-71.004
1277.584,-401.38,-84.18
1280.024,-407.48,-84.668
1301.984,-412.116,-89.792
1407.148,-400.648,-130.784
1503.04,-368.44,-161.772
1608.936,-356.728,-200.324
1633.58,-376.736,-222.772
1637.24,-371.856,-225.456
1654.564,-369.416,-205.936
1592.588,-382.592,-179.096
1510.604,-409.188,-150.792
1461.804,-410.164,-130.296
1378.6,-408.7,-106.384
1275.144,-421.876,-89.548
1202.92,-437.004,-76.616
1156.56,-421.876,-89.548
1096.536,-417.24,-96.868
1039.684,-400.16,-91.5
996.008,-402.356,-79.056
975.024,-398.696,-86.62
977.22,-379.176,-106.14
951.356,-351.604,-104.676
1024.556,-337.696,-103.456
1196.576,-303.536,-142.496
1420.324,-323.544,-309.148
1407.636,-348.432,-378.932
1409.344,-396.744,-471.408
1224.148,-372.1,-202.032
581.94,-369.172,-69.54
203.496,-144.448,71.98
294.264,322.324,-70.272
808.616,701.012,-203.252
777.628,726.388,-181.78
542.412,593.652,-236.192
753.472,670.268,-392.352
741.516,767.38,-334.768
676.612,842.776,-203.984
629.276,947.452,-247.904
611.952,1008.452,-267.424
647.576,1047.736,-268.156
512.4,972.34,-264.496
388.448,869.372,-311.832
251.564,718.336,-316.468
198.616,695.156,-334.524
217.892,629.764,-286.7
216.916,685.396,-262.056
284.016,791.292,-293.776
303.78,868.884,-294.752
201.544,965.264,-277.916
292.556,975.512,-290.604
251.564,961.604,-303.78
241.072,982.1,-291.092
266.936,973.316,-294.752
282.308,1003.084,-285.236
272.304,998.204,-262.056
288.896,1002.108,-269.864
276.696,1030.9,-276.696
282.552,1048.468,-274.256
274.256,1059.936,-268.644
264.74,1071.892,-247.66
253.272,1054.812,-203.008
214.964,944.524,-159.576
206.424,892.064,-195.444
196.176,887.184,-193.736
195.932,909.876,-176.656
201.3,892.064,-169.824
185.196,846.924,-169.58
166.652,843.752,-189.344
173.484,862.296,-193.248
181.292,876.936,-187.148
194.712,903.288,-187.88
192.272,914.268,-197.152
178.12,909.388,-194.956
163.236,915.488,-204.96
162.504,929.64,-186.66
170.556,944.524,-176.9
173.24,941.352,-185.684
156.404,957.212,-203.008
143.96,966.484,-208.864
122.244,957.944,-221.552
133.956,957.944,-203.496
151.768,986.736,-196.176
150.792,999.18,-201.788
162.016,1036.512,-198.128
164.456,1030.9,-185.928
154.696,1017.236,-179.096
142.496,1021.872,-169.58
148.108,1037.976,-166.652
140.788,1069.452,-166.408
117.852,1095.56,-184.952
91.5,1132.404,-190.076
74.42,1162.172,-191.54
29.036,1202.188,-211.792
12.2,1249.768,-203.496
56.608,1303.692,-180.804
61.732,1317.356,-188.612
52.46,1307.596,-189.832
7.564,1274.412,-205.936
39.04,1296.128,-167.628
86.132,1329.556,-127.124
108.824,1321.748,-104.676
143.228,1345.416,-112.484
154.208,1335.656,-104.432
141.52,1277.096,-111.264
135.908,1211.704,-104.188
155.428,1192.672,-67.588
189.832,1186.328,-69.296
203.252,1182.424,-74.664
184.708,1129.232,-67.832
156.648,1097.268,-83.692
127.856,1066.036,-77.836
86.864,1014.552,-67.1
33.184,962.336,-57.828
70.516,957.7,-74.908
79.3,964.288,-83.204
19.032,934.276,-62.708
5.612,910.852,-23.668
34.16,879.376,16.836
-3.172,827.16,36.112
9.272,831.796,9.516
47.092,876.204,-6.344
40.016,886.452,-23.18
14.396,851.316,-32.94
9.516,823.012,-60.268
-4.88,805.444,-59.292
-33.184,789.34,-23.18
-13.664,773.724,-42.944
5.612,749.08,-64.172
41.236,728.096,-48.556
50.02,753.472,-51.24
-8.54,756.644,-35.38
-39.772,760.792,-47.824
-54.168,770.064,-57.096
-84.18,753.472,-64.904
-107.36,741.272,-68.076
-122.244,740.784,-49.776
-142.008,739.076,-38.552
-165.676,756.888,-48.068
-174.704,796.66,-80.032
-172.02,832.772,-92.476
-172.02,864.248,-96.868
-197.396,855.464,-89.548
-205.692,845.948,-79.056
-214.964,859.856,-86.132
-187.148,894.992,-111.264
-175.924,900.848,-116.876
-185.44,896.7,-102.236
-221.064,878.4,-77.348
-247.66,868.152,-75.152
-256.444,880.352,-81.74
-237.656,906.46,-94.184
-236.68,945.5,-90.036
-251.076,968.924,-83.448
-250.344,980.88,-89.06
-218.38,991.372,-102.236
-198.372,1001.62,-118.828
-184.952,1015.528,-115.412
-175.68,1011.38,-100.528
-157.868,991.128,-96.38
-135.42,976.0,-89.304
-137.616,970.632,-86.376
-138.104,975.024,-79.788
-139.08,969.9,-77.592
-145.668,954.04,-79.056
-168.604,937.204,-83.692
-205.204,922.076,-90.036
-219.112,920.612,-89.792
-216.184,911.096,-78.812
-225.7,900.36,-71.736
-240.096,894.504,-71.98
-258.64,888.404,-80.032
-257.908,889.38,-89.304
-263.52,888.648,-108.092
-287.188,884.5,-123.952
-315.492,859.612,-117.608
-402.844,767.38,-154.94
-490.684,670.512,-179.096
-536.556,628.788,-80.52
-362.828,584.136,98.576
104.676,478.484,185.928
476.532,688.324,243.268
442.372,842.776,350.872
734.44,754.936,335.256
1173.884,125.904,-182.024
1828.292,-253.516,-830.332
1208.776,-571.936,155.428
920.612,22.692,126.148
1590.392,130.052,249.124
1219.756,-117.12,404.308
944.768,-125.904,292.8
995.032,-4.148,182.512
1200.724,172.752,104.188
1216.34,189.1,29.768
1169.004,109.8,-31.964
1083.848,75.64,-23.424
996.496,129.32,48.068
996.74,107.36,102.48
1014.064,52.948,88.572
1043.344,102.724,72.956
994.3,126.88,49.532
910.608,137.86,55.144
814.228,130.784,76.128
780.8,125.172,91.988
765.916,163.48,62.22
785.436,174.948,31.476
721.996,148.84,-10.004
656.604,134.688,-22.448
591.456,71.736,0.488
521.184,2.44,37.332
400.16,-54.656,74.42
301.584,-51.24,44.896
276.94,-25.376,-36.844
243.512,-41.968,-51.484
290.36,-119.804,-50.264
352.092,-229.36,-8.54
430.66,-308.904,52.216
628.544,-363.316,-6.832
807.64,-358.436,-29.28
909.876,-336.72,-35.136
1050.664,-336.232,-10.98
1275.632,-320.128,-60.024
1370.06,-274.012,-91.5
1322.48,-207.888,-19.032
1305.644,-226.92,32.696
1267.824,-338.428,-4.88
1290.76,-399.184,-27.572
1357.86,-342.332,-49.776
1413.248,-297.924,-39.04
1400.56,-321.104,-20.008
1397.388,-395.036,-3.172
1480.592,-428.952,1.952
1538.908,-426.512,5.612
1548.18,-447.74,25.376
1504.748,-461.404,8.54
1433.256,-437.248,-11.712
1386.164,-373.32,-27.328
1362.008,-332.816,-64.172
1319.308,-315.736,-80.276
1232.688,-321.592,-63.196
1149.24,-335.5,-63.196
1074.088,-429.684,-120.292
998.204,-365.512,-143.716
1004.06,-390.888,-177.388
909.388,-256.688,-146.4
808.372,-278.648,-160.552
845.948,-264.984,-181.292
986.736,-219.844,-179.096
1060.912,-173.24,-282.308
1109.224,-208.376,-351.36
1277.096,-202.032,-467.504
1528.904,-67.588,-583.892
1291.248,-23.424,-507.52
1094.096,-16.836,-420.412
1191.208,-87.596,-505.324
-265.716,-186.904,238.632
603.9,611.22,-479.216
678.808,359.9,-431.392
231.312,422.852,-1.952
14.884,559.248,-8.052
-215.94,493.612,-77.592
-279.136,401.38,-52.216
-150.06,301.828,-20.496
-808.128,654.408,-673.928
-782.996,955.748,-540.216
481.168,3622.912,951.356
2713.768,2725.724,-621.468
-933.544,633.18,-174.46
-113.46,1430.328,-1362.496
-983.32,165.188,-721.752
-594.872,1563.308,-1087.752
1689.944,1356.152,-96.38
2020.808,1446.432,26.596
-749.812,1488.156,1307.84
-602.436,1060.424,-454.572
-188.856,1055.788,-1147.288
149.572,980.636,-1237.812
-15.128,1084.336,-565.836
-190.808,1135.088,-29.28
-270.352,1090.68,-117.364
-262.544,986.98,-335.744
-177.876,1039.684,-473.604
-132.98,1119.472,-245.464
-171.044,1132.16,-175.436
-98.088,1073.6,-343.552
98.576,1048.712,-656.604
283.528,1000.4,-660.02
232.044,1025.776,-466.284
221.796,1012.844,-239.608
127.124,868.64,27.572
206.424,864.492,19.52
202.276,752.984,-13.42
121.756,891.332,-96.136
-77.104,907.924,-94.184
-240.584,884.988,-100.528
-240.584,931.592,-322.812
-328.424,766.404,-321.592
-341.844,853.024,-380.396
-260.836,881.328,-364.536
-163.968,903.776,-223.26
-90.768,1038.708,-125.904
-20.008,1152.9,-31.72
145.912,1155.34,29.036
330.376,1131.672,81.252
422.852,1100.44,149.328
349.164,1096.292,203.008
60.512,1132.648,239.608
-132.492,1123.132,187.392
-200.812,1058.716,66.124
-254.004,1051.396,-10.736
-171.776,980.88,-69.296
-114.436,995.032,-111.752
-40.504,1022.116,-120.536
35.868,992.592,-74.42
26.352,1000.156,-25.864
-63.44,1005.036,14.64
-99.796,985.76,40.992
-89.06,991.616,49.532
-59.048,1007.964,36.6
-40.992,1016.016,19.764
-50.752,1013.088,10.98
-55.632,991.372,4.148
-40.992,984.052,-17.324
-53.68,951.112,-20.496
-115.168,989.664,-18.788
-132.248,991.86,-10.248
-134.2,1003.328,24.4
-29.036,995.764,21.472
25.864,983.076,41.724
-6.588,979.66,40.016
-93.452,979.172,30.256
-130.052,1001.132,-3.416
-94.672,976.488,-9.516
-64.172,954.528,3.172
-73.932,952.332,3.66
-64.904,1001.62,-18.056
-3.904,980.392,-3.904
-25.62,962.092,26.596
-88.084,961.848,25.132
-127.124,985.028,22.204
-96.38,990.64,29.28
-37.088,996.984,23.18
-7.808,1002.352,15.86
0.976,991.616,17.324
-17.324,973.316,22.448
-52.948,958.92,28.792
-87.108,971.12,16.836
-108.58,1003.816,9.516
-74.908,1006.012,17.08
-6.344,1000.156,11.956
6.588,995.032,21.228
-14.884,981.124,30.5
-62.22,987.712,30.012
-71.736,1000.644,17.812
-64.904,1004.548,10.492
-64.66,986.736,23.424
-61.0,974.536,18.056
