acc_x[mg],acc_y[mg],acc_z[mg]
-281.82,955.016,-60.756
-240.34,966.972,-80.52
-259.372,965.02,-52.46
-259.372,954.04,-36.112
-247.416,955.016,-43.92
-242.292,961.116,-50.02
-248.148,959.896,-42.944
-244.732,952.576,-36.356
-254.004,953.308,-36.844
-278.648,965.02,-45.628
-257.42,969.168,-62.952
-236.68,963.312,-62.464
-246.928,958.92,-52.46
-245.22,958.432,-55.144
-257.42,955.992,-49.044
-264.984,947.696,-42.944
-258.64,944.524,-52.948
-261.568,944.036,-56.608
-272.548,944.524,-52.948
-265.96,942.572,-54.9
-256.2,940.62,-56.12
-262.056,939.644,-51.484
-268.4,944.036,-51.24
-252.052,942.328,-61.244
-258.884,937.204,-53.68
-264.74,934.764,-45.872
-271.816,936.96,-45.872
-270.596,937.936,-47.824
-277.916,943.548,-47.336
-278.404,950.38,-48.8
-255.224,959.896,-63.684
-255.224,955.748,-51.728
-257.664,948.428,-33.428
-250.588,946.72,-29.768
-248.148,952.088,-37.576
-248.392,955.992,-39.284
-252.052,954.528,-37.576
-252.296,960.14,-46.36
-251.076,967.46,-54.412
-261.324,966.728,-44.896
-252.54,961.116,-39.528
-250.344,965.264,-41.48
-251.32,972.584,-43.676
-248.88,968.68,-32.94
-241.804,959.408,-25.132
-240.584,968.192,-34.404
-235.948,971.12,-40.016
-237.656,965.752,-33.916
-240.34,962.092,-33.916
-241.56,962.336,-40.748
-243.268,954.528,-39.772
-248.392,944.768,-33.672
-254.98,939.156,-27.816
-259.372,941.596,-31.72
-263.032,945.744,-35.868
-264.496,949.404,-41.236
-260.836,949.648,-44.896
-255.712,949.404,-46.116
-254.98,960.14,-47.824
-249.124,959.652,-42.456
-239.852,952.82,-37.332
-237.168,955.504,-42.212
-250.588,963.312,-45.14
-251.564,958.92,-41.968
-247.172,955.26,-46.604
-248.88,953.552,-48.8
-266.936,954.04,-41.724
-269.864,954.772,-45.872
-263.52,948.428,-43.188
-267.912,941.84,-28.06
-269.376,937.448,-20.74
-264.008,940.864,-26.596
-259.86,942.572,-29.28
-260.348,944.28,-30.256
-259.372,953.308,-37.332
-254.98,956.724,-43.188
-258.64,955.016,-38.064
-255.224,953.064,-39.04
-252.54,955.992,-50.752
-259.616,954.04,-52.948
-260.348,953.796,-56.852
-264.496,951.356,-51.24
-266.448,951.112,-48.068
-265.96,951.112,-53.436
-267.424,950.38,-49.288
-274.744,948.916,-40.992
-269.62,951.112,-44.652
-266.936,955.504,-42.456
-263.032,952.576,-33.916
-252.296,948.428,-28.548
-247.904,956.48,-41.968
-250.344,966.484,-53.68
-259.616,962.336,-47.092
-255.468,951.112,-38.064
-263.764,947.452,-34.16
-270.84,946.72,-38.552
-278.16,943.06,-40.016
-276.208,952.332,-50.508
-280.356,960.628,-54.9
-286.944,953.796,-46.604
-279.624,942.084,-41.48
-285.236,944.768,-39.772
-274.744,950.38,-46.116
-270.108,955.748,-51.972
-256.688,958.676,-56.852
-256.932,953.064,-44.896
-256.444,943.792,-34.892
-245.952,943.06,-38.064
-249.856,944.524,-39.04
-259.616,941.84,-33.184
-270.352,944.28,-34.892
-265.716,947.208,-51.484
-270.352,946.964,-65.636
-286.456,947.696,-67.588
-299.632,947.452,-64.416
-303.292,943.304,-64.172
-303.292,944.524,-67.1
-298.656,944.768,-62.708
-303.048,942.572,-53.68
-294.02,943.548,-56.12
-288.896,949.648,-64.172
-288.652,960.628,-69.296
-292.8,953.796,-60.024
-289.628,939.4,-35.624
-282.796,936.228,-25.132
-285.48,947.208,-24.888
-270.84,949.648,-25.376
-269.62,946.72,-27.328
-266.936,948.428,-31.476
-268.4,956.968,-44.408
-282.552,965.264,-59.292
-310.124,968.192,-66.612
-280.112,965.508,-75.884
-285.968,952.82,-61.732
-302.804,929.396,-34.404
-294.996,925.004,-47.336
-303.048,924.272,-54.656
-312.808,912.804,-38.308
-313.54,909.144,-49.288
-301.34,921.588,-67.1
-308.416,922.564,-61.488
-311.344,909.144,-39.04
-287.92,904.264,-27.084
-275.72,909.388,-27.572
-289.872,915.732,-21.472
-293.776,921.588,-29.28
-290.848,931.348,-42.944
-292.556,939.4,-48.556
-291.336,944.036,-48.8
-295.972,955.992,-53.192
-296.948,962.824,-54.168
-313.54,940.62,-25.132
-311.1,932.08,-20.984
-328.424,955.26,-38.308
-283.04,973.56,-61.0
-346.968,999.18,-64.66
-362.584,1019.676,-83.692
-404.308,1046.516,-98.332
-538.508,1070.428,-51.24
-604.632,1053.348,-25.864
-558.028,1034.56,-26.352
-434.564,965.02,-12.444
-493.612,839.116,11.468
-592.92,703.696,23.912
58.316,463.112,103.212
901.092,264.984,360.876
1166.808,247.66,337.94
1102.148,758.84,-211.304
912.072,861.808,-430.66
898.652,609.756,-143.716
1024.556,453.596,-14.152
1063.596,407.48,-2.44
1111.176,347.212,59.292
989.664,378.2,52.46
968.192,375.76,93.696
969.168,366.488,99.308
965.264,373.32,97.6
856.196,410.164,82.472
826.184,458.72,38.552
770.796,520.94,-51.24
832.528,557.052,-71.492
849.852,534.116,-41.724
845.216,500.444,-31.72
795.684,501.664,-85.156
847.168,489.22,-85.888
823.5,449.692,-61.244
743.956,414.556,-24.4
696.864,407.236,-7.076
694.912,411.628,-39.528
670.512,394.304,-63.684
648.796,360.388,-32.696
513.132,377.468,12.688
477.02,409.92,17.568
562.908,352.58,15.86
557.54,322.812,18.3
618.296,350.14,-37.332
640.5,353.068,-66.612
712.968,266.448,-48.312
781.288,196.908,-38.064
855.708,141.52,-81.74
839.848,86.376,-104.188
732.488,45.872,-18.3
823.744,37.82,-75.884
925.004,81.496,-183.976
893.528,39.284,-113.704
816.912,-40.016,27.816
844.24,-82.716,96.38
956.48,-101.748,63.684
1062.376,-92.964,-21.472
1211.948,-90.28,-115.656
1294.42,-124.196,-122.0
1366.156,-242.536,-62.952
1471.32,-302.072,-97.356
1516.948,-262.056,-164.456
1385.676,-234.24,-104.432
1252.696,-254.736,40.504
1244.4,-258.396,8.54
1352.736,-275.232,-53.68
1368.84,-273.524,-103.456
1328.336,-265.716,-65.392
1248.792,-244.732,-14.396
1238.788,-223.016,-48.068
1264.408,-221.552,-103.212
1234.64,-278.892,-41.236
1137.284,-301.34,4.392
1121.668,-283.284,-16.592
1058.228,-257.42,-26.352
1101.904,-238.632,-63.44
1119.96,-269.864,-47.824
1099.464,-282.064,-32.696
1099.708,-255.956,-67.344
1093.852,-259.372,-73.2
1085.556,-287.188,-45.628
1066.524,-301.34,-28.304
1065.548,-299.388,-39.04
998.936,-280.844,-40.748
1015.04,-276.208,-36.6
960.628,-282.552,0.0
980.148,-267.18,-19.276
963.556,-274.012,-8.784
984.296,-278.16,-8.052
1005.036,-266.448,-20.984
983.808,-237.656,-54.412
1010.892,-226.188,-65.636
1015.772,-235.216,-36.844
1047.736,-243.268,-6.344
1065.304,-247.172,10.004
1175.348,-223.748,12.688
1238.544,-258.396,85.156
1341.756,-254.004,95.892
1266.848,-221.552,88.572
1247.328,-115.656,35.38
1342.488,-78.812,-3.904
1164.856,-199.836,96.136
1004.06,-223.016,96.38
762.744,65.636,-89.304
589.748,543.144,-323.544
588.528,693.448,-385.764
0.732,632.692,-77.104
-168.848,716.628,148.352
300.364,892.064,-180.804
465.796,963.8,-284.748
236.192,934.276,-98.332
275.476,852.536,-38.308
475.8,839.36,-91.256
487.756,906.216,-70.516
388.692,964.288,-43.676
446.032,953.308,-51.728
512.644,874.496,-32.452
337.208,902.8,30.988
260.836,1003.816,-91.256
249.368,1047.736,-202.276
294.264,982.832,-169.336
294.752,912.804,-69.296
316.712,889.38,-7.564
307.196,925.492,-19.52
372.588,924.516,-36.356
363.804,906.704,-6.832
314.272,901.336,4.148
331.108,925.492,-48.8
362.828,951.112,-89.304
391.864,978.928,-114.68
315.98,968.192,-65.636
324.032,961.604,-78.08
312.32,947.208,-62.464
311.832,932.324,-45.14
368.196,936.96,-65.148
329.156,952.82,-56.12
315.004,945.012,-57.096
304.268,932.324,-42.212
311.344,922.32,-31.476
361.852,929.64,-38.308
364.536,936.228,-17.08
360.144,937.692,-3.904
338.428,930.616,5.368
341.844,940.864,-20.008
337.452,948.184,-31.232
359.168,948.672,-39.04
355.508,969.656,-37.576
355.02,977.708,-23.424
349.652,993.08,-17.08
339.648,1016.016,-15.86
351.36,1032.608,-20.74
383.08,1068.964,-34.16
359.412,1159.244,-48.068
358.192,1212.924,-54.412
359.168,1253.428,-27.084
370.636,1310.768,-25.864
396.5,1352.004,-23.424
408.7,1368.596,-19.52
434.564,1394.216,-53.436
368.196,1382.26,-25.864
320.616,1358.836,-27.572
296.216,1307.352,-30.5
271.572,1244.644,-17.324
251.076,1208.532,-36.112
272.06,1150.46,-67.832
214.72,1071.16,-28.548
160.308,996.496,15.372
143.716,958.92,-6.1
117.12,932.568,-27.572
92.964,897.676,-28.304
84.18,863.028,-26.596
67.588,824.72,2.928
51.484,831.552,-21.716
4.88,856.684,-52.948
16.104,824.964,-56.608
-38.552,792.512,-25.132
-85.156,811.056,-35.624
-116.632,860.832,-69.052
-166.164,897.676,-67.1
-166.896,918.904,-79.544
-182.268,919.636,-43.188
-158.356,934.276,-44.652
-142.984,952.576,-55.632
-148.352,966.728,-68.32
-153.232,947.452,-42.7
-128.1,910.608,-20.984
-142.496,893.528,-0.976
-131.516,895.968,-17.324
-108.824,913.292,-91.256
-115.168,874.984,-88.816
-109.068,823.988,-74.42
-175.68,773.48,-31.232
-241.316,715.164,10.736
-280.6,661.24,41.968
-287.188,618.54,46.848
-266.204,620.004,0.976
-254.004,665.388,-49.044
-296.46,683.688,-34.892
-311.832,666.852,10.492
-299.876,682.712,10.492
-304.268,736.148,-44.164
-343.552,791.536,-101.504
-377.712,807.152,-82.228
-386.984,821.06,-58.072
-356.972,842.288,-52.704
-308.172,865.956,-40.016
-296.46,919.392,-60.512
-277.184,993.324,-145.912
-266.692,1027.484,-163.236
-284.504,1016.26,-118.096
-280.112,1006.5,-105.164
-268.888,989.42,-73.932
-294.508,955.992,-13.664
-320.128,987.468,-39.772
-192.516,1025.044,-114.436
-211.548,991.128,-46.36
-232.288,964.776,5.856
-214.476,947.452,12.444
-320.86,960.628,6.344
-210.328,1016.748,-94.672
-203.252,1013.088,-89.304
-227.896,978.928,-38.308
-191.296,949.404,-23.912
-172.752,954.04,-45.14
-283.04,991.86,-66.612
-448.228,1031.388,-102.236
-409.432,1074.576,-144.448
-255.712,980.392,-93.696
-395.036,904.508,52.948
-639.036,922.32,85.4
-498.248,942.084,38.308
-254.98,696.62,16.592
-18.056,552.66,32.208
434.32,581.94,-247.904
531.676,629.276,-69.54
1005.768,395.524,221.796
1341.512,448.716,54.656
1044.564,685.64,-295.972
1051.396,640.5,-203.496
946.232,584.38,-22.204
955.504,586.82,-32.452
878.156,633.912,-95.648
916.952,649.04,-92.476
852.292,640.256,-83.448
802.76,620.492,-73.2
758.596,602.436,-68.564
727.12,618.784,-65.392
752.984,610.0,-68.076
755.668,593.164,-89.06
779.336,612.928,-142.74
794.22,568.276,-129.564
743.712,548.268,-75.152
709.552,521.916,-61.488
718.824,532.896,-58.56
748.348,519.476,-102.48
687.348,547.048,-132.98
689.3,531.432,-85.4
685.64,493.124,-63.684
697.596,464.332,-83.936
677.344,450.424,-107.36
627.08,444.568,-97.356
606.096,429.684,-94.672
576.084,360.632,-29.036
620.248,335.5,-33.184
620.736,350.14,-121.268
721.264,365.756,-170.8
733.952,315.98,-141.52
730.536,275.72,-121.512
877.668,270.108,-202.276
907.436,243.512,-203.252
912.316,191.784,-159.82
919.636,149.572,-117.608
849.608,129.076,-39.528
839.116,114.924,-32.452
991.616,78.08,-75.152
1085.556,81.74,-196.176
1045.052,123.464,-218.624
897.676,117.364,-140.788
839.36,98.088,-86.376
868.396,57.584,-79.3
911.584,64.416,-145.18
895.724,38.064,-141.52
852.78,7.076,-94.428
861.32,-46.116,-8.052
980.148,-83.692,-35.868
1166.076,-120.78,-157.136
1221.464,-120.048,-187.148
1108.248,-124.44,-90.768
1116.056,-119.316,-36.112
1241.96,-144.936,-91.988
1435.696,-190.564,-168.848
1438.624,-213.012,-142.252
1409.832,-230.336,-60.756
1413.248,-255.468,-40.26
1463.268,-289.14,-89.304
1439.112,-287.432,-101.504
1313.94,-297.192,-46.848
1210.728,-266.204,-29.524
1099.952,-244.976,-13.42
1055.788,-241.804,9.76
1088.24,-213.988,-35.624
1155.096,-187.636,-96.868
1187.304,-166.408,-130.54
1218.536,-155.916,-138.348
1204.14,-181.536,-123.708
1203.896,-209.596,-109.068
1310.28,-219.356,-103.944
1436.672,-226.92,-71.004
1377.624,-254.736,35.38
1100.928,-260.348,-49.288
866.688,-71.248,-172.264
1121.912,-23.668,-165.188
1229.516,-11.712,-107.604
1352.248,-33.184,-11.224
1303.936,-8.54,-56.852
1029.68,18.788,-61.0
812.032,35.868,-10.248
701.012,180.804,-99.552
798.856,398.208,-258.152
1070.184,440.908,-335.988
1206.58,379.664,-242.536
877.912,303.292,-3.904
832.284,418.216,-61.0
673.684,559.004,-106.628
576.328,621.712,-128.344
556.32,669.048,-137.372
378.2,711.016,-101.748
358.68,823.012,-117.364
359.168,962.336,-197.396
140.3,961.36,-122.244
289.628,914.756,-195.444
345.504,888.648,-168.116
195.932,897.92,-37.576
121.024,969.168,1.952
135.908,950.868,-6.588
312.32,905.972,-62.464
325.252,907.924,-57.828
187.392,943.548,11.956
150.792,1012.6,-55.388
126.392,989.42,-48.068
160.064,935.252,-26.108
182.268,942.572,-41.968
174.704,975.024,-57.584
202.764,986.98,-79.544
195.2,970.632,-59.536
187.392,967.704,-59.048
201.056,957.7,-60.756
224.48,962.092,-55.876
220.576,960.628,-36.844
254.98,957.7,-45.14
254.98,953.308,-36.6
218.624,935.74,0.244
234.972,932.568,-3.416
243.756,931.836,-7.808
277.428,951.356,-45.14
237.656,966.24,-37.82
204.716,964.776,-17.08
217.648,961.116,-29.524
227.896,975.268,-45.14
226.676,998.692,-62.22
241.56,996.008,-58.804
239.364,989.908,-42.7
223.992,981.612,-22.692
226.432,983.32,-17.08
252.296,994.788,-33.916
282.064,1004.548,-51.972
258.396,1011.624,-26.84
257.664,1033.828,-26.108
251.32,1079.212,-48.312
256.444,1099.708,-54.412
250.832,1093.12,-15.86
264.496,1102.636,7.564
264.252,1131.184,4.88
265.716,1161.196,-26.596
250.588,1188.524,-39.528
206.424,1213.9,-36.844
207.156,1223.904,-40.504
222.528,1253.428,-70.272
198.128,1281.488,-91.5
164.212,1280.024,-97.112
153.232,1257.088,-99.552
139.324,1226.1,-99.552
123.952,1186.816,-92.964
145.424,1140.456,-86.132
126.88,1100.928,-54.9
100.284,1073.356,-23.668
66.368,1054.08,-20.984
48.556,1034.316,-37.332
45.872,1013.82,-47.092
26.596,985.272,-28.06
-19.032,961.36,4.148
17.324,959.164,-37.82
-2.44,938.424,-34.892
-15.128,923.784,-20.252
58.56,932.568,-56.852
-14.884,935.252,-23.668
-48.8,957.7,-41.968
-64.66,943.792,-55.632
-107.36,954.772,-40.26
-70.028,907.192,-20.984
-58.804,900.116,-4.392
-105.408,910.852,10.736
-141.032,910.608,-5.368
-134.688,906.46,-70.028
-109.8,874.496,-71.492
-160.064,807.884,22.204
-167.628,800.32,21.228
-174.46,802.516,-22.204
-183.732,760.792,-4.148
-144.692,705.16,19.52
-136.884,707.356,8.784
-223.504,711.748,14.64
-292.8,711.26,9.76
-310.368,709.552,-15.86
-331.352,723.216,-49.776
-344.528,744.932,-78.324
-319.884,740.052,-63.196
-313.784,753.472,-52.704
-327.448,769.82,-59.536
-363.804,798.124,-83.448
-397.72,819.352,-104.188
-360.388,823.988,-106.872
-332.328,816.18,-66.612
-341.6,807.152,-14.64
-334.036,847.168,-62.22
-381.616,918.66,-97.844
-331.84,907.436,-112.972
-309.88,900.848,-82.716
-313.54,910.608,-46.116
-310.856,933.056,-44.164
-311.588,962.58,-68.076
-301.096,996.252,-98.82
-268.156,987.712,-78.324
-194.468,986.248,-77.592
-176.9,1013.088,-86.132
-251.564,994.3,-34.648
-289.384,1019.92,-27.328
-218.624,1003.572,-61.976
-256.932,990.152,-41.968
-319.396,977.708,-16.348
-283.528,1044.808,-93.94
-241.56,1061.644,-129.564
-274.744,997.96,-56.12
-311.588,938.424,13.42
-370.88,913.292,18.544
-515.572,945.012,-0.976
-405.528,969.9,-46.604
-203.496,873.276,-46.604
-232.044,851.316,45.628
-396.012,894.992,21.96
-535.336,981.124,5.612
-279.868,846.68,-7.076
130.54,703.208,-53.192
-96.868,642.94,-3.172
-616.588,663.68,11.468
352.58,277.184,-312.808
1598.444,117.364,-84.18
1442.772,159.088,351.604
893.528,357.704,24.156
1230.248,442.372,-223.504
1332.484,315.004,-23.18
1126.06,387.472,-48.556
1189.256,428.952,-106.14
1182.424,355.02,-28.06
1125.084,261.568,10.248
1064.328,251.808,31.964
958.676,307.928,-27.328
1037.732,322.08,-80.52
989.176,276.696,-40.748
950.136,282.796,-41.236
887.672,283.284,3.416
877.912,275.232,3.416
863.028,299.144,-104.432
938.18,298.656,-130.296
838.628,300.852,-91.988
725.412,298.656,-66.124
690.276,266.692,-23.668
610.732,249.612,3.904
626.836,276.452,-48.8
602.924,265.472,-81.252
669.78,233.264,-85.888
641.476,210.084,-84.912
581.452,178.12,-35.38
492.636,209.596,-28.792
576.816,180.56,-61.732
721.508,105.896,-94.428
864.98,38.552,-175.924
803.736,67.832,-183.976
642.94,53.436,-74.664
683.932,-18.056,-58.804
949.892,-116.632,-101.504
1069.696,-138.592,-198.372
985.028,-119.316,-185.44
881.572,-124.684,-89.304
1093.852,-170.068,-155.916
1343.22,-202.032,-264.008
1322.48,-251.564,-276.696
1107.76,-295.484,-115.656
1085.312,-350.14,-42.456
1245.864,-357.704,-114.436
1238.788,-355.508,-128.832
1165.588,-338.428,-111.02
1082.384,-345.748,-67.832
1078.724,-363.316,-53.68
1225.368,-330.864,-180.316
1263.676,-350.14,-238.632
1109.956,-363.316,-156.892
978.684,-360.144,-76.86
987.468,-398.94,-47.824
1156.316,-413.58,-122.0
1287.1,-423.34,-201.788
1238.3,-405.772,-192.516
1138.504,-444.568,-95.892
1077.016,-473.116,-16.104
1087.508,-482.388,-10.492
1198.04,-476.532,-59.78
1204.872,-441.396,-105.164
1204.872,-431.88,-104.92
1182.424,-450.668,-82.96
1161.928,-467.748,-58.804
1193.404,-461.648,-59.536
1148.02,-471.896,-81.984
1006.988,-402.6,-143.716
1085.312,-396.988,-90.768
1018.944,-397.232,-40.016
1117.276,-382.348,-32.208
1215.852,-396.744,-7.32
1074.332,-409.188,-69.296
916.708,-299.144,-196.42
1147.044,-312.564,-60.024
1311.5,-327.204,71.004
1293.2,-298.656,73.932
1132.648,-254.492,-31.964
1194.868,-124.928,-188.368
1222.928,-103.456,-133.224
1105.32,-150.792,-4.392
1071.892,98.332,-203.984
922.076,436.028,-399.916
726.388,508.74,-355.02
826.428,479.948,-147.132
543.388,393.572,187.636
384.3,657.092,164.456
477.996,854.0,-64.172
578.28,731.024,2.44
610.488,575.108,199.104
690.276,647.332,133.468
397.72,859.368,-10.736
294.752,972.584,-156.404
339.16,882.792,-168.116
428.464,810.324,-139.568
422.608,815.692,-65.392
315.736,872.788,-39.04
228.872,941.596,-98.088
284.26,904.02,-117.608
350.628,874.008,-104.188
273.28,892.308,-40.748
289.872,932.568,-56.608
243.512,917.196,-35.38
255.224,886.452,-30.988
229.604,880.352,-36.356
224.724,923.54,-80.276
201.788,993.324,-123.952
167.872,1007.232,-130.784
151.524,942.816,-52.46
191.296,900.116,-18.544
210.328,898.652,-22.936
223.748,932.812,-68.564
239.364,974.78,-112.728
198.616,964.288,-88.084
202.764,978.44,-93.696
231.8,967.948,-73.688
254.736,950.38,-33.428
254.736,965.752,-36.844
246.684,970.144,-54.168
213.988,954.04,-37.332
254.98,975.268,-92.72
273.28,1005.524,-118.096
232.776,1006.256,-82.96
262.056,999.668,-93.208
239.608,972.34,-65.148
244.488,947.452,-48.556
286.7,949.648,-62.22
260.348,960.872,-48.068
269.864,972.584,-74.176
238.388,974.536,-68.808
232.776,961.848,-64.66
253.76,958.188,-68.076
279.624,959.164,-65.148
283.528,963.8,-46.604
288.408,985.272,-64.172
244.0,1016.748,-61.488
252.784,1042.368,-76.128
271.084,1063.352,-65.392
255.468,1072.624,-44.408
271.572,1077.016,-40.504
268.644,1093.12,-27.572
284.26,1114.592,-39.284
269.376,1125.084,-49.288
260.836,1121.912,-49.288
252.54,1122.644,-51.484
263.032,1127.036,-74.664
226.432,1120.448,-46.604
217.16,1113.616,-23.668
229.36,1132.16,-46.604
212.036,1149.728,-47.58
192.272,1170.468,-53.924
221.064,1195.356,-98.332
208.62,1189.988,-88.572
205.204,1171.2,-57.096
212.768,1148.752,-46.848
202.032,1138.992,-43.92
189.344,1118.74,-23.424
161.772,1101.172,2.196
155.428,1067.988,17.324
122.244,1025.288,49.776
99.064,992.592,60.756
67.588,989.176,40.992
37.332,1004.06,-8.54
15.372,1000.4,-22.448
-16.104,965.508,4.148
-15.616,938.912,28.06
-12.444,938.912,18.056
-37.82,938.424,6.344
-28.792,929.396,-8.54
-13.176,928.176,-20.008
-42.456,920.124,7.808
-52.704,932.812,-32.94
-108.336,926.712,-39.528
-152.988,894.748,5.124
-68.32,865.956,-9.028
-28.06,874.984,-29.768
-143.716,909.388,-19.764
-183.488,923.784,-27.572
-132.004,900.848,-46.604
-149.816,860.588,-0.488
-125.66,849.12,-3.416
-126.636,869.86,-48.556
-211.304,880.352,-48.068
-204.228,836.676,-23.18
-181.048,799.344,11.468
-182.024,800.808,28.792
-222.04,832.284,4.636
-259.616,855.464,-24.888
-217.404,841.312,-35.868
-223.016,832.04,-32.94
-229.604,823.5,-24.644
-261.08,823.012,6.588
-252.54,831.552,-8.54
-257.176,833.26,-17.812
-250.588,821.304,-4.392
-249.124,805.2,29.036
-249.368,796.66,40.748
-262.788,794.708,44.652
-283.528,798.856,39.528
-294.02,813.252,22.692
-287.432,821.548,37.332
-306.708,842.288,42.456
-308.172,893.772,-14.152
-303.048,949.16,-57.096
-300.12,993.812,-75.884
-277.916,991.86,-59.048
-224.236,987.712,-56.12
-217.404,987.468,-30.744
-227.896,987.712,-3.172
-222.528,1002.84,-26.596
-239.608,1003.572,-25.864
-264.008,979.904,2.684
-237.9,990.396,-30.012
-238.876,988.2,-32.696
-261.324,983.808,-22.936
-285.724,988.688,-33.184
-264.252,995.276,-48.556
-282.308,969.168,-11.712
-278.648,953.552,18.056
-155.916,960.384,-41.48
-104.188,951.6,-43.432
-131.516,934.52,2.928
-164.212,941.352,5.856
-172.996,937.692,-15.372
-162.992,935.008,-28.06
-209.596,926.224,3.66
-249.124,932.324,-8.296
-296.948,964.288,-64.66
-332.816,968.68,-75.396
-298.168,929.64,-43.188
-316.956,917.196,-45.14
-355.02,949.648,-64.172
-413.092,949.892,-47.336
-507.764,944.768,-28.304
-424.804,925.248,12.2
-295.972,882.548,0.732
-181.78,925.248,-122.976
-158.844,919.636,-164.7
-266.204,902.312,-93.452
-181.78,904.752,-78.324
139.08,766.648,-111.02
255.712,554.124,-64.904
91.5,347.7,30.5
840.824,150.304,7.076
1674.328,243.024,-7.564
1409.1,344.284,25.62
1128.988,538.996,-254.98
1026.508,379.176,-116.144
1138.016,234.484,193.98
1288.076,327.692,7.076
1179.74,334.524,-100.284
1215.608,361.12,-124.928
1042.612,311.588,-40.748
921.832,306.952,-26.84
916.22,274.012,-44.408
911.584,294.996,-90.768
866.688,287.432,-54.168
817.644,300.852,-82.716
927.2,307.44,-128.588
980.392,241.072,-113.46
888.892,196.908,-85.644
813.008,232.532,-85.888
813.984,237.168,-78.812
785.68,217.892,-71.004
764.94,182.024,-33.916
733.464,155.916,-28.548
676.124,162.992,-19.276
582.916,195.932,-27.572
641.72,209.84,-95.892
786.9,186.416,-169.336
820.084,165.188,-158.356
737.124,151.28,-144.936
664.656,96.868,-96.38
644.16,5.124,-8.54
736.148,-21.472,-38.064
807.64,-13.42,-82.96
769.088,-26.108,-94.428
821.304,-71.98,-133.712
930.372,-148.84,-126.392
921.344,-173.972,-80.276
925.004,-159.82,-116.632
923.052,-196.908,-132.248
990.152,-270.108,-120.536
1071.892,-315.98,-148.596
1048.712,-312.564,-152.744
961.848,-365.024,-53.68
1015.528,-373.076,-73.444
1159.488,-340.868,-170.312
1284.904,-359.9,-220.332
1295.396,-405.772,-206.18
1158.024,-370.88,-148.352
1076.284,-407.968,-78.812
1308.816,-440.908,-110.776
1523.048,-416.508,-218.38
1465.22,-341.844,-267.912
1382.504,-367.952,-194.468
1454.728,-430.416,-126.148
1561.6,-447.496,-101.016
1571.604,-442.372,-80.032
1369.084,-428.464,-121.268
1348.832,-367.464,-132.736
1265.14,-393.816,-39.04
1210.24,-389.912,-19.764
1170.468,-381.86,-31.964
1083.36,-351.848,-35.136
1054.324,-323.056,-29.28
1032.852,-302.804,-38.796
1020.652,-320.128,-10.736
1030.412,-267.668,-73.2
1080.432,-252.784,-74.42
1169.98,-236.436,-37.82
1203.164,-260.348,41.724
1115.812,-265.716,73.444
980.392,-175.436,-9.516
1094.096,-12.2,-176.412
1021.384,3.66,-178.12
998.692,24.644,-96.38
1051.884,94.184,-78.568
971.364,142.984,-80.276
1006.012,203.008,-101.016
1088.972,317.444,-169.824
712.236,389.18,-84.18
605.608,461.892,-38.064
755.424,436.272,8.296
763.72,480.68,55.632
776.896,626.104,-48.556
479.46,823.256,-86.376
266.448,891.82,-52.704
339.892,812.52,18.788
506.056,748.348,12.444
425.536,835.212,-21.472
288.896,953.064,-56.852
292.8,901.824,-28.304
273.28,899.14,-51.484
272.792,953.552,-137.616
245.952,958.432,-101.016
231.312,937.448,-39.528
251.32,924.516,-20.74
261.08,941.352,-40.504
275.72,952.088,-67.832
231.556,945.012,-53.68
158.356,927.444,-24.4
179.34,902.556,-21.96
212.524,885.476,-11.712
231.312,891.088,-10.492
246.928,911.584,-23.912
242.048,943.304,-40.016
212.28,969.9,-68.808
223.26,967.704,-73.2
256.444,959.896,-44.896
261.08,955.504,-12.688
237.412,964.044,13.908
252.784,964.044,4.392
281.82,976.0,-15.372
224.236,986.492,0.244
255.468,938.668,36.844
251.808,915.244,77.348
257.908,956.968,18.544
267.424,984.052,-23.424
268.888,998.692,-39.04
237.9,986.736,-12.932
234.24,972.584,-2.196
275.72,975.024,-27.328
254.98,982.832,-11.956
262.056,979.904,-10.98
285.968,977.708,-15.372
252.54,969.168,9.028
265.472,958.432,0.976
292.8,962.336,-14.396
283.284,952.576,9.516
272.06,954.284,12.932
263.764,956.236,2.928
264.496,955.748,-8.54
240.828,957.212,-11.224
275.476,958.188,-30.012
264.496,960.628,-13.664
265.472,955.504,1.22
279.38,944.036,15.372
288.408,951.356,8.784
292.556,975.512,-30.256
260.348,981.856,-26.596
255.956,976.244,-13.664
271.084,980.148,-11.712
285.236,967.46,7.32
292.068,960.872,13.664
300.12,970.632,0.976
290.116,993.324,-22.692
274.5,1004.304,-21.228
264.984,997.472,-5.368
275.964,987.224,8.052
279.624,990.152,7.564
308.904,1001.376,-10.736
311.344,1009.184,2.928
290.604,1008.452,25.376
295.24,1040.66,5.612
307.196,1080.676,-21.96
309.148,1093.364,-7.564
291.336,1103.368,22.692
271.816,1131.184,37.82
257.664,1170.712,31.72
294.508,1198.772,-20.984
265.96,1200.48,-21.716
225.456,1209.508,-16.104
223.748,1208.532,-22.448
214.476,1169.248,23.668
218.136,1137.284,42.7
210.816,1117.764,37.576
196.908,1113.128,27.816
172.508,1105.32,27.328
148.108,1080.92,32.94
134.2,1057.984,33.672
101.748,1039.196,53.436
120.536,1015.528,67.588
137.372,1004.304,60.024
111.752,1024.068,23.668
64.172,1039.44,-15.372
78.812,1009.184,-22.448
61.244,970.632,-5.124
20.252,930.86,34.648
23.912,884.012,76.372
40.504,872.544,60.512
12.2,899.14,4.88
-41.236,878.888,24.156
-65.148,879.864,17.324
-44.164,871.08,-4.392
-92.232,880.352,2.44
-117.608,890.6,-21.472
-132.736,875.228,-23.424
-147.132,867.664,-32.452
-141.52,865.956,-40.748
-197.884,854.244,1.708
-229.848,842.532,43.676
-251.808,861.32,16.104
-243.024,887.672,-45.14
-248.88,881.572,-42.456
-223.016,865.224,-23.912
-254.736,844.24,25.62
-270.596,821.792,42.7
-275.72,796.66,56.12
-266.204,781.776,71.248
-255.956,831.308,7.076
-291.092,865.712,-28.792
-315.004,861.076,-34.648
-305.244,823.744,-7.564
-292.8,801.784,20.252
-264.496,820.328,-2.196
-288.652,848.388,-27.328
-300.364,861.564,-40.016
-309.148,868.64,-45.14
-275.964,872.788,-48.068
-284.748,867.42,-3.66
-277.672,899.14,-29.036
-294.264,931.592,-54.9
-339.404,935.252,-46.848
-379.664,953.796,-55.876
-406.504,993.324,-93.94
-415.044,948.428,-25.376
-404.552,908.412,40.748
-323.056,945.256,-29.768
-177.388,1004.304,-140.788
-118.828,1039.44,-150.06
-232.776,988.2,-44.652
-227.652,1000.156,6.588
-184.464,989.664,36.6
-107.848,970.388,32.696
22.936,946.72,18.3
0.488,907.68,30.256
-88.084,1003.572,10.492
3.172,1020.652,-16.592
55.388,974.78,28.304
75.64,901.824,81.008
-147.62,888.404,105.652
203.984,874.252,-17.324
627.812,842.776,-134.688
569.008,847.9,-65.392
277.428,817.644,43.432
197.884,820.084,20.74
394.304,790.56,-57.34
741.516,672.22,-77.592
669.536,641.964,-167.628
622.688,717.116,-264.008
1060.18,578.524,-130.052
1230.248,436.272,80.032
1199.016,502.396,-26.84
1021.384,574.864,-228.628
916.464,620.492,-225.7
984.54,485.316,-14.64
908.412,437.248,38.552
930.616,492.88,-28.548
971.608,501.42,-45.872
780.312,500.688,-120.048
771.284,534.848,-107.36
735.416,522.892,-19.276
746.884,527.772,-32.452
849.608,543.144,-88.328
950.868,549.732,-127.612
873.52,529.236,-133.468
744.932,483.852,-49.532
789.096,493.368,-57.584
834.236,518.744,-114.924
820.328,528.26,-116.876
776.164,521.428,-104.188
752.496,501.42,-69.296
732.0,494.588,-57.34
706.624,498.248,-71.004
670.024,504.836,-86.864
763.232,473.848,-86.132
694.668,432.124,-44.164
662.216,418.704,-27.572
578.28,437.248,-55.144
634.644,434.564,-95.892
728.828,414.556,-123.464
717.604,388.936,-122.0
695.156,341.356,-83.204
557.784,338.428,-71.248
657.824,359.412,-132.248
784.948,305.0,-162.992
838.628,218.624,-105.164
893.528,140.3,-15.372
959.408,141.032,-86.132
1037.244,141.032,-152.744
1029.192,127.368,-139.568
949.648,79.544,-67.832
956.48,17.324,-52.46
997.716,-60.024,-37.82
957.7,-92.964,-30.988
827.648,-106.384,-9.76
740.54,-137.616,28.792
693.448,-163.968,39.04
743.956,-159.088,-1.464
906.216,-161.284,-95.16
972.096,-157.136,-172.752
859.368,-163.724,-80.276
811.544,-220.82,10.98
1037.732,-246.928,-54.412
1257.088,-260.104,-146.888
1270.996,-274.744,-85.888
1262.212,-291.092,-6.832
1417.64,-274.012,-84.912
1579.9,-288.896,-141.276
1610.4,-319.152,-121.024
1416.664,-373.32,9.76
1294.42,-359.168,72.224
1390.068,-352.58,53.924
1518.9,-306.952,-39.284
1470.832,-261.812,-124.684
1314.916,-285.48,-68.32
1222.684,-302.56,-10.98
1162.172,-287.188,7.564
1194.868,-285.968,1.22
1178.764,-267.18,-47.824
1083.848,-278.404,-20.74
1049.444,-283.04,-8.54
1114.592,-268.156,-46.36
1111.664,-273.036,-32.696
1044.076,-264.984,-56.608
1042.368,-279.38,-24.644
1058.96,-297.436,1.952
1112.396,-246.196,-69.784
1106.296,-238.632,-71.492
1049.2,-243.268,-18.788
1096.536,-201.056,-17.812
1095.804,-187.88,-32.94
953.064,-114.192,-111.752
1063.84,-37.576,-167.872
1150.704,-52.704,-86.132
1276.852,-86.132,-9.516
1413.248,-32.208,-79.788
1076.528,-77.592,-38.308
918.416,79.3,-117.364
957.944,317.688,-255.224
1053.104,411.872,-342.332
885.232,334.036,-142.008
789.828,472.384,-90.036
580.72,608.048,-115.412
337.696,722.728,-38.552
578.768,697.596,-55.388
658.068,659.288,1.464
559.98,664.9,61.0
474.092,732.244,72.956
456.28,763.72,91.012
559.248,756.4,43.92
476.532,810.08,36.356
208.62,954.772,-9.272
218.868,968.192,-76.128
354.776,922.808,-140.544
345.504,898.164,-80.764
264.74,896.212,9.272
229.36,920.124,4.148
227.408,938.912,-49.532
246.44,901.824,-39.528
226.188,863.272,20.74
301.096,894.992,-29.28
259.128,936.472,-40.26
220.088,940.376,-25.62
278.404,919.148,-33.672
317.932,902.068,-24.156
335.012,905.728,-14.396
364.292,948.184,-48.312
334.28,954.284,-26.84
338.184,936.716,-5.612
366.488,920.856,1.708
400.892,923.052,-13.664
401.38,928.42,-3.172
454.328,971.12,-35.868
399.428,968.192,26.84
421.144,954.284,27.816
388.692,946.72,25.376
376.98,922.32,39.528
434.808,947.452,-8.54
379.176,948.184,14.884
365.268,944.768,2.684
375.028,954.04,-30.988
359.168,954.284,-25.864
361.12,958.92,-41.236
335.012,940.132,-20.008
334.768,913.292,-8.54
366.0,901.336,-11.224
364.536,893.528,15.86
376.248,910.852,-0.244
358.68,926.468,-10.004
347.7,942.572,-35.38
345.748,929.152,-15.372
349.896,932.324,-1.464
397.476,953.552,-35.38
404.796,964.532,-29.524
363.316,961.116,18.788
361.852,961.604,27.816
383.568,985.76,11.956
374.296,992.592,24.888
412.604,1007.72,0.732
393.572,1028.216,9.516
390.644,1066.524,-15.616
368.928,1083.604,-23.912
371.612,1067.744,2.44
393.328,1064.572,15.616
379.176,1084.824,27.328
356.972,1124.84,11.468
380.884,1149.972,-10.492
383.568,1172.908,-9.028
379.176,1203.408,3.66
359.656,1249.036,-17.08
334.036,1264.408,-40.748
313.296,1223.172,-5.856
336.232,1195.844,6.344
332.572,1194.136,3.66
294.264,1195.356,0.0
259.128,1188.036,-21.716
245.464,1153.876,-17.812
267.18,1118.008,-14.396
229.604,1096.048,3.416
195.688,1078.48,9.516
184.952,1042.124,11.956
184.464,997.472,23.18
162.504,957.212,48.556
157.38,922.808,58.072
139.568,903.532,51.972
81.74,896.944,23.668
32.208,885.476,16.348
27.328,896.212,-28.304
-0.732,906.46,-48.068
-73.932,875.716,5.368
-97.356,829.844,66.612
-79.788,779.58,94.672
-48.068,766.648,66.612
-61.244,771.772,37.088
-111.508,756.156,54.412
-150.792,724.436,75.64
-171.776,706.868,55.876
-203.74,700.036,31.476
-223.26,697.108,17.324
-205.204,719.068,-13.908
-216.672,745.664,-22.204
-217.892,759.084,-24.888
-226.676,750.544,-2.196
-248.392,759.572,9.76
-215.696,798.368,-46.116
-217.648,831.796,-63.196
-234.972,842.044,-30.5
-231.068,873.032,-35.868
-250.344,889.136,-21.96
-244.0,884.744,-11.224
-232.044,904.508,-31.964
-213.256,924.272,-42.944
-234.728,913.048,11.468
-237.656,909.388,48.312
-185.928,931.348,21.228
-197.64,969.656,1.464
-204.96,982.344,-3.66
-186.416,1004.304,-29.28
-186.66,1034.56,-72.712
-195.444,1048.956,-90.036
-216.428,1017.968,-48.556
-225.456,965.752,9.76
-216.184,922.564,55.144
-212.768,890.356,111.508
-188.124,915.0,78.812
-178.852,946.964,21.96
-216.428,956.968,25.376
-233.02,937.936,50.996
-215.696,932.324,40.26
-211.548,950.136,14.152
-244.0,981.856,-11.468
-233.996,994.3,-22.936
-194.468,995.276,-40.016
-243.756,975.512,-13.176
-358.192,969.9,19.276
-351.116,991.372,-10.492
-298.168,1013.576,-27.328
-275.476,979.416,-17.324
-259.372,961.848,13.664
-207.4,904.996,52.948
-236.924,869.372,68.564
-217.16,917.928,1.952
-10.736,846.436,-115.412
70.272,792.268,-174.46
119.072,612.196,-137.86
285.724,355.02,-104.432
747.616,65.392,46.604
1453.508,104.676,120.78
1422.764,189.1,76.128
1086.044,383.812,-180.804
1051.64,390.4,-266.692
1308.816,199.104,-98.332
1272.216,129.32,-91.012
1199.992,71.98,38.064
1101.172,42.456,36.112
1194.38,43.188,-26.596
1172.908,25.62,-9.76
1073.112,-16.348,73.444
993.324,6.344,91.256
1016.992,38.552,50.752
1055.544,101.992,-44.408
1102.392,149.084,-88.816
1042.612,173.24,-120.536
1030.9,200.324,-171.044
1006.5,185.684,-135.908
1006.256,162.748,-85.888
958.432,156.892,-69.54
949.648,177.632,-96.624
964.532,201.544,-124.44
945.012,187.636,-99.308
925.004,172.752,-74.176
886.208,173.728,-100.284
884.256,182.024,-97.356
846.192,171.288,-57.096
838.628,173.972,-47.58
851.804,147.62,-56.364
875.96,125.904,-43.188
868.64,125.172,-71.492
863.516,116.144,-59.78
801.54,92.72,-5.368
839.36,108.58,-47.824
889.38,108.092,-101.992
850.584,56.608,-69.296
751.276,22.204,-20.496
722.728,9.76,-0.976
738.832,11.712,-8.54
790.804,15.86,-57.34
832.772,17.324,-109.312
857.172,-22.448,-107.36
848.144,-86.132,-47.58
922.808,-131.272,-28.304
972.34,-139.812,-71.98
981.368,-171.288,-65.148
991.372,-202.032,-62.22
1015.772,-202.032,-88.328
1025.532,-229.604,-88.572
981.612,-253.028,-53.192
944.28,-257.908,-17.324
965.508,-233.02,-45.14
999.912,-284.26,-44.896
1073.6,-324.764,-72.224
1046.516,-322.08,-67.1
983.564,-308.66,-62.952
994.3,-317.2,-72.956
1028.46,-347.212,-56.852
1004.304,-345.26,-44.164
986.248,-375.516,-20.008
1044.32,-386.008,-43.92
1105.32,-405.772,-74.176
1126.792,-398.696,-118.34
1119.716,-406.26,-94.184
1040.66,-435.784,-2.928
1122.644,-481.656,-1.708
1277.584,-479.216,-80.032
1348.588,-493.856,-83.936
1309.304,-506.056,-61.732
1261.724,-520.452,-16.592
1226.344,-541.924,34.404
1254.648,-548.268,46.36
1233.664,-530.456,-20.984
1128.988,-517.28,26.352
1095.804,-473.604,28.06
1160.464,-421.388,-18.788
1187.548,-391.376,6.832
1188.28,-362.828,0.976
1240.252,-356.728,-34.16
1438.868,-324.764,-82.472
1259.04,-366.244,-58.072
997.716,-336.232,-12.932
845.216,-221.064,36.844
1016.504,-146.644,33.672
1291.736,-40.992,-50.02
1150.948,25.132,-73.932
1098.244,164.456,-80.52
871.08,351.36,-155.672
479.46,500.444,-53.192
741.76,520.452,42.7
939.644,476.776,102.724
809.592,662.46,88.572
718.092,798.368,-32.94
534.36,824.72,-30.256
661.728,686.616,9.516
620.004,658.8,85.888
417.24,736.636,68.32
351.116,798.856,-18.056
421.876,784.46,-80.52
428.952,762.012,-67.832
318.664,785.436,-35.624
284.504,847.168,-89.06
274.256,899.14,-149.816
297.924,892.064,-142.252
335.5,846.192,-82.472
315.736,825.452,-33.184
330.864,863.76,-75.152
388.936,910.12,-145.668
361.12,907.436,-109.312
359.412,900.604,-95.648
355.508,908.9,-96.38
365.268,931.104,-110.532
404.064,937.692,-131.028
412.848,926.712,-105.896
420.656,936.228,-84.668
427.0,946.232,-82.96
393.084,952.82,-70.272
361.852,949.404,-74.42
394.792,921.588,-68.076
455.792,893.772,-45.872
448.472,899.628,-13.176
434.32,905.972,-6.588
399.916,897.432,6.832
369.66,884.5,20.984
356.728,867.908,19.032
415.044,879.376,-28.06
451.156,908.412,-61.0
435.052,938.424,-63.196
401.868,932.812,-32.94
400.892,919.148,-7.564
372.1,894.992,21.716
375.76,878.4,14.396
400.16,897.188,-23.668
402.844,922.076,-42.7
393.328,929.64,-41.48
368.928,928.664,-32.208
377.712,915.488,-26.108
442.372,921.344,-49.776
440.664,948.184,-40.748
420.656,975.512,-42.944
403.82,991.86,-36.356
393.572,982.832,-2.928
423.34,996.984,-6.344
434.32,1029.192,-5.612
444.568,1079.456,-26.352
437.004,1115.08,-44.408
414.556,1103.368,-12.444
459.94,1116.3,-14.152
470.432,1197.552,-54.412
458.232,1244.644,-86.132
408.944,1257.332,-55.632
396.744,1250.012,-15.372
428.952,1242.204,-3.172
439.688,1226.1,17.324
438.956,1226.588,15.128
394.06,1239.52,-5.368
409.432,1243.668,-63.196
329.888,1229.028,-63.928
307.44,1161.196,-30.988
307.684,1090.192,17.812
301.34,1042.124,36.356
276.208,1026.752,31.476
240.34,1011.38,29.28
242.536,982.1,21.228
198.128,946.232,50.508
176.168,915.244,59.78
136.64,881.572,60.756
81.984,870.592,32.696
12.2,847.412,32.452
7.32,824.72,4.148
-16.104,807.396,-20.74
-80.276,799.1,-26.596
-100.284,763.72,-15.616
-111.264,742.248,-22.936
-137.128,727.608,-8.784
-185.928,708.576,37.088
-160.064,725.656,13.908
-121.512,762.988,-61.0
-159.576,764.94,-40.26
-181.048,738.1,-16.836
-188.368,714.188,-7.808
-213.5,715.896,2.44
-218.136,730.292,-13.42
-202.764,721.996,-2.196
-252.052,703.208,67.1
-227.896,736.392,41.48
-205.204,804.712,-46.604
-219.356,873.52,-92.232
-238.876,884.5,-90.524
-224.48,892.308,-107.36
-247.66,914.756,-109.312
-257.42,903.044,-46.848
-232.776,898.164,-16.836
-206.668,921.832,-47.824
-209.596,961.36,-76.86
-198.86,970.388,-61.732
-192.516,955.748,-8.052
-177.876,947.452,29.768
-161.528,969.656,14.152
-154.696,977.464,16.104
-156.648,1000.644,3.416
-179.828,1020.408,-10.736
-173.24,1023.824,-28.304
-187.88,1016.504,-15.616
-181.536,1018.7,-16.104
-190.32,1012.112,-14.884
-185.928,998.204,-27.816
-188.612,989.908,-36.6
-200.568,975.268,-25.132
-209.108,970.876,-22.692
-251.32,957.456,-7.32
-297.68,960.384,-16.592
-388.448,977.22,-38.064
-484.584,1015.772,-78.812
-580.232,1038.464,-128.588
-655.14,1011.136,-62.708
-424.316,897.676,5.124
-96.868,798.368,-0.488
-22.448,704.428,20.984
-203.008,571.204,87.84
97.844,396.744,85.644
511.668,122.732,100.284
369.66,-121.512,185.684
964.776,-304.512,257.176
1787.788,-299.876,308.904
2016.66,75.152,-65.148
1673.352,441.884,-583.648
1635.044,351.116,-456.768
1422.032,84.424,-84.18
1169.98,-76.86,191.296
1066.768,-66.124,225.456
917.196,21.472,155.184
912.316,73.688,27.084
1094.828,45.872,7.076
1031.876,62.708,4.636
946.232,97.6,-6.832
888.16,141.52,-37.332
923.784,154.696,-70.272
988.932,169.092,-97.112
980.88,52.704,-17.568
956.236,21.472,12.688
957.944,72.468,-65.88
955.992,139.08,-125.904
853.268,161.04,-112.972
761.524,161.528,-105.164
786.168,143.472,-82.96
803.736,108.824,-60.268
772.992,95.892,-56.608
735.416,114.436,-86.132
755.912,96.868,-91.5
770.308,65.148,-50.996
722.728,56.12,-42.7
723.704,43.92,-42.456
763.232,10.248,-36.6
834.48,-32.696,-24.156
794.22,-58.804,-58.804
759.084,-23.668,-71.736
864.736,-66.612,-42.212
925.98,-95.16,-122.732
965.02,-73.444,-137.128
911.096,-72.712,-118.828
917.684,-114.192,-114.436
1012.356,-184.464,-107.848
971.12,-193.98,-84.912
998.204,-217.404,-84.912
1114.592,-236.192,-121.024
1177.3,-303.536,-97.844
1204.628,-323.544,-74.908
1239.276,-333.548,-95.892
1257.576,-386.496,-72.468
1266.36,-376.004,-67.832
1214.876,-375.028,-57.828
1171.2,-375.272,-65.636
1154.608,-392.84,-39.772
1199.016,-401.624,-49.532
1207.556,-395.036,-79.544
1167.784,-397.476,-50.996
1008.208,-386.984,10.98
959.896,-346.724,12.932
1022.848,-317.932,-41.724
1176.568,-282.796,-148.352
1239.52,-257.42,-210.084
1223.416,-311.344,-131.272
1156.316,-363.56,-56.852
1091.9,-396.988,2.44
1106.54,-407.968,32.208
1129.72,-382.836,-12.932
1172.176,-357.46,-61.976
1157.536,-343.064,-67.344
1099.708,-349.896,-33.428
1043.832,-364.048,-17.568
1024.068,-357.216,-8.052
981.612,-350.872,7.076
950.38,-331.84,-13.176
942.816,-323.788,-32.94
984.052,-309.392,-52.704
1004.792,-309.88,-68.32
1019.188,-300.608,-53.68
985.272,-295.972,-56.364
960.384,-308.172,-48.312
1067.012,-294.752,-59.048
1096.78,-278.892,-53.436
1080.188,-265.228,-33.184
980.636,-284.26,-49.288
812.52,-229.848,-86.132
903.532,-199.592,-53.68
1065.06,-218.38,23.18
1455.46,-145.424,15.86
1470.832,-110.288,-53.924
1147.288,-160.064,-121.024
1033.34,-111.752,-116.632
1138.992,-52.704,-96.624
1025.776,-80.764,74.42
893.528,18.544,94.428
818.62,201.544,26.84
847.412,423.828,-88.084
614.636,515.328,-34.404
462.38,592.188,162.992
516.548,763.476,59.292
338.916,926.956,-55.876
464.82,923.784,-58.072
634.644,860.832,-13.176
422.852,855.464,172.02
441.884,863.272,114.192
398.696,858.392,45.14
417.484,854.732,33.672
364.292,855.464,50.508
374.296,877.668,43.188
323.056,881.572,74.908
273.524,924.516,42.7
280.844,953.796,-11.956
335.988,938.668,-16.348
388.936,941.596,-6.832
411.628,951.356,9.516
416.996,961.36,12.932
395.28,958.92,6.832
409.92,939.644,4.88
420.168,943.548,19.276
454.572,939.4,21.716
469.7,946.72,3.416
444.568,961.848,-15.616
450.424,950.38,-15.128
431.636,911.34,37.576
416.508,888.892,76.128
436.76,890.356,51.484
455.792,886.696,41.968
483.364,890.356,41.236
476.288,904.752,38.064
457.5,923.54,16.348
447.984,913.048,14.396
445.544,890.844,41.48
435.296,873.764,59.048
454.084,855.22,78.812
458.964,868.152,64.66
432.368,899.14,31.72
420.9,916.708,13.42
399.672,915.976,22.936
410.896,941.108,37.82
443.104,982.344,38.552
504.836,1046.516,-23.424
500.932,1122.156,-40.748
506.056,1166.808,-40.992
527.04,1191.94,-46.116
487.268,1176.08,21.472
494.832,1183.888,68.564
534.36,1230.492,54.656
507.276,1283.684,26.84
474.336,1319.796,-7.564
511.912,1278.072,13.664
503.616,1204.14,78.812
465.064,1116.056,178.852
473.604,1046.516,229.36
464.576,1006.256,226.92
441.396,995.276,177.144
366.244,982.344,173.484
339.16,951.6,159.088
296.46,909.632,179.584
261.812,877.912,188.612
261.324,870.592,131.028
229.116,874.984,83.204
154.452,850.34,97.6
128.1,809.836,125.904
118.584,822.768,89.548
66.612,843.508,50.752
65.88,834.48,29.768
63.684,810.324,40.26
51.728,796.172,41.236
-23.424,800.564,43.188
-56.12,796.416,36.6
-107.604,793.488,67.344
-80.276,805.688,55.388
-32.208,853.024,-13.908
-98.332,873.764,-23.912
-120.536,859.612,-2.196
-122.244,864.492,15.616
-96.136,908.168,-36.356
-123.22,923.54,-38.064
-98.82,907.436,-10.248
-56.608,932.812,-65.88
-82.228,940.864,-78.568
-110.532,886.208,-16.348
-112.24,843.02,8.54
-142.496,809.348,49.288
-161.772,785.436,76.86
-119.316,801.54,45.872
-106.384,844.24,6.344
-139.324,858.636,18.544
-162.748,843.02,67.832
-112.728,845.216,66.124
-71.248,895.236,1.22
-164.212,906.704,60.268
-132.004,911.584,62.22
-68.808,969.168,-0.732
-50.752,1026.02,-47.336
-88.572,1041.392,-25.376
-115.168,1010.648,25.864
-81.008,986.004,45.384
-44.896,998.936,19.52
-75.884,1016.26,21.472
-103.944,992.592,59.048
-63.684,988.688,40.748
-68.32,996.74,12.2
-105.652,993.812,8.784
-104.432,994.056,-10.492
-102.968,996.984,-33.184
-104.432,986.004,-40.748
-79.788,969.168,-41.48
-106.872,951.112,-0.488
-106.384,958.92,-4.88
-97.6,978.44,-36.6
-112.972,961.116,-31.232
-166.652,952.82,2.928
-201.544,963.068,14.64
-184.22,1016.26,-32.94
-405.528,1088.484,-79.056
-367.708,1098.488,-70.516
-295.24,945.012,89.792
-132.492,810.812,181.048
90.036,741.76,174.704
64.904,737.612,90.524
30.5,776.164,0.0
334.768,654.896,-84.668
640.256,575.596,-165.188
816.912,574.376,-176.412
935.252,593.164,-221.796
1041.88,681.98,-368.684
1166.32,718.58,-409.676
984.052,508.984,-23.668
1057.74,284.26,292.8
1126.304,299.876,134.2
1141.676,447.496,-209.84
1235.372,418.948,-258.152
1060.668,341.356,-115.168
952.576,304.268,-27.816
824.232,297.436,-3.416
899.628,294.508,-47.824
887.916,351.848,-163.724
999.18,283.284,-85.888
962.58,241.56,-25.132
982.832,258.884,-36.112
863.516,260.836,-51.484
828.136,295.484,-58.804
863.272,314.516,-53.68
825.452,321.592,-60.512
810.812,300.608,-14.152
742.492,299.876,-22.448
768.844,330.864,-55.632
762.012,340.136,-43.92
823.256,326.96,-53.192
809.592,297.68,-57.096
771.04,281.332,-61.488
745.908,284.992,-83.448
783.972,255.224,-69.54
897.92,210.816,-34.648
992.348,156.16,-26.596
945.012,159.576,-61.488
921.344,175.924,-80.276
870.348,167.384,-54.412
941.596,150.304,-50.508
1000.888,97.356,-49.532
882.792,88.816,-43.432
861.808,68.808,-12.688
884.5,42.456,15.128
937.448,18.056,21.472
1050.664,18.544,-24.156
1048.712,20.252,-74.42
990.64,21.472,-85.888
922.808,-10.004,-30.988
871.812,-51.728,16.836
879.376,-80.032,7.808
935.008,-39.284,-79.3
906.46,-25.132,-120.292
896.944,-53.68,-77.836
891.332,-97.844,-72.468
904.508,-93.208,-130.784
944.036,-97.6,-120.78
1021.14,-132.98,-108.824
1114.104,-123.464,-166.652
1107.516,-141.276,-157.624
1077.504,-140.544,-127.368
1164.124,-146.156,-146.156
1270.508,-139.08,-196.908
1344.44,-167.872,-177.388
1333.46,-199.592,-110.776
1400.316,-200.08,-94.428
1511.092,-220.576,-112.728
1533.296,-215.696,-152.5
1412.272,-201.788,-164.456
1341.268,-203.74,-140.788
1338.584,-223.992,-90.768
1322.724,-216.428,-79.544
1302.716,-204.228,-92.964
1256.356,-198.372,-120.048
1158.268,-182.756,-133.224
1081.164,-189.588,-95.404
1044.076,-209.84,-64.904
1021.384,-220.82,-58.072
1019.188,-215.94,-76.128
1000.644,-199.104,-99.064
942.084,-162.504,-150.792
903.776,-166.408,-138.592
880.352,-190.076,-102.48
874.252,-175.68,-91.012
929.396,-177.388,-103.212
1049.688,-154.94,-126.88
1135.088,-147.864,-132.492
1129.476,-140.788,-87.84
1012.356,-141.276,-53.192
962.58,-112.484,-44.652
1108.98,-71.248,-82.716
1376.404,-30.256,-84.424
1360.788,9.516,-73.688
1164.856,3.416,-56.608
1130.696,59.292,-80.276
1245.864,97.356,-147.62
1443.504,184.464,-202.032
1157.048,202.52,-140.544
857.904,264.74,-16.592
865.224,416.996,-40.016
513.864,555.1,5.368
252.54,829.112,16.104
553.88,789.096,-41.968
468.724,772.504,53.192
236.192,810.08,77.836
392.84,825.696,-64.416
433.1,839.116,-98.576
375.516,894.26,-78.812
312.32,942.816,-97.112
337.94,924.272,-107.116
342.576,906.46,-91.988
359.656,894.748,-43.676
373.564,899.384,-17.08
340.868,905.484,-1.708
311.344,892.308,10.004
255.712,834.48,76.372
344.772,804.956,65.148
367.464,815.204,74.908
344.04,854.976,57.096
356.484,913.536,-10.248
372.832,936.716,-48.8
372.588,944.036,-43.188
376.736,954.772,-33.916
435.052,952.332,-35.38
443.104,940.132,-8.296
406.504,910.608,38.308
410.896,880.596,62.22
433.1,846.68,86.62
455.792,844.24,97.844
438.224,877.668,77.836
414.312,904.996,46.116
408.7,899.384,44.652
403.088,892.796,49.044
422.12,905.24,31.964
433.344,914.268,28.06
433.344,923.784,26.352
422.364,930.86,27.816
414.8,931.104,36.6
409.92,927.688,40.504
412.848,929.884,31.476
418.948,940.132,13.176
398.696,962.336,-13.42
396.744,955.26,-1.708
402.844,950.38,22.448
416.02,957.212,23.912
426.756,975.756,7.32
421.632,991.372,-8.296
392.108,997.716,16.592
427.244,1007.72,35.624
422.12,1028.704,52.46
479.216,1051.64,35.38
502.152,1092.632,21.472
518.5,1136.552,25.132
476.532,1148.264,46.116
485.56,1176.812,-12.2
424.804,1183.156,-34.404
411.872,1135.576,-17.08
421.876,1092.632,-14.152
353.556,1049.444,3.904
339.16,1000.644,7.076
278.648,945.988,52.704
297.924,895.968,72.712
274.5,887.672,73.2
251.32,912.804,47.58
216.428,939.888,36.356
206.18,963.068,-8.54
166.896,967.704,-16.348
144.936,968.68,-28.792
126.88,966.728,-26.596
147.132,962.58,-11.956
159.576,969.168,-12.688
118.828,967.46,1.464
97.356,945.012,26.84
104.92,954.528,-5.368
113.704,997.472,-70.272
107.116,987.712,-62.464
78.08,948.428,-23.912
57.34,908.168,17.324
49.532,878.888,41.236
35.136,876.936,37.576
56.364,872.056,12.444
118.828,857.416,-21.716
67.588,832.528,25.864
3.904,798.124,84.424
43.676,825.696,23.912
39.284,845.46,-14.396
6.832,826.916,5.612
12.932,816.18,15.372
23.912,825.208,14.64
13.176,874.984,-18.788
-20.496,908.168,-37.576
-22.448,921.588,-50.996
-10.004,940.376,-61.0
-0.244,966.972,-73.932
-25.864,953.796,-22.448
-21.472,941.596,13.908
5.856,963.556,-8.052
38.308,992.104,-40.992
49.288,997.228,-28.792
15.616,1004.06,4.636
24.156,1019.676,-18.056
35.136,1023.824,-34.648
40.992,1012.6,-30.256
29.28,1004.304,-18.544
8.784,999.912,-6.344
23.424,997.96,-18.056
-23.18,1000.156,8.54
-22.204,1006.012,5.856
-25.376,1018.7,-12.688
-91.5,1048.712,-24.4
-140.056,1092.632,-45.384
-9.76,1048.224,-34.648
150.548,968.68,5.124
62.708,952.088,22.936
-143.716,1042.856,-32.208
-186.172,1141.188,-110.288
-74.42,1012.356,-91.5
5.856,804.224,-3.172
-239.12,645.868,30.5
92.476,410.408,-84.912
640.5,10.248,-3.904
1192.428,-95.404,313.052
1697.996,0.488,282.552
1383.236,313.784,-112.972
1256.6,428.952,-338.428
1296.128,175.68,67.832
1199.26,131.516,141.52
1207.312,209.84,-9.516
1065.304,196.908,28.792
988.444,176.168,48.068
994.788,196.176,37.332
922.076,144.936,88.328
828.624,155.916,76.372
961.36,179.34,23.668
965.508,218.624,-16.348
1076.772,224.724,-43.92
1057.74,214.476,-39.284
957.456,187.88,-32.94
993.812,183.244,-6.344
974.048,172.996,-12.932
954.772,184.952,-19.032
925.004,184.464,-28.304
869.616,174.704,-21.472
828.136,167.628,-29.036
714.676,183.732,-8.54
667.584,198.128,-7.32
629.276,193.004,-16.592
647.82,175.68,-30.744
654.652,156.404,-55.876
607.804,139.08,-41.724
607.316,119.804,-22.692
633.424,94.672,-49.532
787.632,35.38,-73.688
825.94,22.204,-95.892
836.92,-3.66,-60.512
843.02,-60.756,-21.228
933.544,-105.896,-33.184
927.932,-151.524,-45.14
1030.168,-162.992,-46.604
1010.648,-192.76,-53.924
997.716,-204.228,-43.188
947.696,-209.84,13.908
858.148,-209.596,7.808
939.4,-201.3,-85.156
1177.056,-241.072,-114.924
1166.564,-231.068,-159.576
1133.38,-227.408,-124.928
986.004,-273.28,-80.276
1069.94,-266.936,-87.596
1146.068,-283.04,-47.58
1186.328,-284.992,-16.836
1162.172,-296.216,-87.352
1276.364,-252.784,-191.54
1391.044,-313.54,-136.152
1281.488,-335.988,-97.356
1284.416,-361.852,-61.976
1328.336,-360.632,-50.264
1335.9,-347.7,-55.144
1355.908,-350.628,-59.536
1379.088,-340.624,-106.628
1376.16,-317.444,-147.376
1319.796,-315.492,-120.292
1245.376,-323.544,-69.296
1204.14,-333.06,-31.476
1097.024,-344.528,-34.16
1049.444,-331.596,-36.356
1048.468,-319.64,-31.232
1011.38,-294.264,-35.136
1030.9,-273.768,-80.276
1005.524,-279.868,-99.308
955.748,-277.672,-83.692
942.572,-286.212,-61.488
893.284,-293.288,-45.14
921.832,-295.728,-44.408
971.364,-300.364,-60.268
990.396,-267.912,-108.824
1020.164,-256.2,-126.636
1052.86,-270.84,-95.892
1034.316,-253.272,-126.636
1082.872,-211.06,-145.668
1109.468,-199.348,-103.456
1223.66,-179.584,-105.652
1249.28,-162.26,-122.0
1192.184,-175.436,-78.324
1098.244,-161.284,-10.248
943.06,-159.332,14.884
997.96,11.956,-43.676
988.2,75.396,-31.72
1048.956,115.656,0.244
1008.94,193.736,-29.768
884.988,373.32,-87.352
862.784,443.104,-75.64
822.768,457.5,-8.784
668.072,510.936,81.496
628.788,626.836,76.128
645.38,759.572,-32.94
459.696,769.82,18.788
484.34,704.916,76.128
550.464,691.008,92.232
582.428,747.616,62.464
574.376,840.58,-30.5
469.7,864.736,-41.968
592.92,806.176,-61.244
616.588,782.264,-31.476
537.532,819.352,-15.128
425.536,853.268,-9.028
424.316,843.02,-14.64
485.072,795.684,2.928
492.88,803.98,6.1
527.284,845.46,-30.744
513.376,870.836,-31.964
467.504,857.172,-3.904
504.592,829.844,-5.612
511.424,825.452,-3.416
598.288,855.464,-41.968
624.396,887.428,-42.944
574.376,904.752,-15.372
544.12,907.924,-18.3
520.208,875.716,4.88
630.008,869.616,-30.256
569.252,895.236,-4.88
491.416,905.24,9.516
480.924,900.604,-20.984
465.552,871.324,-7.808
481.168,848.144,10.004
495.564,856.196,-2.196
463.112,864.248,-8.052
432.124,852.78,-0.488
454.328,842.776,-27.084
485.56,843.02,-36.356
490.684,854.976,-26.596
497.76,866.444,-29.524
496.052,867.42,-21.96
498.492,877.424,-19.52
527.772,886.94,-28.06
513.62,892.796,-13.176
502.64,888.892,-1.952
499.468,874.984,10.492
519.964,867.664,17.568
551.684,876.692,12.444
529.724,896.7,11.468
491.416,894.748,17.324
477.996,868.884,19.276
484.096,853.512,6.588
487.512,856.44,9.272
483.852,867.908,17.568
492.392,869.372,13.664
464.332,857.904,22.692
438.712,855.22,23.668
472.628,860.832,3.172
503.372,881.084,-5.368
506.788,902.556,0.488
494.588,913.048,9.516
487.512,917.44,23.18
489.952,915.732,32.208
476.776,932.812,40.748
495.808,972.34,33.916
496.784,1009.916,54.412
529.724,1055.3,32.696
522.892,1087.264,35.136
520.208,1080.188,54.412
547.292,1080.432,38.552
544.364,1105.808,15.372
536.8,1094.096,36.6
545.34,1093.364,42.212
539.972,1132.404,2.928
515.572,1164.612,-36.112
501.176,1166.808,-58.316
465.308,1153.144,-59.292
458.476,1118.496,-51.728
457.256,1073.6,-25.132
422.12,1032.364,1.952
383.324,983.564,2.928
305.976,931.836,11.956
263.764,887.916,6.832
229.848,854.488,3.172
194.956,830.576,-15.86
199.836,814.228,-50.508
247.66,793.732,-50.508
311.588,785.924,-48.8
140.788,769.332,20.496
187.392,790.316,10.98
315.248,772.992,-10.492
451.644,817.4,-61.488
280.6,880.352,-47.824
183.244,936.472,-115.9
135.42,926.224,-153.964
123.708,873.52,-112.728
135.908,832.528,-60.024
162.26,821.304,-43.92
145.912,827.16,-39.04
122.732,852.292,-82.716
105.896,831.308,-91.012
63.684,787.144,-25.376
82.228,762.012,13.42
106.384,809.104,-20.008
76.86,857.416,-43.92
75.396,883.036,-43.432
104.676,932.812,-77.592
89.792,979.416,-96.38
105.408,994.3,-100.528
142.252,1001.132,-90.524
187.88,1017.48,-97.844
157.136,1019.676,-55.876
146.4,986.98,-13.42
138.348,969.656,-12.444
132.736,970.876,-37.82
140.788,979.172,-64.416
122.0,992.592,-64.904
117.364,995.52,-82.716
114.68,993.324,-100.284
101.504,983.076,-85.4
81.74,971.608,-63.44
133.468,974.536,-79.3
164.456,975.024,-69.784
137.372,995.764,-86.864
-12.2,1076.772,-160.308
-88.084,1163.392,-224.724
-40.748,948.428,19.764
1.708,775.92,206.18
-95.404,809.592,122.976
-261.812,932.568,-89.06
-101.504,859.612,-151.28
207.644,540.46,-122.488
143.716,150.06,-35.136
661.24,-114.192,-22.204
2027.64,70.516,-438.712
2109.868,484.584,-535.336
1319.796,445.788,-507.276
1127.28,424.316,-343.308
1221.952,122.732,125.416
1045.052,128.1,164.944
1164.124,284.016,-152.744
1062.62,286.212,-191.052
1114.836,196.908,-71.492
968.192,211.548,-67.588
880.596,215.208,-47.58
865.468,223.016,-79.056
941.84,285.724,-191.052
966.24,243.024,-135.176
942.816,221.796,-100.284
926.468,213.744,-90.524
906.216,194.468,-98.088
852.292,213.012,-127.368
871.812,225.944,-129.076
850.34,206.18,-102.236
814.472,187.88,-74.664
790.804,178.852,-85.644
776.896,169.336,-95.648
741.516,170.068,-83.204
672.464,166.652,-65.148
668.316,160.552,-91.988
689.056,174.704,-128.588
749.324,158.844,-106.628
708.088,104.92,-36.844
711.748,84.912,-31.476
747.128,76.128,-78.812
784.704,28.304,-70.272
698.816,-12.688,-58.804
889.136,-42.212,-23.668
1028.948,-93.94,-18.788
1078.968,-99.308,-40.992
1078.236,-142.252,-53.192
892.308,-133.956,-100.528
1020.408,-131.028,-78.568
1064.328,-199.592,-47.58
1004.06,-233.996,26.596
1066.28,-255.468,47.58
1104.588,-242.292,-16.104
1029.68,-216.428,-91.5
987.224,-174.46,-150.548
972.584,-155.672,-176.9
1055.056,-208.62,-125.172
1104.344,-268.644,-57.584
1064.328,-293.776,-27.084
1070.428,-269.132,-71.004
1124.596,-241.316,-111.264
1196.332,-238.876,-126.88
1307.84,-256.688,-131.516
1372.5,-298.168,-122.732
1336.388,-325.252,-59.048
1316.868,-327.692,-18.3
1417.152,-341.6,-22.204
1461.804,-337.696,-36.844
1406.904,-308.416,-67.344
1265.872,-271.328,-101.016
1170.468,-257.908,-66.612
1143.14,-274.256,-12.444
1120.448,-276.696,-19.764
1108.98,-258.64,-57.34
1030.9,-243.024,-103.944
976.244,-246.928,-83.448
990.396,-270.84,-40.748
978.684,-290.848,-15.128
986.248,-304.024,-17.08
976.0,-296.948,-26.596
942.572,-276.452,-42.944
929.152,-240.096,-51.24
972.584,-260.348,-35.624
1087.264,-239.852,-64.904
1288.564,-217.892,-51.484
1375.184,-166.164,-140.788
1328.58,-119.56,-211.548
1327.604,-125.172,-215.94
1433.256,-189.1,-200.324
1162.66,-147.376,-16.592
854.0,-92.232,175.192
1050.42,171.288,72.956
973.56,287.92,-18.056
878.156,361.852,-10.736
523.624,533.14,83.204
393.328,642.696,102.724
508.74,718.824,7.32
508.74,704.428,50.02
511.18,704.916,54.9
386.74,802.516,-4.148
323.3,869.616,-104.676
353.8,866.932,-114.436
356.972,825.452,-55.632
454.328,822.768,-53.924
410.652,846.192,-14.152
367.464,870.348,7.564
405.284,904.752,-39.528
397.72,882.792,-24.156
452.864,873.52,-32.94
448.472,882.792,-17.08
483.852,895.724,-14.152
469.944,912.56,-14.64
502.396,927.932,-49.776
504.836,917.196,-51.728
474.336,900.36,-21.716
478.24,877.424,-13.42
535.092,859.612,-20.496
496.052,829.6,40.26
506.3,833.26,37.088
479.46,846.68,28.792
489.952,847.656,14.884
474.58,841.068,32.696
495.076,829.844,49.776
501.908,829.356,62.952
519.72,843.752,61.732
528.504,869.616,41.968
535.824,886.208,22.936
524.356,876.692,40.016
533.14,875.96,39.284
526.796,863.76,58.56
546.316,874.008,44.164
524.844,881.328,46.604
536.556,904.508,16.592
524.112,904.996,23.668
521.184,898.408,36.844
541.192,895.236,47.824
582.672,913.292,38.796
522.16,903.776,93.94
524.844,880.84,115.656
530.456,883.768,121.024
547.536,913.78,96.624
537.044,952.088,59.536
508.252,973.804,27.328
463.112,972.096,14.152
421.388,957.7,16.592
439.688,945.744,14.396
434.564,928.42,37.576
421.388,915.0,73.2
433.1,905.728,91.5
408.7,889.868,115.656
387.228,880.84,108.336
367.464,911.584,57.828
373.564,954.284,-1.464
378.688,934.52,14.152
368.928,899.872,59.048
409.676,915.732,62.952
439.688,942.328,61.488
433.344,925.004,73.932
395.768,883.524,97.112
368.684,896.944,87.84
362.34,922.808,63.684
364.048,937.936,46.848
331.108,926.224,69.54
304.024,910.12,93.94
333.304,917.684,88.084
304.756,922.32,99.308
263.276,913.292,115.168
257.908,911.34,109.8
309.636,925.736,64.416
373.808,956.48,5.856
334.768,955.992,22.936
256.2,918.904,82.472
234.484,878.4,119.072
254.492,870.348,128.832
271.084,886.208,122.244
323.544,909.632,84.668
303.78,933.788,77.836
233.02,933.544,112.728
206.912,925.248,122.732
224.48,932.324,116.632
222.772,930.128,126.88
249.612,930.616,127.612
292.312,930.372,126.88
287.92,931.104,125.66
265.472,930.372,124.44
224.236,951.112,97.844
186.416,965.752,77.104
265.716,955.748,74.664
312.808,932.568,88.816
293.776,909.876,130.296
298.656,926.712,126.148
276.696,975.756,99.308
288.408,1006.744,66.124
295.484,997.228,71.492
302.56,967.948,98.088
305.976,954.528,121.756
