acc_x[mg],acc_y[mg],acc_z[mg]
-146.4,972.828,-8.296
-149.572,969.168,-10.492
-164.456,961.848,-6.344
-175.68,953.796,-3.66
-176.9,960.628,-13.664
-182.756,970.144,-22.204
-174.948,971.364,-19.52
-168.848,966.484,-8.052
-172.752,965.508,-3.172
-172.02,974.78,-11.956
-178.364,979.416,-12.2
-179.828,969.9,1.464
-176.412,964.288,13.664
-163.48,967.216,5.856
-170.556,978.196,-2.44
-170.8,984.784,-5.612
-167.14,988.688,-9.028
-162.016,990.152,-17.08
-162.26,988.2,-20.252
-167.14,982.588,-13.908
-169.336,977.464,-6.832
-177.632,967.948,1.22
-181.78,961.116,0.732
-179.34,969.9,-14.884
-183.244,971.608,-13.176
-166.164,964.044,-6.1
-166.164,964.044,-10.004
-171.776,970.632,-21.96
-168.604,977.708,-28.792
-181.048,967.948,-15.616
-189.1,956.968,-9.516
-187.88,956.968,-12.444
-192.516,963.312,-14.64
-187.636,968.924,-14.64
-171.288,970.876,-15.616
-172.996,970.388,-7.076
-170.556,976.0,-5.368
-167.872,977.708,-1.708
-166.408,969.9,8.052
-170.556,967.948,5.612
-164.212,977.708,-18.056
-170.8,988.2,-31.72
-172.752,989.42,-33.184
-171.532,976.732,-18.544
-178.12,966.728,0.732
-179.096,961.604,7.32
-178.852,966.484,0.488
-177.144,974.048,-14.64
-181.536,980.392,-22.204
-186.172,979.416,-16.592
-183.0,973.072,-7.32
-178.364,965.264,-2.684
-182.756,964.288,-1.22
-187.636,963.068,-3.416
-193.98,960.384,-3.904
-198.372,962.336,-9.272
-191.052,968.68,-19.276
-188.856,968.192,-11.956
-183.0,962.336,2.196
-181.292,956.724,10.248
-181.78,955.992,8.052
-183.488,968.436,-5.124
-177.876,978.196,-12.688
-182.756,974.78,-0.732
-169.336,971.12,1.952
-176.656,976.0,0.244
-191.54,982.344,-8.54
-178.364,987.468,-22.692
-183.0,987.468,-22.448
-183.488,984.784,-13.908
-187.148,977.22,0.732
-181.048,974.292,5.124
-183.976,978.196,1.952
-184.22,979.416,-3.66
-184.708,973.316,0.244
-183.488,968.192,7.32
-179.584,966.24,12.2
-176.656,965.264,12.444
-182.024,962.58,7.32
-181.292,963.068,-3.172
-177.144,975.512,-17.324
-176.412,977.464,-18.056
-179.096,965.264,-7.808
-185.44,955.992,-0.488
-197.884,961.848,-8.296
-203.984,970.876,-18.788
-199.104,972.828,-16.348
-196.176,959.896,6.1
-189.832,952.82,18.544
-191.296,963.8,10.004
-185.44,975.512,-6.1
-189.344,977.708,-5.368
-186.904,974.536,-2.44
-183.0,977.708,-9.516
-183.244,976.244,-8.052
-185.196,970.144,5.856
-185.928,957.944,16.592
-186.416,953.552,16.836
-189.588,965.264,1.708
-189.344,974.292,-5.612
-191.784,974.048,0.244
-183.732,971.364,1.708
-184.22,976.488,-5.612
-188.856,981.368,-7.564
-190.808,979.904,-0.976
-193.248,974.78,1.952
-195.688,979.904,-5.124
-198.616,986.492,-0.976
-196.176,974.292,15.128
-190.808,967.216,17.08
-196.664,971.852,4.148
-197.64,979.904,-10.736
-189.832,975.024,-9.76
-188.368,963.8,3.416
-195.2,959.164,7.808
-198.86,964.288,-7.564
-193.004,968.68,-19.52
-182.024,972.34,-26.352
-177.144,968.924,-18.3
-178.12,963.8,-9.272
-178.852,956.236,-4.148
-179.584,953.796,-4.148
-189.588,954.284,-4.148
-213.012,958.432,-6.344
-210.084,965.508,-19.276
-208.62,974.048,-27.572
-242.78,976.976,-23.668
-272.304,993.568,-26.352
-359.168,1027.24,-12.444
-383.324,1032.852,2.196
-407.724,1040.416,12.688
-544.608,1093.852,-9.028
-638.792,1104.588,-52.948
-467.016,995.764,-75.884
-469.944,917.684,-24.4
-583.892,875.716,-34.16
-476.288,728.096,-161.772
-122.732,398.452,17.812
733.708,291.336,230.092
1174.86,563.152,-27.572
769.576,776.164,-258.64
780.068,411.628,83.448
989.42,373.808,-7.808
1224.392,298.412,-46.848
1201.456,228.872,26.352
1098.488,199.592,-11.224
1183.156,106.384,45.384
1251.964,65.636,66.124
1094.828,43.92,153.964
953.308,79.056,133.956
1024.068,67.344,87.108
1150.46,71.736,3.416
1179.74,30.988,3.904
1036.512,82.228,-4.148
937.692,222.772,-85.888
930.372,246.196,-101.504
986.248,217.16,-114.924
1040.416,190.808,-58.804
998.692,165.92,-0.244
959.896,184.708,18.544
970.876,199.104,-16.104
954.04,205.204,0.732
972.584,214.476,-6.588
1017.968,206.18,-36.356
982.1,221.064,-39.772
938.424,259.86,-46.848
880.352,253.516,-37.576
868.64,245.464,-35.136
885.964,240.34,-35.38
870.104,194.712,4.148
781.044,205.448,-24.644
754.936,221.308,-67.1
736.88,211.792,-71.004
714.92,190.564,-42.212
684.42,177.388,-30.744
644.404,158.6,-35.868
705.648,117.608,-45.384
734.684,60.756,-35.38
737.856,8.052,31.964
748.104,-18.544,60.024
777.14,-28.304,48.312
721.508,-25.376,26.352
771.04,-45.384,-31.964
937.204,-100.04,-68.564
998.936,-185.684,-42.7
1025.532,-241.072,58.804
954.772,-244.244,69.296
923.784,-225.212,33.916
953.796,-208.376,-69.784
1033.096,-223.748,-30.256
1029.68,-240.096,17.08
924.272,-264.984,50.752
825.208,-311.832,2.196
931.104,-335.256,-25.864
1051.396,-364.78,-4.148
1040.416,-374.296,8.54
1014.308,-380.396,-28.548
857.66,-422.852,-89.792
861.564,-438.468,-76.128
976.488,-491.416,19.032
880.84,-487.512,20.496
920.856,-491.172,43.92
1019.432,-502.884,49.776
1041.636,-504.104,-23.424
1219.024,-464.576,-109.556
1444.968,-451.156,-183.0
1565.016,-469.456,-178.12
1541.592,-559.492,-53.192
1434.476,-620.98,54.656
1431.548,-608.536,83.448
1356.396,-566.08,77.592
1325.652,-561.2,79.788
1307.352,-513.376,14.884
1150.216,-461.648,-30.744
1043.344,-448.96,-35.136
985.516,-427.488,-45.872
979.416,-433.588,-27.816
1002.596,-439.444,-22.204
1036.024,-447.984,-26.84
1059.692,-473.604,-16.104
1051.884,-497.516,5.368
1024.556,-496.784,17.812
1131.184,-497.272,30.256
1175.348,-493.368,50.508
1174.128,-458.476,63.196
1174.86,-411.14,31.964
1303.204,-369.172,-49.044
1572.092,-264.496,-139.812
1494.5,-341.6,-46.604
1537.2,-326.96,-61.732
1509.384,-284.992,-145.912
1319.552,-102.236,-228.872
1130.208,-5.612,-181.292
825.94,57.34,23.18
471.408,221.552,158.844
494.832,482.144,191.296
477.752,538.996,228.384
342.82,611.708,226.92
422.364,705.404,105.408
413.824,762.256,11.468
309.148,768.6,34.16
350.628,753.228,14.884
287.92,788.12,-2.684
323.788,795.44,-35.624
290.848,780.312,-30.5
173.24,769.088,-10.004
203.74,781.776,-23.424
237.9,770.796,-5.368
311.344,780.312,-32.208
304.024,794.22,-24.888
296.216,781.532,12.932
311.588,823.256,-1.22
294.02,861.564,-12.444
378.688,875.96,-21.472
419.68,884.988,-1.22
411.872,917.928,6.1
406.26,932.568,13.42
399.184,935.984,22.692
406.504,937.448,17.812
433.344,940.864,16.104
400.16,947.696,48.8
382.836,961.848,34.404
372.344,971.608,17.08
349.408,966.728,23.424
397.964,964.776,23.18
422.852,953.308,39.772
393.084,951.112,45.384
372.588,962.58,25.62
319.396,948.916,25.864
311.832,916.708,38.552
370.636,881.572,42.944
424.56,880.352,60.268
399.428,906.948,59.048
369.66,919.88,51.484
341.112,915.488,36.6
320.128,914.024,20.252
362.584,909.388,10.248
394.304,924.028,17.324
404.064,937.692,15.616
386.984,944.036,16.836
371.856,942.084,10.736
340.624,928.908,23.912
342.576,921.1,34.648
434.076,917.684,27.328
428.22,920.612,57.584
392.352,932.324,60.024
341.356,942.816,45.384
322.324,937.936,32.208
336.964,925.248,21.472
391.864,917.928,13.664
400.648,925.248,34.892
345.748,938.424,45.384
327.204,952.576,9.76
335.744,952.332,-8.784
330.62,944.524,-0.244
350.14,930.128,10.736
359.9,932.812,9.76
315.248,934.52,21.472
309.88,928.664,19.52
337.94,914.024,22.448
378.444,918.416,25.376
371.612,950.868,18.056
330.376,965.752,24.888
328.668,951.844,26.84
335.988,935.984,31.476
376.736,942.084,29.036
352.336,942.572,51.728
330.62,943.304,43.676
306.22,943.304,23.912
328.424,949.648,-7.076
347.944,949.648,-6.344
339.16,941.108,19.52
324.764,940.864,20.252
305.732,934.764,10.004
322.812,938.912,-7.808
343.308,941.108,-4.636
369.66,941.108,21.96
353.8,938.912,42.212
327.448,935.252,37.82
326.472,938.668,15.86
357.216,953.308,-9.272
365.024,964.776,4.148
335.988,953.796,22.936
327.204,954.04,10.492
311.344,970.632,-16.836
284.26,983.32,-10.736
305.976,976.976,-1.952
298.168,982.1,-0.488
308.904,978.928,-6.1
327.692,970.876,-3.172
295.728,977.952,22.204
284.748,993.812,26.108
298.168,1030.9,10.004
299.876,1054.568,18.056
341.356,1083.36,10.492
313.784,1104.1,38.552
318.42,1132.404,44.896
310.368,1169.248,38.552
315.004,1201.212,32.696
307.684,1227.808,20.008
292.068,1256.356,0.732
279.868,1269.776,-26.596
231.8,1261.48,-27.572
226.92,1246.84,-20.252
230.824,1217.804,3.416
192.76,1182.424,36.356
171.776,1165.1,19.276
150.548,1160.22,-21.472
127.368,1140.944,-48.312
95.404,1092.876,-45.14
165.188,1055.3,-67.588
131.516,1021.628,-38.796
134.688,1024.068,-52.704
42.456,959.408,38.064
120.048,858.88,118.096
150.06,832.284,147.62
64.416,904.264,96.38
11.712,990.884,-6.588
-41.236,1017.724,-73.444
-78.568,963.556,-70.028
-62.708,923.784,-60.756
-38.064,924.272,-67.344
-45.14,947.696,-72.956
-123.464,960.872,-79.056
-130.784,920.856,-79.056
-127.612,891.088,-72.224
-93.452,887.672,-85.644
-109.312,886.452,-81.252
-149.816,880.84,-89.06
-188.612,863.76,-100.284
-195.932,842.044,-97.844
-243.512,824.232,-66.856
-197.64,803.248,-62.22
-167.384,799.588,-69.052
-219.112,780.8,-39.04
-243.268,772.504,-37.332
-244.732,789.34,-54.656
-260.836,835.212,-115.412
-228.628,834.236,-140.788
-255.956,823.988,-97.6
-253.516,824.72,-60.756
-249.368,828.136,-59.536
-246.44,824.232,-70.272
-287.676,808.86,-42.7
-282.796,787.632,-15.128
-269.864,801.54,-31.476
-248.392,830.82,-78.568
-237.9,839.848,-87.84
-276.452,841.312,-58.804
-259.86,857.66,-85.888
-274.256,891.332,-125.172
-284.016,892.552,-128.1
-278.648,880.84,-99.064
-258.152,888.648,-93.94
-261.568,920.124,-98.332
-293.044,926.224,-77.836
-279.868,941.352,-87.108
-264.496,965.02,-111.508
-287.676,967.46,-103.456
-292.556,958.188,-83.936
-270.84,953.064,-88.816
-217.648,948.428,-101.748
-236.192,943.792,-72.224
-284.26,920.124,-44.408
-291.092,943.06,-97.6
-269.62,959.164,-138.592
-281.088,943.792,-102.236
-247.416,933.788,-83.448
-227.164,955.26,-95.16
-245.708,980.148,-118.828
-294.264,983.564,-127.856
-253.516,966.728,-135.42
-189.832,953.308,-117.852
-230.092,929.152,-47.092
-231.8,920.856,-19.032
-229.116,951.356,-54.168
-241.804,977.22,-86.132
-231.8,961.604,-60.024
-199.592,946.964,-36.844
-211.792,945.744,-7.076
-192.516,967.948,-13.176
-198.372,986.736,-37.088
-202.276,979.172,-52.948
-220.82,965.996,-52.46
-225.7,965.508,-56.608
-223.016,987.956,-84.18
-236.192,994.788,-100.772
-244.0,955.748,-69.052
-236.436,935.74,-47.58
-238.388,935.496,-36.6
-228.872,949.16,-40.992
-224.724,946.964,-33.672
-228.14,943.792,-37.82
-220.332,948.428,-54.656
-218.868,954.528,-63.928
-220.332,969.656,-89.548
-242.78,972.584,-88.328
-264.496,965.264,-79.788
-256.688,954.04,-74.176
-236.924,939.156,-49.776
-247.904,937.204,-34.648
-232.044,957.944,-73.444
-231.068,968.192,-82.716
-250.832,971.12,-76.128
-245.708,955.26,-65.392
-233.264,951.844,-65.148
-251.564,949.648,-58.072
-251.564,950.624,-64.904
-239.364,948.428,-69.54
-241.804,940.864,-56.364
-229.36,960.384,-72.468
-366.0,946.476,-72.468
-457.012,990.64,-112.484
-254.248,1042.368,-178.608
-257.908,1000.4,-98.088
-282.308,953.308,-8.296
-383.08,938.668,8.54
-608.292,996.496,-56.852
-707.356,1108.492,-71.004
-321.348,989.42,-70.516
-193.736,936.96,31.232
-508.496,866.2,134.688
-376.736,848.388,74.176
272.792,612.928,-24.644
858.636,414.8,45.384
998.448,509.96,190.076
1006.988,469.212,100.772
761.768,530.7,-71.736
872.056,374.784,112.24
1083.848,232.288,360.632
1108.004,236.68,11.712
1292.468,353.556,-224.48
1378.844,280.112,-329.888
1371.28,112.484,-169.824
1078.236,20.252,35.136
923.54,115.168,16.592
935.496,116.144,17.324
973.804,44.652,62.952
955.016,15.616,59.292
930.616,53.924,47.58
881.084,107.848,28.06
859.368,142.984,-7.32
882.548,192.028,-59.78
845.948,207.888,-81.984
725.9,245.22,-97.6
654.652,225.456,-60.268
573.156,230.824,-60.512
563.64,256.444,-74.176
533.628,270.108,-90.28
545.34,244.488,-88.572
544.608,169.336,-51.972
636.84,122.0,-38.308
662.704,134.932,-71.492
704.184,97.6,-59.536
685.64,29.036,-56.608
736.88,-40.992,-26.596
704.428,-66.368,-30.744
813.74,-108.336,-25.132
941.352,-192.76,4.148
1002.108,-223.992,-17.08
897.92,-214.476,-88.084
836.188,-243.756,-50.508
891.82,-287.676,-49.288
1064.084,-340.38,-63.44
1053.592,-377.224,-92.232
942.328,-380.396,-84.424
904.02,-387.472,-51.728
916.464,-374.784,-73.932
1032.608,-401.38,-80.032
1069.452,-422.852,-94.916
1085.8,-433.344,-114.924
1073.112,-438.956,-104.188
1050.176,-478.728,-56.608
1140.456,-500.932,-63.44
1256.6,-538.02,-69.784
1267.824,-538.996,-89.304
1206.336,-547.78,-80.276
1141.188,-587.552,-24.156
1190.964,-625.86,29.768
1232.2,-613.904,13.664
1210.484,-594.628,-12.444
1183.156,-590.236,-0.488
1180.228,-587.064,33.672
1206.336,-584.136,15.86
1222.684,-568.764,-23.424
1196.332,-557.784,-19.032
1108.492,-533.14,-7.808
1019.676,-523.624,15.372
1050.664,-526.552,15.616
1122.156,-523.868,-15.616
1124.108,-485.316,-51.484
1086.776,-479.704,-46.116
1025.044,-507.52,3.66
998.936,-508.252,25.376
993.812,-516.06,42.7
1012.356,-512.156,29.28
1067.744,-480.68,-13.176
1082.872,-459.94,-42.944
1009.916,-447.496,-53.924
928.176,-473.36,14.884
933.3,-463.112,17.08
953.552,-462.38,17.568
980.392,-459.696,26.596
989.176,-448.96,15.616
931.348,-438.956,1.22
882.548,-430.904,2.684
888.892,-414.8,10.248
980.392,-397.476,12.444
1045.784,-357.46,-18.544
1132.892,-365.024,29.28
1247.816,-370.392,59.292
1130.208,-355.996,24.4
1056.032,-323.544,-9.028
1287.1,-228.872,-13.176
1618.452,-133.224,-86.376
1555.5,-211.06,-129.808
1110.2,-260.592,-48.068
1085.8,-99.308,-43.676
1386.408,215.208,-236.436
992.348,121.024,-148.352
433.344,325.74,67.344
212.768,563.396,210.084
368.196,719.312,122.0
226.188,658.8,194.712
149.084,715.408,200.568
307.44,743.468,148.352
272.304,819.352,112.728
197.152,884.5,-3.66
121.756,960.384,-57.096
83.204,892.552,-27.328
131.028,880.596,-35.136
157.38,927.688,-36.356
110.288,959.408,-16.104
88.084,971.608,-30.744
71.004,938.668,-18.056
67.1,877.912,37.82
77.836,871.324,67.832
124.684,949.892,10.736
80.032,968.924,9.516
24.644,934.276,9.272
21.716,915.0,-0.732
140.788,920.612,-30.744
153.232,974.292,-20.74
123.708,1005.768,-1.952
60.268,978.44,17.812
43.92,962.824,-2.44
77.836,980.88,-38.308
140.544,1010.404,-65.148
157.38,1011.868,-29.28
141.52,975.268,33.184
143.96,957.944,54.168
130.784,977.22,35.136
147.376,1001.62,15.616
195.2,998.692,14.152
183.732,998.204,25.864
185.928,1006.012,24.156
151.28,1001.864,40.748
155.916,991.128,52.46
187.636,1020.408,21.472
174.46,1045.784,1.952
179.828,1065.792,-10.98
148.84,1067.988,14.64
136.64,1101.904,24.156
152.012,1136.064,34.892
187.148,1152.9,28.792
171.776,1155.584,6.1
131.76,1119.96,-12.932
142.008,1082.872,-47.336
124.196,1039.44,-50.752
124.196,992.592,-37.088
113.948,917.684,5.368
131.272,866.688,8.296
110.288,850.096,-14.152
95.16,844.728,-36.112
92.232,807.396,-21.228
82.96,750.3,17.812
72.956,731.268,19.276
73.688,773.968,-24.644
47.58,854.0,-56.852
44.652,913.048,-45.14
68.564,973.804,-22.204
70.76,1072.136,4.148
86.62,1184.132,7.076
130.296,1303.936,-43.432
153.72,1375.672,-91.744
87.84,1386.408,-95.16
54.9,1399.584,-117.852
24.888,1367.62,-85.888
35.868,1301.984,-28.304
46.604,1274.656,-24.888
22.448,1291.98,-79.788
33.672,1264.164,-105.164
38.552,1217.316,-95.648
45.384,1159.976,-66.124
0.0,1097.756,-19.276
-24.4,1069.208,-14.152
-40.504,1053.836,-39.528
-56.12,997.472,-28.06
29.524,979.172,-57.34
27.328,959.896,-38.064
-34.16,930.372,12.688
-54.656,918.172,9.516
-85.644,878.4,17.08
-42.944,868.884,-27.328
-63.44,900.848,-41.236
-95.892,903.288,-9.028
-84.912,884.012,23.424
-58.072,875.716,34.648
-37.576,893.772,22.936
-111.02,943.792,5.368
-162.992,971.364,-7.32
-177.632,959.652,-4.636
-189.588,937.692,9.76
-160.308,939.644,5.124
-135.908,952.82,-15.372
-130.784,946.232,-14.884
-160.796,943.548,-6.588
-209.108,943.06,-8.54
-173.728,935.74,-36.844
-140.056,926.468,-37.332
-133.468,906.216,-5.368
-140.788,904.996,5.856
-175.436,933.788,-27.572
-173.972,934.032,-62.464
-164.212,900.848,-42.944
-179.096,866.444,1.952
-175.192,891.332,-39.528
-180.316,929.64,-76.372
-228.14,889.136,-6.1
-222.528,858.392,39.284
-225.944,873.032,-1.708
-255.224,861.808,-26.596
-264.74,823.256,-24.156
-205.448,796.66,-44.164
-224.724,774.212,-14.152
-278.648,760.548,13.664
-281.576,756.644,1.464
-269.132,765.916,-20.74
-272.06,791.292,-41.236
-303.048,780.068,-27.084
-339.648,771.04,-1.708
-329.644,789.096,-2.196
-304.268,818.376,-8.784
-299.632,850.828,2.44
-335.744,866.2,52.704
-302.072,903.532,26.352
-238.388,969.168,-48.556
-254.248,1006.012,-88.816
-259.128,987.224,-74.908
-278.16,963.068,-36.6
-288.652,956.236,-30.5
-301.828,937.692,-10.736
-301.584,935.496,-13.908
-315.492,953.308,-34.648
-269.62,950.624,-58.072
-242.048,963.556,-65.148
-271.328,958.432,-40.992
-198.616,981.612,-69.784
-234.24,995.764,-56.608
-262.056,978.44,-40.26
-263.032,965.264,-51.972
-284.748,977.464,-82.716
-310.124,957.456,-68.076
-287.188,928.908,-46.604
-275.232,927.444,-45.872
-278.16,930.616,-45.628
-283.284,949.404,-81.74
-272.792,948.184,-93.452
-283.284,931.104,-69.296
-290.848,923.54,-48.312
-281.332,936.96,-69.296
-283.772,949.404,-75.396
-267.668,953.796,-70.272
-273.28,952.332,-67.588
-287.432,948.184,-69.052
-300.852,940.62,-61.0
-319.884,948.184,-60.756
-341.6,955.748,-72.468
-442.86,918.172,-28.792
-355.508,914.268,-41.48
-419.436,879.62,-57.828
-388.692,959.408,-85.644
-229.116,894.992,-61.976
-273.524,867.42,31.72
-287.432,892.064,-53.192
-343.552,890.844,-149.572
-153.964,766.648,-85.644
220.576,461.16,117.364
453.84,329.4,226.92
256.444,261.812,119.804
448.716,248.88,-122.976
1156.316,116.632,-132.248
1439.356,87.84,133.468
1451.8,133.224,73.2
1286.124,366.488,-343.796
1292.224,460.916,-577.06
1427.156,235.704,-80.764
1232.932,91.012,191.296
1042.856,116.632,19.52
1197.308,144.448,-33.916
1134.356,109.312,-3.904
1060.424,123.464,-32.94
1107.516,113.46,-34.648
1157.536,105.896,-39.772
1154.852,113.948,-77.104
1097.268,103.7,-82.228
1088.484,90.768,-48.556
1060.912,84.18,-34.648
1019.432,67.344,-16.592
985.028,97.844,-40.992
995.032,114.436,-42.7
945.5,122.488,-47.824
951.356,150.548,-77.104
1013.576,145.18,-86.132
945.256,118.096,-53.68
915.976,135.176,-78.568
882.792,142.008,-69.54
818.62,140.056,-50.264
814.228,135.176,-50.508
836.432,113.704,-50.508
844.484,101.748,-50.02
801.296,145.18,-109.068
782.264,142.74,-95.648
711.26,84.912,-39.04
613.66,53.192,20.496
541.68,58.316,10.98
625.616,86.132,-66.124
705.648,102.968,-144.448
660.752,47.58,-84.668
505.568,-45.872,-63.684
541.192,-69.052,-129.808
838.872,-116.632,-98.82
993.08,-177.388,-77.348
999.18,-177.388,-85.4
976.732,-247.416,-38.064
1014.552,-243.268,-119.56
1162.66,-234.972,-134.444
1101.66,-292.8,-73.932
1034.804,-324.764,-48.8
1117.764,-351.116,-64.172
1151.436,-347.212,-121.268
1047.736,-332.084,-107.848
879.62,-369.904,-46.604
869.128,-427.488,-9.272
1000.888,-429.684,-48.556
965.02,-417.728,-109.312
840.336,-380.396,-108.092
836.432,-421.632,-31.232
949.892,-454.572,-53.924
1212.436,-444.08,-145.18
1355.664,-425.292,-203.496
1222.44,-445.056,-191.784
1162.904,-495.32,-130.296
1198.772,-542.656,-54.9
1280.268,-545.096,-53.68
1352.98,-527.04,-97.6
1369.084,-497.272,-128.344
1313.208,-501.664,-114.436
1321.748,-510.204,-77.836
1324.92,-529.724,-51.484
1326.628,-512.644,-72.956
1264.164,-504.592,-39.284
1185.108,-505.324,-31.232
1179.008,-493.856,-51.484
1183.888,-482.144,-49.044
1146.068,-479.46,-45.14
1097.512,-476.288,-20.252
1076.284,-457.5,-12.932
1030.656,-431.148,-22.204
1016.016,-395.768,-30.5
1036.756,-395.28,7.808
1137.284,-392.84,13.908
1195.6,-363.56,10.492
1149.972,-354.776,44.652
1205.848,-291.58,32.94
1221.22,-229.604,3.172
1166.076,-157.624,-48.068
1180.228,-19.032,-244.732
987.956,90.036,-309.392
1077.504,173.24,-236.924
1090.924,19.276,33.672
1237.324,86.132,26.108
810.08,362.828,-130.296
241.56,583.16,-97.112
455.06,633.912,32.696
715.652,602.924,75.152
666.364,791.048,-111.264
234.24,848.144,-2.44
402.356,791.536,36.6
523.624,655.628,102.48
454.328,763.476,90.28
467.748,899.384,-58.316
267.18,917.928,-30.988
335.256,870.836,-33.672
409.188,820.572,-33.428
348.188,852.048,-29.768
249.368,904.02,-22.692
226.188,914.024,-42.7
263.276,873.032,-17.08
271.572,851.56,19.52
288.896,870.592,0.0
238.144,888.16,12.688
238.144,899.14,-10.248
203.252,878.156,33.916
258.396,871.568,12.2
267.18,889.624,2.44
244.0,910.608,2.196
264.496,923.296,-9.028
287.432,939.644,-20.008
265.472,945.012,0.0
264.496,934.764,15.128
253.028,934.276,30.256
334.28,962.824,-29.28
283.284,1001.376,-44.164
207.4,1016.748,-47.824
192.272,988.688,-29.768
215.696,926.712,25.62
281.088,898.652,40.504
264.984,922.808,29.524
238.876,961.36,-10.492
230.092,980.148,-48.068
218.868,970.876,-41.48
237.656,965.752,-35.868
308.172,972.828,-46.604
282.796,985.272,-18.3
265.96,986.492,-7.564
252.54,967.704,8.54
252.296,953.552,13.664
270.596,965.264,-9.028
277.916,963.556,-5.368
256.444,956.236,18.056
260.348,929.64,36.6
256.932,915.976,43.432
260.104,925.248,27.084
287.676,943.304,1.952
264.252,957.212,8.784
265.716,956.236,10.248
266.204,967.704,0.488
272.06,971.608,-5.612
288.164,990.396,-22.204
306.952,1006.012,-34.16
275.476,1001.132,-3.416
264.74,980.148,22.448
267.668,965.508,33.428
276.94,962.824,22.936
287.676,976.244,-2.196
285.724,978.684,-2.44
260.592,975.268,10.248
259.616,976.0,0.244
279.624,975.268,-11.468
267.912,956.724,7.32
272.304,930.372,20.984
263.032,921.1,33.428
279.38,932.08,14.64
274.5,939.156,7.564
257.42,942.328,0.976
248.636,944.28,-3.172
252.54,953.796,-10.736
264.984,964.288,-7.808
274.256,976.488,-10.98
277.428,989.664,-14.64
266.692,994.544,-0.732
281.82,1000.888,-3.416
277.428,997.228,12.2
274.256,990.396,24.888
281.332,1017.968,1.22
274.988,1050.908,-24.888
272.792,1045.296,-18.056
276.452,1030.656,-0.732
278.404,1028.216,10.248
295.24,1041.88,12.2
302.072,1050.908,12.688
262.788,1053.592,42.212
261.08,1071.648,26.84
254.248,1106.54,-1.708
248.88,1135.82,-27.816
281.088,1154.852,-61.488
263.52,1165.344,-65.392
252.052,1165.588,-55.388
253.028,1149.728,-48.068
260.104,1134.356,-53.192
265.716,1108.736,-54.168
254.736,1086.288,-44.164
254.98,1061.644,-48.312
261.568,1013.088,-31.964
274.012,989.42,-45.14
195.444,969.168,-16.104
135.42,936.228,28.548
113.216,921.344,59.292
93.94,950.868,31.476
85.644,987.224,-6.1
66.124,1019.188,-15.128
15.372,1065.548,-27.572
-2.196,1099.708,-38.796
19.52,1098.732,-30.012
53.192,1097.268,-44.408
74.176,1104.344,-67.588
46.604,1096.78,-64.416
36.356,1064.816,-41.968
58.56,1028.948,-25.376
8.784,981.856,32.208
-0.488,953.796,31.232
4.636,971.608,-50.264
-4.148,977.952,-91.988
-55.876,976.732,-77.592
-87.352,956.968,-40.504
-71.492,949.404,-28.304
-60.512,936.96,-16.104
-37.82,927.444,-12.932
-22.936,952.576,-50.02
-60.024,958.188,-55.388
-81.008,947.696,-50.264
-103.944,920.124,-26.84
-121.756,875.472,-5.368
-104.188,843.752,-8.296
-103.212,841.556,-14.64
-167.14,851.56,-15.86
-189.832,855.464,-46.116
-178.12,825.94,-49.044
-204.228,799.344,-39.04
-220.332,788.852,-52.46
-235.46,783.24,-48.312
-249.612,751.52,-21.716
-295.484,732.488,-5.368
-265.228,764.452,-77.104
-254.736,806.42,-128.832
-296.216,825.94,-121.756
-311.344,797.148,-58.072
-291.58,775.676,-29.524
-292.068,790.804,-47.336
-324.764,834.48,-92.476
-297.924,881.816,-155.428
-265.716,905.728,-178.852
-311.588,879.864,-101.504
-311.344,879.864,-70.028
-285.724,923.784,-107.848
-265.472,945.012,-121.512
-250.344,935.008,-100.04
-251.564,931.836,-74.42
-266.936,944.28,-63.684
-266.936,946.232,-44.408
-259.616,948.184,-39.04
-261.812,955.748,-49.532
-259.372,979.904,-86.62
-261.812,988.2,-94.428
-251.564,976.976,-78.08
-212.524,969.168,-79.788
-230.092,957.456,-54.656
-246.44,957.456,-52.704
-259.86,971.364,-63.928
-261.812,963.8,-57.584
-232.532,962.58,-58.316
-211.548,962.092,-54.412
-205.692,955.26,-50.02
-222.04,968.68,-59.78
-233.996,975.268,-67.1
-236.192,966.484,-49.288
-225.7,959.652,-40.992
-211.304,970.144,-61.732
-234.972,974.78,-62.22
-238.388,964.532,-52.948
-243.756,951.6,-32.94
-206.424,972.828,-67.1
-226.188,984.54,-70.516
-260.836,956.968,-28.792
-246.44,935.496,-13.908
-238.632,947.94,-43.676
-232.288,962.58,-68.076
-227.652,979.172,-77.836
-228.872,981.856,-80.032
-228.14,968.68,-80.764
-242.292,951.6,-52.46
-254.492,953.796,-40.26
-235.46,956.968,-52.216
-228.14,959.896,-57.584
-228.384,957.944,-48.312
-251.32,960.628,-43.432
-253.76,956.48,-50.264
-254.248,957.944,-67.832
-276.696,955.748,-73.2
-270.108,953.308,-54.656
-230.092,952.576,-50.752
-225.456,969.168,-58.804
-251.32,970.144,-44.164
-295.484,986.004,-55.632
-297.68,1008.696,-79.544
-254.98,1000.156,-64.66
-247.66,954.04,-13.42
-252.784,932.08,28.304
-345.992,957.212,4.148
-502.884,987.468,-33.672
-536.068,1050.176,-66.612
-272.792,1006.988,-76.86
-97.356,963.312,-32.94
-78.812,926.712,-13.664
-166.164,879.376,-45.384
-80.276,772.26,-3.172
354.532,555.344,110.532
595.36,418.704,173.972
705.16,501.908,-30.988
924.516,524.112,-159.088
1042.856,522.892,-75.884
1141.92,460.428,-26.352
1018.7,377.712,20.252
1120.204,429.684,-76.616
1165.344,465.796,-194.712
1050.664,434.564,-163.48
1094.828,342.332,20.008
985.028,330.864,33.428
900.36,309.88,97.844
882.792,298.656,117.852
968.924,309.88,40.748
1024.068,276.94,40.504
977.708,284.016,-7.808
979.66,281.82,-3.904
954.772,260.836,15.86
927.688,282.552,-33.428
872.056,285.236,-46.604
737.612,308.172,-30.744
623.908,333.792,-28.548
533.872,341.6,-40.992
522.648,340.38,-28.06
511.424,328.18,-23.424
487.512,274.256,-2.196
470.676,254.004,-16.104
451.888,204.228,21.472
412.36,160.064,36.6
404.552,141.764,0.0
364.78,81.74,41.724
308.66,18.056,35.38
514.108,-34.16,55.144
646.844,-28.304,-16.104
768.112,-68.076,-38.796
697.596,-179.828,-116.388
739.32,-199.348,-143.228
974.78,-281.576,-53.924
955.992,-263.032,-103.456
1065.548,-282.796,-99.064
1064.572,-345.016,-154.696
1219.756,-337.208,-173.728
1222.684,-356.484,-82.228
1196.576,-400.16,-33.672
1354.932,-414.068,-81.984
1534.76,-391.864,-176.412
1552.084,-354.044,-222.528
1698.728,-357.948,-204.716
1778.028,-408.456,-152.988
1726.056,-427.488,-85.4
1694.092,-419.924,-57.584
1641.632,-386.496,-65.148
1594.052,-371.368,-70.516
1588.928,-355.996,-86.376
1487.912,-339.648,-92.232
1342.0,-349.896,-40.26
1276.12,-348.432,0.0
1356.396,-315.736,-50.264
1370.06,-304.268,-98.332
1288.076,-317.2,-81.984
1093.364,-335.012,-31.964
1037.0,-310.856,-6.588
1063.84,-310.612,-3.904
1081.896,-277.428,-41.968
1046.028,-249.368,-61.0
1067.012,-262.3,-18.3
1148.508,-254.248,-51.484
1029.68,-222.284,-96.38
1027.484,-206.424,-47.092
1011.38,-202.276,21.472
1107.028,-156.648,-9.76
1271.24,-64.66,-132.736
1250.744,-91.5,-58.56
1043.1,-152.744,49.044
979.904,-84.18,55.632
1150.46,-9.028,55.876
1328.824,79.3,0.0
1454.972,56.364,-118.096
1100.196,-41.968,-91.256
652.212,-22.692,30.988
667.828,163.236,-5.612
506.056,294.508,21.96
247.416,511.18,-75.152
-89.792,682.956,-43.92
-70.76,767.624,-7.808
120.048,824.964,-83.692
-23.424,894.504,-139.08
-108.824,931.104,-173.484
115.168,901.58,-243.024
89.304,882.06,-179.34
42.944,918.66,-120.78
53.68,981.368,-124.928
67.588,991.86,-144.448
92.476,936.716,-101.26
127.856,901.58,-58.072
172.996,925.004,-32.94
170.068,964.044,-6.1
140.056,989.908,1.22
109.556,960.384,31.232
173.484,948.916,24.888
218.38,964.044,3.66
276.208,1011.38,-30.012
206.912,1024.8,-5.856
156.892,1017.724,0.0
125.416,1020.164,-22.448
133.468,985.516,-23.912
187.88,990.152,-54.9
193.98,1005.28,-59.78
195.932,1018.212,-59.536
177.632,1010.16,-42.944
169.58,979.172,-16.836
192.76,966.24,-15.372
183.976,962.336,-6.832
203.496,972.096,-15.86
191.296,983.076,-19.52
166.896,983.808,-26.84
149.328,980.636,-34.404
162.992,977.22,-49.288
179.096,977.464,-50.264
190.808,978.196,-43.92
175.924,968.436,-22.936
165.432,963.068,-13.908
173.24,959.164,-14.396
193.98,968.192,-25.62
188.856,970.876,-15.372
187.392,982.588,-17.324
189.588,987.956,-18.056
188.124,988.932,-17.812
187.88,991.372,-22.936
185.928,992.592,-14.64
197.64,996.496,-11.956
210.572,998.204,-15.372
183.732,999.424,-15.128
173.24,1005.524,-29.524
168.604,1006.256,-35.38
161.284,998.936,-22.692
183.0,989.176,-19.032
189.344,982.588,-8.784
190.32,975.024,-7.564
182.512,973.316,-12.2
160.064,949.404,7.32
161.528,939.644,28.304
162.992,949.16,20.496
193.736,973.316,-24.644
177.388,983.076,-39.772
142.984,986.736,-40.016
133.468,989.176,-42.7
151.768,977.708,-36.112
174.704,976.0,-35.136
184.952,978.196,-30.012
164.456,987.712,-17.08
143.96,1013.576,-36.356
135.176,1033.828,-48.8
136.64,1060.912,-44.896
158.6,1104.832,-37.576
187.392,1146.068,-33.916
180.316,1170.956,-14.152
162.992,1200.236,-8.296
153.964,1246.596,-27.084
199.592,1248.304,-8.296
219.112,1246.352,20.984
191.784,1263.188,0.0
154.452,1278.804,-22.692
152.256,1267.092,-36.6
158.112,1242.936,-34.404
136.396,1225.368,-36.112
125.416,1214.144,-59.78
97.6,1174.128,-57.828
58.56,1124.596,-49.532
46.36,1092.632,-69.784
74.908,1057.984,-69.784
38.064,1018.7,-38.308
-7.808,997.228,-38.552
-44.164,976.976,-25.62
-36.844,944.28,0.488
-29.524,926.956,12.2
-53.436,931.592,1.464
-81.984,914.756,4.88
-116.388,891.332,-1.464
-161.284,862.296,-4.636
-192.272,815.204,5.368
-208.62,787.876,13.176
-194.712,816.424,-45.384
-193.98,847.168,-91.256
-248.636,858.392,-87.352
-281.576,844.24,-51.484
-271.572,827.404,-20.252
-186.904,853.024,-46.36
-223.748,870.836,-28.792
-246.196,860.832,6.832
-270.84,867.908,27.572
-285.236,945.256,-45.14
-258.884,982.832,-103.456
-231.312,952.576,-74.42
-259.128,887.672,4.88
-237.656,858.392,21.96
-237.656,850.584,23.912
-280.844,819.108,67.344
-266.204,791.048,77.348
-229.116,786.656,45.384
-253.76,794.464,39.772
-319.152,810.324,19.032
-333.548,804.712,-12.2
-331.84,789.096,-17.812
-330.376,790.316,-19.764
-362.34,836.92,-43.92
-429.44,884.012,-62.952
-427.732,874.984,-59.292
-378.688,842.044,-33.184
-322.08,829.112,-0.488
-266.692,843.752,9.028
-244.244,897.92,-31.72
-280.844,931.592,-65.392
-273.28,886.208,-31.72
-273.768,852.78,2.196
-288.408,844.484,3.904
-321.836,875.96,-33.184
-349.408,880.108,-58.316
-365.512,842.532,-29.28
-365.512,843.264,-21.228
-352.092,862.296,-31.72
-367.22,863.028,11.712
-394.304,881.328,35.136
-394.06,910.364,26.108
-312.32,914.756,17.08
-238.388,948.916,-24.644
-229.604,981.612,-57.828
-278.404,986.004,-40.504
-279.624,965.02,-34.16
-280.844,954.772,-61.976
-409.188,961.848,-78.568
-357.216,991.616,-96.868
-281.82,992.104,-111.752
-225.212,986.736,-151.036
-226.432,965.752,-143.96
-382.592,911.584,-65.88
-284.504,911.584,-23.912
-131.272,882.304,1.464
-114.924,923.784,-52.216
-253.028,982.832,-76.616
-362.34,1027.972,-101.748
-333.06,1078.236,-125.172
-303.292,1037.976,-67.1
-309.392,1018.456,-32.696
-270.596,1018.456,-65.392
-203.008,990.884,-136.396
-293.776,952.088,-91.744
-405.772,913.536,39.04
53.924,570.472,145.668
357.46,239.364,279.624
303.292,74.908,213.744
805.932,270.596,-227.896
1620.16,437.248,-366.976
1416.176,296.216,14.152
1147.776,365.268,0.244
1057.984,415.776,-138.592
1090.68,407.724,-120.048
1208.288,261.568,-10.736
1100.928,199.592,36.356
1009.184,241.316,20.496
1081.652,316.712,-70.516
1216.34,291.824,-129.564
1128.012,227.164,-101.992
1010.892,213.5,-71.98
934.764,220.088,-57.34
891.332,263.52,-92.72
873.764,305.244,-112.728
863.272,302.804,-101.504
818.376,292.068,-97.844
800.808,283.284,-104.432
771.284,265.228,-66.124
692.472,270.596,-53.192
634.4,279.38,-45.628
631.472,259.616,-40.26
573.888,244.488,-63.196
534.604,207.888,-39.04
438.224,139.568,-16.836
364.048,124.196,13.176
289.872,102.48,31.964
221.552,86.376,44.408
387.96,79.788,-24.888
598.044,28.304,-65.636
695.888,-18.3,-76.86
794.22,-51.972,-86.864
807.396,-139.568,-134.444
1116.544,-167.628,-171.776
1428.864,-240.096,-141.032
1256.6,-282.308,-109.556
1135.576,-284.748,-69.052
1262.456,-320.616,-40.26
1220.976,-300.608,-91.256
1224.88,-294.508,-140.788
1207.312,-245.952,-183.732
1193.404,-211.06,-201.056
1122.4,-214.232,-187.88
1139.48,-250.588,-159.332
1094.34,-317.2,-143.716
1215.12,-339.648,-116.632
1291.248,-356.484,-91.988
1339.316,-335.5,-64.66
1449.36,-331.84,-103.212
1490.596,-327.448,-154.452
1447.652,-315.736,-136.396
1383.968,-341.356,-91.988
1310.524,-382.348,-51.484
1292.956,-370.636,-70.516
1268.312,-369.172,-23.912
1161.44,-365.268,22.936
1162.172,-318.176,-38.308
1223.904,-287.676,-107.604
1264.164,-268.644,-140.544
1251.476,-278.16,-139.08
1158.512,-319.152,-70.272
1037.488,-337.452,-13.176
1007.232,-352.092,6.1
1061.156,-333.06,-25.376
1131.672,-291.092,-100.284
1064.084,-288.896,-78.08
1017.48,-283.772,-55.632
978.44,-294.02,-53.68
954.04,-301.096,-35.38
954.772,-316.224,-11.956
962.336,-305.0,-23.668
1017.48,-274.988,-60.268
1057.252,-252.296,-84.18
1009.916,-264.984,-42.944
990.884,-257.176,-32.208
1042.856,-240.584,-44.652
1107.516,-219.844,-42.456
1127.28,-206.424,-17.08
1120.692,-200.324,11.712
1129.964,-159.82,-1.952
1046.028,-168.36,19.276
904.752,-125.416,-12.932
871.08,-14.884,-84.424
1014.064,88.328,-152.744
1171.2,191.54,-217.16
1270.264,224.968,-209.84
1182.912,219.844,-110.776
1094.584,215.94,-37.82
1273.68,328.668,-162.504
945.5,358.68,-97.6
586.576,475.556,-24.644
573.156,634.644,13.176
513.62,746.64,-37.576
375.028,727.364,23.424
537.776,651.48,89.792
572.18,655.628,118.34
573.156,762.744,42.944
478.728,897.676,-48.068
457.744,884.012,-51.484
562.42,835.456,-82.96
494.832,811.056,-30.012
465.308,796.904,28.06
451.644,857.172,-39.772
385.52,887.916,-87.352
361.12,860.1,-93.696
362.828,839.36,-110.532
366.976,816.912,-75.884
384.788,814.96,-32.696
456.28,853.268,-65.148
373.076,876.692,-47.092
306.22,898.896,-63.44
330.864,951.844,-149.084
370.392,985.272,-190.564
340.868,972.828,-160.308
327.692,955.748,-139.812
347.944,949.404,-126.148
374.784,975.512,-132.248
352.336,989.664,-116.632
379.664,979.66,-96.38
333.792,945.744,-47.824
267.18,943.06,-48.312
255.956,951.356,-87.352
256.444,957.456,-115.168
212.768,943.304,-86.62
172.752,931.104,-70.028
170.068,908.168,-65.636
195.444,924.516,-90.036
214.72,938.668,-100.772
234.484,947.94,-96.136
220.332,952.576,-95.648
184.952,968.924,-94.916
173.728,964.288,-96.38
243.268,977.708,-124.44
240.828,985.516,-100.284
209.352,974.536,-74.908
216.916,968.68,-79.056
200.324,957.7,-70.76
245.708,952.82,-84.912
255.712,970.388,-98.576
237.168,960.872,-72.712
244.0,946.476,-56.852
227.896,951.6,-65.636
211.06,958.432,-74.908
245.22,980.636,-110.532
263.764,1011.136,-137.128
227.896,1007.476,-107.116
214.232,992.104,-108.092
224.724,980.148,-96.38
246.928,987.224,-104.676
231.556,987.224,-94.428
207.156,972.828,-83.692
206.668,964.776,-75.64
229.848,961.848,-72.712
228.384,982.1,-80.032
221.308,1010.16,-104.188
227.652,1035.048,-108.336
228.628,1043.344,-77.348
238.632,1056.764,-58.072
221.308,1091.656,-66.124
210.084,1124.84,-78.08
228.384,1142.652,-69.052
265.228,1176.568,-84.912
231.312,1212.68,-92.232
220.332,1249.28,-107.36
213.988,1283.196,-132.248
196.42,1305.156,-160.796
201.788,1307.108,-177.144
221.796,1284.416,-160.796
202.032,1240.496,-114.192
189.1,1179.74,-59.536
170.068,1154.608,-52.216
174.216,1118.984,-63.928
149.572,1095.072,-63.684
121.268,1054.08,-42.7
97.844,985.76,9.516
92.964,931.592,33.672
125.172,921.588,29.524
84.424,926.468,42.7
74.176,945.988,13.908
46.36,966.24,-32.696
33.184,973.56,-65.392
44.408,955.992,-56.12
6.344,936.472,-15.372
0.0,952.82,-31.476
-16.592,980.148,-85.644
-58.56,978.928,-98.088
-68.32,926.468,-51.484
-34.648,894.26,-38.796
-67.832,889.136,-27.328
-104.188,874.496,-6.588
-99.308,875.228,-27.328
-145.668,872.788,-31.72
-167.628,881.572,-39.528
-141.032,922.076,-88.328
-155.672,928.42,-97.6
-163.236,897.92,-65.392
-142.984,877.912,-55.876
-160.796,867.42,-39.772
-165.188,872.3,-40.748
-190.076,850.34,-9.76
-198.128,819.84,10.736
-201.056,807.152,-1.464
-254.492,820.816,-16.104
-269.132,823.012,-31.72
-254.492,810.324,-31.72
-275.476,800.808,-30.988
-298.412,793.488,-23.424
-315.98,796.904,-22.692
-321.348,814.96,-48.8
-326.472,814.716,-51.484
-355.264,837.652,-65.392
-342.576,855.952,-92.72
-335.256,855.464,-95.648
-340.136,838.14,-40.992
-291.092,846.192,-21.472
-252.784,864.736,-37.82
-298.168,848.876,-30.012
-360.876,821.548,-20.252
-427.976,832.528,-37.332
-422.12,825.208,-24.156
-374.052,829.6,-15.372
-342.576,837.652,-0.976
-342.82,866.2,-10.248
-349.652,895.724,-45.14
-336.964,902.556,-71.98
-362.584,919.636,-86.62
-396.988,914.268,-73.444
-375.76,918.416,-77.592
-360.632,914.756,-68.564
-358.192,911.34,-43.432
-341.6,925.736,-48.556
-358.924,929.884,-33.916
-342.82,915.0,-28.792
-306.22,927.444,-35.136
-347.456,940.864,-50.264
-378.688,966.972,-80.276
-354.532,944.768,-69.052
-347.456,917.684,-30.012
-345.016,928.908,-58.804
-379.664,940.62,-84.424
-406.016,948.672,-95.404
-478.972,929.64,-75.396
-502.884,885.964,-40.26
-567.056,843.996,30.744
-679.296,836.188,66.124
-546.316,918.172,-11.468
-399.428,881.816,-112.484
-351.604,812.52,-186.172
-376.736,724.924,-215.452
2.196,629.764,-242.292
322.08,513.62,-133.468
628.544,353.556,19.276
951.6,278.404,111.508
1147.776,347.212,95.648
1122.156,456.28,-119.316
863.516,538.02,-270.84
889.38,420.412,-110.776
1050.42,241.316,139.568
986.004,280.844,-3.416
1103.368,305.0,-134.932
1272.216,236.924,-124.196
1268.068,208.376,-93.94
1203.896,122.732,11.956
1192.184,110.532,49.532
1188.036,128.344,-29.524
1095.316,152.744,-45.14
1052.86,140.544,-36.6
1066.28,140.3,-30.988
997.472,180.56,-61.244
972.096,214.476,-78.08
962.092,203.984,-77.836
1013.82,196.42,-85.888
1023.58,200.324,-95.648
956.48,199.592,-93.452
860.832,205.204,-84.668
818.864,205.448,-70.028
777.872,195.688,-45.628
683.688,200.324,-26.108
596.092,185.44,13.176
566.324,174.216,5.124
622.444,193.248,-27.816
631.716,186.416,-48.8
543.876,165.92,-22.448
458.964,146.4,13.908
568.764,72.224,40.504
736.636,31.476,12.932
808.86,-7.564,-50.996
849.364,-17.568,-73.688
919.148,-63.196,-64.416
1007.476,-104.432,-58.804
1035.048,-139.812,-31.72
996.74,-148.108,-71.492
1059.204,-150.304,-86.864
1094.584,-189.588,-77.348
1071.404,-229.116,-78.08
1061.4,-236.924,-106.384
1014.796,-251.076,-94.428
964.776,-271.816,-101.016
1019.188,-280.112,-106.14
1079.212,-291.092,-142.496
1102.88,-257.664,-176.656
1046.272,-300.12,-115.412
916.464,-326.228,-100.528
857.172,-353.068,-97.356
843.996,-345.992,-89.548
919.636,-360.388,-36.844
1050.908,-396.744,-48.556
1166.32,-409.188,-155.672
1162.904,-375.028,-223.504
1158.268,-380.152,-152.012
1233.664,-407.724,-127.856
1402.512,-446.032,-154.208
1559.892,-461.16,-190.076
1586.732,-440.908,-214.476
1469.368,-456.524,-160.552
1326.14,-493.856,-89.06
1256.112,-507.764,-40.016
1289.052,-500.932,-38.308
1332.728,-455.06,-83.204
1296.86,-437.492,-96.624
1196.82,-437.98,-50.752
1091.168,-433.344,-29.768
1001.864,-438.712,-29.28
976.976,-433.832,-1.464
1009.916,-437.004,14.152
1040.904,-418.216,6.832
1038.952,-377.956,-25.132
946.232,-374.296,-39.284
847.412,-356.972,-33.184
848.388,-363.56,10.98
901.092,-363.072,23.668
1080.676,-325.74,-8.052
1250.012,-289.384,-17.568
1257.576,-280.6,-4.148
1117.276,-283.772,-7.808
1063.352,-262.788,3.416
1104.588,-232.776,20.252
1133.136,-209.108,8.54
1224.88,-110.044,-68.808
1229.516,-0.732,-145.912
1236.592,-27.816,-113.704
984.296,76.372,-76.128
754.448,356.24,-161.04
582.672,529.48,-108.336
538.752,552.172,24.156
645.136,533.14,89.06
683.2,609.756,58.804
594.628,767.38,-55.632
372.832,862.784,-81.496
500.444,801.052,-79.056
575.352,796.416,-37.088
532.164,820.572,-20.74
556.32,812.52,-0.976
456.768,858.148,-8.052
438.956,876.692,-7.32
418.46,917.928,-45.872
402.6,970.388,-109.312
367.464,1002.108,-119.072
219.356,964.532,-33.916
264.496,956.48,-87.84
315.004,973.56,-148.108
177.876,989.664,-69.784
112.728,991.86,-51.24
136.884,994.3,-72.712
78.812,939.4,-14.152
27.816,891.332,46.36
10.736,881.572,42.7
-10.736,906.46,10.98
42.7,909.632,-15.616
63.44,900.604,-7.564
120.048,916.464,-10.248
137.616,939.888,-3.66
127.124,943.304,9.76
141.276,936.228,4.392
158.356,928.908,6.832
180.56,937.692,1.708
135.664,933.056,23.912
147.376,944.768,5.368
147.864,948.672,17.08
155.916,954.772,22.448
189.1,968.68,5.124
177.388,969.9,19.52
179.096,990.64,-0.732
169.824,1008.452,-18.3
134.932,993.812,0.0
150.06,969.656,9.028
166.652,973.804,-6.344
194.224,1005.768,-33.672
180.316,1010.404,-24.888
168.604,996.008,-15.86
150.792,978.928,-20.74
162.504,977.22,-40.504
162.504,980.392,-43.92
173.24,979.416,-40.992
163.236,987.224,-40.992
144.204,976.488,-31.232
174.704,978.684,-41.236
169.092,984.296,-36.356
176.412,1000.644,-38.308
183.488,1020.896,-50.508
174.704,1037.244,-54.412
179.34,1050.176,-62.952
172.02,1062.864,-56.608
179.34,1064.816,-47.824
176.9,1067.256,-28.548
166.408,1083.604,-33.428
148.108,1106.052,-46.604
142.496,1133.136,-55.632
136.884,1133.136,-33.672
155.184,1134.844,-15.616
153.72,1148.02,7.076
152.744,1164.124,10.492
112.972,1194.38,-19.764
85.4,1241.472,-86.376
106.872,1264.896,-122.732
116.876,1250.988,-96.38
87.596,1223.172,-47.092
87.84,1209.508,-34.404
76.372,1201.944,-33.916
39.284,1176.324,-11.712
66.612,1145.824,-15.86
82.716,1129.232,-44.164
68.076,1131.916,-77.592
-15.128,1117.52,-69.54
-39.528,1109.224,-77.348
-71.248,1112.884,-94.672
-31.72,1098.488,-110.044
4.392,1063.108,-56.852
-23.668,1006.012,41.968
-16.104,986.004,60.268
-46.604,978.684,49.288
-110.288,948.184,56.12
-113.704,919.148,43.188
-130.54,875.228,67.588
-109.312,844.484,74.176
-112.24,833.748,63.196
-138.104,818.864,43.676
-187.392,816.912,18.3
-225.944,791.78,4.88
-218.136,747.128,26.84
-171.776,708.576,41.48
-152.256,712.236,24.644
-229.604,736.392,11.956
-286.7,748.348,15.86
-269.376,732.0,34.404
-233.508,730.536,39.04
-209.596,751.032,28.548
-191.54,805.932,-16.836
-262.544,829.6,-11.956
-300.364,833.016,-2.928
-291.092,827.648,0.244
-249.368,821.792,7.076
-211.06,825.452,15.372
-244.732,813.496,50.752
-271.084,823.988,32.452
-252.052,824.476,20.496
-226.92,816.18,36.844
-235.948,803.004,76.616
-238.388,803.492,74.908
-251.32,828.136,45.384
-272.06,866.932,8.296
-290.36,894.504,-29.036
-311.832,909.632,-28.792
-304.268,920.612,-17.324
-277.428,932.08,-12.688
-258.64,940.376,-12.444
-267.668,946.72,9.76
-257.42,962.336,14.396
-244.488,1016.016,-32.696
-251.32,1031.632,-43.92
-259.86,1012.112,-3.904
-246.196,996.008,21.472
-203.74,1000.156,6.344
-223.26,996.984,21.472
-254.98,988.2,38.308
-316.224,979.904,40.26
-301.584,981.856,41.48
-290.36,967.216,55.876
-321.348,944.768,79.056
-341.356,955.016,52.704
-398.696,953.308,40.504
-481.168,957.456,26.108
-397.232,968.924,-33.672
-203.252,932.568,-68.32
-147.132,897.92,-88.816
-201.544,864.248,-61.488
-39.528,692.716,-10.248
410.408,533.14,5.856
671.488,614.88,-155.184
607.072,658.8,-170.068
599.508,471.896,34.16
932.568,264.496,273.524
1008.696,200.08,303.048
1306.864,377.712,-3.172
1190.476,451.888,-228.384
1170.956,329.4,-112.24
1231.224,169.336,123.464
1071.404,95.16,182.268
1009.672,90.036,187.636
997.96,70.516,176.9
1007.476,107.116,106.628
1097.268,116.632,95.892
1141.188,173.728,13.908
1048.224,162.748,-10.736
973.316,153.476,27.816
899.384,148.84,56.608
866.444,178.364,31.232
847.412,203.008,-29.768
802.272,241.804,-55.632
773.236,229.116,-31.476
754.692,213.5,-26.596
762.744,195.688,-2.196
673.44,177.388,-6.588
523.38,203.252,-12.2
497.76,183.244,-3.172
499.468,175.192,-63.928
613.904,128.832,-71.492
629.276,66.856,-46.604
527.772,21.96,29.524
469.212,-4.636,57.828
397.964,-11.224,-68.32
665.632,-46.36,-107.116
769.088,-169.824,-67.832
607.56,-270.352,63.684
605.364,-367.22,180.316
655.872,-390.156,80.032
862.54,-360.632,-43.432
1095.316,-392.84,-66.368
1143.628,-415.288,-58.804
1117.52,-469.456,-21.716
1077.016,-477.02,-12.688
1209.996,-521.184,-5.612
1348.588,-527.772,-32.208
1194.868,-540.704,-27.572
1099.464,-564.372,-38.064
1128.5,-585.356,-39.284
1123.132,-612.44,15.86
1081.896,-624.64,59.78
1021.384,-621.468,51.484
944.768,-608.292,64.904
1049.2,-562.908,11.956
1306.376,-494.344,-57.34
1526.464,-532.164,-68.564
1561.844,-586.576,6.1
1532.564,-628.3,116.876
1505.968,-655.384,182.756
1519.876,-637.328,195.688
1529.392,-604.388,182.024
1541.592,-545.34,125.172
1484.008,-513.132,84.424
1332.972,-503.616,76.86
1180.96,-504.836,119.316
1086.288,-505.08,160.796
1059.936,-488.488,142.252
1030.9,-436.76,72.956
958.432,-416.996,46.116
887.672,-410.652,81.008
860.1,-408.944,131.028
889.868,-404.308,153.476
1028.704,-368.44,103.212
1063.596,-329.4,57.34
1139.724,-322.08,41.236
1369.572,-274.012,13.908
1584.048,-176.656,-79.544
1384.212,-208.864,-31.964
1291.004,-294.508,49.288
1361.276,-117.608,-16.104
1258.552,-10.004,-53.924
886.452,119.804,-12.2
651.968,342.088,139.08
747.128,589.748,61.244
596.824,684.664,19.52
641.72,587.064,139.324
695.644,490.684,248.148
473.848,586.576,224.968
314.76,693.204,125.416
339.892,745.664,15.86
425.536,749.812,-18.544
218.868,732.488,78.568
270.352,828.868,-47.092
174.704,886.696,-77.348
164.212,857.904,-47.824
222.04,812.52,-7.32
298.412,827.16,-10.98
274.744,852.048,2.196
228.628,833.748,50.996
245.952,816.18,66.612
298.168,789.34,79.056
337.452,814.228,68.808
267.668,865.712,62.952
261.324,898.896,26.352
297.68,916.464,8.052
338.428,930.616,11.224
367.22,961.604,13.176
369.66,978.196,34.892
385.276,988.688,43.92
359.412,950.38,86.864
365.268,908.412,119.56
418.704,913.78,111.264
406.504,953.308,100.772
379.42,969.168,90.28
380.884,958.188,77.592
366.488,944.768,70.028
373.564,948.428,50.752
375.516,963.312,37.576
350.14,970.144,45.384
366.976,972.584,37.332
360.388,964.044,59.536
370.636,953.308,65.148
334.524,948.428,77.348
281.088,940.376,68.32
253.272,934.764,49.532
264.984,928.42,22.692
299.388,932.568,-5.368
291.092,929.152,13.664
282.064,933.056,19.52
260.348,933.3,21.716
265.96,922.808,24.156
296.216,914.268,27.816
319.64,920.856,31.964
344.04,938.424,30.012
323.544,933.544,64.172
351.36,933.056,62.708
319.64,936.716,74.664
310.612,938.424,72.468
325.252,949.16,54.412
315.248,949.404,54.656
335.988,960.384,44.408
303.78,966.972,58.804
297.68,955.016,61.976
327.936,946.476,58.316
329.4,941.352,73.444
313.54,946.72,76.86
321.592,969.168,43.432
309.392,971.12,29.036
336.964,982.344,11.224
327.692,996.496,15.128
311.588,989.42,24.644
287.92,975.268,32.94
277.916,963.312,35.38
267.18,948.916,38.552
254.248,940.132,36.356
254.004,933.788,29.28
273.036,935.74,14.64
298.656,956.48,5.856
265.472,958.188,35.38
259.128,958.432,35.38
251.076,950.136,29.768
242.048,939.4,25.132
242.292,935.74,20.984
275.964,957.456,-3.904
259.86,966.24,1.22
276.94,979.904,-9.76
276.94,984.052,-6.344
265.96,979.172,10.98
265.96,969.168,22.448
272.304,965.508,25.376
252.052,965.508,23.912
254.248,968.192,10.492
249.612,978.196,1.708
250.1,983.564,16.104
289.628,991.128,22.692
262.544,975.268,54.168
250.832,989.664,36.112
219.6,1017.236,13.664
213.5,1046.028,6.344
235.46,1103.124,4.392
260.592,1142.408,22.936
251.32,1164.612,75.396
274.988,1202.432,91.744
308.66,1261.724,59.292
281.088,1299.788,34.648
229.848,1317.112,30.012
233.264,1325.408,15.372
225.212,1306.62,27.328
239.12,1300.032,17.568
215.208,1291.98,10.98
176.168,1290.516,-8.296
147.376,1274.9,-25.376
120.292,1240.252,-29.036
91.012,1183.156,-4.636
149.328,1125.572,5.856
155.184,1075.796,35.136
83.936,1014.064,89.304
71.98,984.784,76.372
32.94,954.528,81.74
1.464,921.588,83.204
-37.576,901.824,48.556
-5.368,902.068,-12.444
50.508,893.04,-34.404
-69.052,839.604,64.416
-86.62,806.176,104.188
-105.652,797.636,88.816
-91.744,845.216,-16.836
-110.532,873.52,-75.884
-198.128,836.432,-16.104
-218.136,816.668,7.564
-229.116,818.864,-6.1
-239.364,829.112,-34.892
-204.228,859.124,-87.352
-203.496,833.504,-45.384
-212.768,787.144,42.212
-200.324,790.804,50.752
-187.148,818.132,6.344
-199.104,831.064,-9.028
-193.004,836.432,-7.564
-161.528,842.044,-13.176
-172.508,835.456,-3.416
-201.3,811.3,36.356
-222.04,794.708,58.316
-188.368,801.296,30.744
-209.352,818.132,24.4
-262.788,840.824,9.516
-268.888,857.416,-29.28
-273.28,840.824,-15.86
-270.596,820.328,7.076
-268.156,805.2,31.72
-254.004,834.724,0.976
-286.944,864.736,-22.936
-320.86,881.328,-39.528
-317.444,887.184,-50.264
-298.168,899.384,-61.244
-292.068,894.748,-47.58
-306.952,876.692,-6.832
-326.716,869.128,7.808
-339.16,873.032,-6.832
-359.656,870.104,5.856
-336.964,884.744,-5.612
-296.216,879.132,-6.832
-283.04,888.892,-12.688
-298.656,911.096,-14.152
-325.496,936.716,-30.256
-351.36,935.252,-21.716
-391.62,906.216,-10.98
-440.176,936.716,7.564
-355.996,981.368,-23.912
-254.736,982.832,-75.884
-265.716,974.048,-77.836
-445.056,954.284,-44.164
-452.376,1039.928,-75.152
-388.692,1025.288,-36.356
-350.384,925.492,63.196
-284.26,798.856,102.236
-287.676,778.116,73.444
-118.096,687.592,37.088
354.532,473.116,35.624
711.016,316.224,76.616
917.44,384.3,-33.184
675.88,503.86,-208.864
785.924,586.82,-487.268
1186.328,396.744,-296.948
1428.62,193.004,27.328
1568.432,284.504,-99.552
1309.06,416.02,-349.896
1031.388,436.76,-485.072
1180.472,316.468,-118.584
1101.416,50.264,260.348
894.26,28.792,212.036
929.152,136.884,19.276
1067.5,254.736,-93.208
1081.164,286.944,-160.308
1064.084,254.004,-162.504
926.956,232.288,-160.064
922.076,244.488,-120.536
897.676,221.796,-92.72
911.096,220.82,-76.616
869.372,211.548,-99.796
810.812,248.148,-141.032
815.448,250.1,-120.78
783.484,218.38,-89.548
720.288,181.78,-38.064
698.328,177.632,-38.064
659.044,162.26,-48.8
623.42,166.652,-77.348
653.92,176.412,-95.892
529.724,128.832,-43.676
501.176,86.376,-9.76
631.716,63.196,-59.292
738.588,83.448,-133.956
660.752,57.34,-122.0
553.392,-9.516,-72.956
706.624,-78.324,-72.224
913.78,-72.712,-161.284
843.508,-81.496,-181.536
702.72,-145.668,-93.94
828.868,-201.788,-99.552
996.008,-191.784,-163.48
986.98,-206.18,-151.28
777.14,-253.028,-109.068
897.188,-283.284,-129.564
1083.36,-283.284,-216.184
1226.832,-323.788,-230.092
1134.844,-385.276,-181.292
1021.628,-453.596,-152.988
1177.544,-482.388,-170.312
1248.548,-467.504,-174.46
1246.108,-498.004,-54.656
1281.244,-555.832,-7.076
1419.104,-496.54,-131.76
1500.356,-433.832,-209.84
1395.192,-440.908,-158.112
1363.96,-465.552,-87.596
1436.672,-446.276,-86.376
1548.668,-456.036,-133.224
1522.072,-471.164,-111.508
1381.528,-470.92,-95.16
1230.248,-476.288,-69.052
1148.02,-466.528,-37.088
1149.24,-445.788,-40.748
1154.364,-417.24,-62.464
1132.892,-386.74,-71.98
1054.568,-360.144,-102.968
1026.02,-339.648,-101.504
1022.848,-344.284,-95.648
1059.204,-350.384,-92.964
1029.68,-392.108,-20.74
903.532,-377.468,-31.232
910.608,-324.52,-54.656
1027.728,-282.796,-108.336
1154.12,-261.568,-134.2
1081.408,-287.92,-126.636
932.568,-278.648,-124.928
898.652,-237.656,-117.364
1027.484,-213.988,-87.596
1153.144,-178.364,-57.828
1263.432,-188.856,-43.676
1303.204,-137.128,-131.76
1246.596,-107.604,-156.892
1262.7,-70.76,-108.092
1214.388,-25.132,-50.02
1229.76,47.58,-46.848
1300.276,168.116,-133.956
1115.812,240.828,-195.2
797.88,369.904,-164.212
895.236,593.652,-210.084
623.908,703.208,-132.736
407.968,786.656,-38.064
243.268,739.564,176.412
457.744,646.356,224.236
549.976,730.292,111.996
333.548,781.532,95.892
275.964,851.804,-12.444
197.64,836.432,-44.652
187.88,803.98,-45.628
191.052,836.676,-88.572
136.152,895.724,-108.336
84.912,939.644,-146.156
10.248,909.876,-128.344
57.34,883.768,-119.316
64.904,881.084,-98.332
27.816,905.24,-73.932
79.056,915.244,-69.052
90.524,891.332,-28.06
62.464,884.012,-12.2
63.684,915.976,-28.304
78.812,922.32,-27.328
121.024,937.448,-31.476
154.452,951.112,-11.712
157.136,960.872,1.708
165.188,961.604,17.812
176.9,964.776,18.056
159.332,956.724,27.572
189.832,987.712,-5.368
188.124,1019.676,-25.132
191.784,1031.144,-33.672
170.8,1027.24,-25.376
154.696,1017.724,-19.52
154.696,1006.5,-15.86
158.844,1006.988,-36.6
155.184,998.448,-49.532
161.284,993.08,-52.46
153.476,996.252,-39.04
145.912,995.276,-39.772
147.864,995.276,-48.312
134.932,983.076,-42.212
118.34,970.144,-34.404
148.108,970.876,-47.336
146.644,971.364,-58.56
134.932,973.072,-67.832
139.324,979.904,-91.256
156.16,995.764,-103.944
136.152,977.708,-62.22
161.528,958.676,-50.02
174.46,946.72,-47.092
164.456,952.332,-46.604
167.14,987.224,-72.712
163.236,1008.94,-79.544
161.04,1039.196,-98.088
171.044,1086.776,-126.392
153.964,1111.664,-119.56
136.152,1093.12,-81.74
160.308,1079.944,-68.808
166.652,1087.996,-65.88
158.112,1102.148,-45.14
158.112,1108.736,-43.676
150.792,1114.836,-59.292
131.76,1120.936,-55.876
117.364,1133.136,-54.412
99.552,1155.34,-62.952
53.924,1148.752,-38.796
64.904,1163.392,-64.904
60.756,1188.768,-100.528
58.316,1198.04,-109.312
49.288,1195.844,-109.068
41.48,1184.132,-103.944
34.16,1157.292,-90.524
29.524,1127.28,-71.736
27.084,1119.228,-85.4
35.136,1102.636,-86.376
8.052,1081.896,-65.636
-8.296,1082.14,-56.852
-55.144,1097.268,-55.632
-83.936,1092.632,-40.992
-65.148,1059.692,-24.888
0.244,1028.948,-3.416
33.916,1041.636,-15.86
10.98,1050.664,-29.036
-6.832,1022.848,-24.156
-19.276,975.756,-18.544
-37.576,937.692,-15.372
-6.588,932.324,-50.508
6.832,959.896,-126.392
-69.296,944.768,-129.32
-102.48,896.7,-85.4
-140.788,874.008,-47.336
-158.356,837.896,-28.548
-143.228,813.496,-14.884
-67.588,843.996,-77.836
-72.468,852.78,-90.768
-125.172,838.384,-48.068
-165.432,826.184,-12.932
-164.456,820.084,-4.88
-131.76,824.72,-36.356
-111.02,849.852,-84.912
-186.172,865.224,-94.184
-261.568,876.448,-95.892
-243.756,864.492,-114.924
-199.836,835.944,-111.752
-158.112,809.836,-89.548
-202.276,771.528,14.884
-243.512,802.272,10.248
-224.968,836.676,-64.904
-287.188,819.108,-21.228
-356.728,806.42,46.36
-290.604,866.444,-51.972
-258.152,940.132,-176.9
-317.2,975.512,-237.412
-326.96,938.18,-195.932
-321.348,864.004,-100.528
-307.684,792.024,-27.084
-277.672,735.416,18.544
-275.964,725.9,31.72
-287.676,743.956,27.084
-294.996,790.316,3.904
-279.136,814.716,-30.988
-288.408,841.556,-57.584
-345.748,903.776,-101.504
-347.212,934.52,-137.372
-289.384,922.32,-121.756
-306.952,908.168,-71.492
-336.476,936.716,-85.644
-354.532,1023.336,-181.048
-379.908,1006.256,-152.744
-275.72,933.056,-55.876
-213.256,918.172,-4.392
-217.404,945.988,-16.104
-267.424,960.628,-22.448
-300.852,986.736,-63.684
-307.928,966.24,-44.896
-296.46,947.208,-18.056
-300.608,934.276,10.492
-304.024,944.28,4.636
-299.632,949.648,-10.248
-368.684,917.196,-6.588
-429.928,909.876,24.156
-328.668,954.772,20.984
-246.44,908.9,29.28
-48.312,871.568,-11.956
87.596,868.64,-67.1
64.172,829.356,-38.064
83.204,789.096,44.164
161.04,772.504,61.488
187.148,770.064,-22.936
332.816,697.596,-59.048
538.264,558.76,-54.9
490.44,504.104,81.984
511.18,351.36,134.688
454.816,247.416,165.188
724.192,172.752,-1.952
1194.136,89.06,-159.088
1604.544,144.204,-137.128
1645.536,177.144,-118.096
1583.316,249.856,-284.992
1539.884,236.68,-222.772
1277.34,132.248,17.812
923.296,108.824,-10.248
807.64,137.616,-181.048
995.52,74.176,5.368
1077.992,36.112,34.892
1252.696,72.224,-124.684
1367.62,76.128,-162.504
1270.02,113.948,-210.816
1062.132,132.492,-220.576
915.0,96.38,-158.844
861.808,68.808,-124.684
978.928,64.66,-115.168
995.764,77.592,-115.9
973.072,110.044,-148.352
938.18,130.296,-181.292
875.472,127.612,-168.848
849.364,94.672,-117.364
803.492,67.832,-69.784
781.532,87.596,-102.48
789.584,104.676,-113.216
815.692,89.304,-120.292
837.164,65.88,-132.736
848.632,40.016,-94.916
791.292,18.544,-74.42
715.164,27.328,-75.884
718.58,36.356,-100.528
753.716,22.204,-117.852
740.54,-23.912,-99.308
774.456,-23.912,-110.288
825.452,-20.74,-158.844
856.928,-20.74,-163.236
838.14,-71.736,-97.356
870.348,-98.088,-113.948
914.024,-112.24,-128.1
878.644,-147.376,-91.5
810.324,-173.24,-72.224
840.336,-191.052,-119.316
957.212,-210.328,-160.064
945.5,-231.8,-122.244
808.86,-263.276,-61.976
778.604,-301.096,-63.44
931.592,-324.032,-106.14
1085.556,-349.896,-131.516
981.612,-362.34,-76.86
869.616,-393.328,-9.76
888.16,-441.64,-21.472
1008.452,-452.132,-83.936
1138.748,-425.78,-125.416
1155.828,-415.776,-122.0
993.08,-437.98,-54.412
989.908,-468.48,-69.052
1080.676,-480.924,-115.168
1201.7,-469.7,-123.952
1274.9,-504.104,-45.14
1169.004,-547.292,59.536
1117.52,-582.184,48.068
1161.44,-548.024,-32.208
1204.628,-532.896,-51.728
1209.752,-558.516,-17.568
1249.28,-577.548,-19.52
1295.396,-573.644,-43.92
1225.612,-554.856,-53.436
1106.784,-537.044,-35.38
1090.68,-525.576,-20.008
1121.912,-544.364,-32.208
1164.368,-526.796,-74.42
1197.796,-505.812,-102.968
1141.676,-497.516,-103.7
995.764,-507.764,-80.276
948.428,-506.544,-42.212
983.32,-499.956,-50.752
1013.82,-494.1,-57.584
1032.12,-493.368,-54.412
930.86,-496.784,-32.696
841.312,-492.148,-25.62
835.7,-474.58,-17.812
898.652,-471.164,-25.376
968.436,-459.452,-43.432
966.972,-471.164,-41.968
913.048,-508.74,19.032
907.924,-491.66,23.424
897.188,-469.456,6.344
862.54,-470.188,19.52
854.488,-460.916,17.568
914.512,-442.128,-3.416
1014.552,-405.772,-31.476
1163.392,-388.448,-30.012
1261.236,-351.848,-17.812
1281.0,-355.508,-25.864
1331.996,-311.588,-36.356
1196.576,-343.552,9.76
1167.296,-261.08,-26.108
1475.468,-166.652,-102.48
1342.244,-220.576,-51.24
944.524,11.956,-25.864
679.784,315.736,-137.616
562.908,530.456,-74.664
573.644,564.128,-10.98
704.428,588.528,22.204
753.472,582.184,105.408
793.244,631.472,131.028
731.512,726.632,96.38
638.06,762.012,88.328
648.064,747.86,76.616
652.7,751.032,74.664
681.248,766.16,79.788
601.948,814.96,37.576
507.276,856.928,11.224
482.632,858.88,-5.368
492.392,851.804,-11.712
507.764,879.62,-33.672
381.616,882.304,26.108
375.76,856.44,57.584
392.352,817.4,99.064
366.976,801.052,120.78
296.216,822.768,79.3
203.252,836.92,57.34
198.372,869.616,40.748
201.788,873.032,47.58
224.724,898.164,40.992
189.832,899.872,59.536
150.304,867.176,73.932
131.272,867.42,39.04
126.636,904.996,-19.276
123.464,933.3,-34.16
146.4,925.248,-18.056
213.012,928.908,13.42
214.964,905.484,67.344
180.072,884.744,85.644
224.724,919.148,27.572
227.164,985.272,-11.956
240.828,995.764,7.808
288.164,989.908,36.356
292.312,958.188,89.792
272.548,976.0,64.416
253.272,994.3,32.208
247.172,994.544,24.888
248.148,990.64,20.984
262.544,994.788,4.148
255.224,989.908,17.08
219.6,965.996,61.0
219.112,919.88,104.92
278.892,908.656,75.884
283.772,937.692,12.688
221.552,992.836,-46.36
188.124,1017.48,-86.376
198.128,1010.404,-93.94
212.768,1001.864,-85.644
209.596,985.272,-62.952
207.644,970.876,-44.896
230.336,975.268,-54.412
210.328,970.388,-43.188
228.14,967.704,-39.284
240.584,968.924,-43.432
233.264,982.588,-54.656
213.012,989.908,-72.712
216.428,996.984,-88.328
212.768,980.148,-71.248
224.724,962.092,-39.284
250.1,964.532,-22.204
263.032,983.564,-19.52
255.712,987.468,-15.616
232.288,967.704,-9.272
241.804,958.92,-19.52
232.044,967.704,-21.228
244.244,981.368,-26.84
230.824,985.76,-15.616
200.324,967.216,5.612
190.32,952.332,2.684
209.84,950.868,-18.3
241.804,970.388,-30.5
239.852,991.616,-16.104
231.068,997.716,0.0
233.02,985.516,13.42
219.844,976.488,12.2
213.012,982.1,-5.856
210.328,1010.404,-38.064
205.448,1023.58,-41.968
218.624,1007.72,-11.956
236.436,1003.816,13.176
231.312,1022.848,10.736
225.456,1062.132,-11.712
190.808,1080.92,-13.908
183.976,1089.216,-4.88
180.56,1107.516,-7.564
178.364,1137.284,-6.588
196.42,1164.124,4.88
188.612,1166.564,37.088
195.932,1181.204,43.188
175.68,1200.968,48.556
148.596,1250.988,13.176
134.444,1298.324,-49.044
112.728,1323.7,-75.64
98.82,1311.5,-70.272
101.504,1287.832,-70.76
71.492,1273.68,-76.616
49.776,1240.984,-56.364
52.704,1189.5,-22.936
71.248,1167.54,-20.74
59.78,1182.18,-48.556
23.668,1199.26,-79.3
-20.252,1217.56,-100.528
-61.244,1270.02,-127.856
-68.564,1270.752,-84.18
4.636,1212.924,-28.548
77.348,1137.772,-14.396
110.288,1090.436,-42.212
53.192,988.688,-10.004
-44.652,839.116,76.128
-92.232,727.608,125.416
-81.74,686.372,108.092
-86.864,700.524,39.772
-140.544,770.308,-72.224
-226.92,777.384,-126.636
-238.876,750.056,-115.9
-250.1,744.444,-113.948
-260.348,789.34,-145.668
-213.744,815.936,-178.12
-203.74,787.144,-137.86
-213.744,718.336,-62.952
-179.096,663.924,-20.496
-161.284,647.088,-23.912
-218.38,665.144,-42.456
-325.74,688.812,-76.372
-349.164,665.876,-74.176
-337.452,640.744,-76.372
-382.836,619.028,-63.684
-431.88,592.432,-22.448
-429.44,626.592,-39.04
-419.924,656.116,-59.78
-414.068,630.984,-30.988
-396.988,637.328,-36.6
-375.516,701.256,-88.572
-421.632,747.128,-115.168
-481.9,773.48,-119.072
-522.16,814.716,-148.596
-399.184,850.584,-213.256
-391.62,856.44,-152.744
-437.004,852.292,-93.208
-427.976,870.104,-91.012
-404.552,876.692,-83.692
-363.316,886.208,-96.38
-355.752,913.292,-122.0
-372.832,935.984,-132.736
-390.644,935.252,-134.932
-391.376,898.408,-86.376
-379.42,872.788,-47.092
-356.24,900.36,-78.08
-373.564,936.228,-110.044
-407.724,946.232,-110.776
-373.076,949.16,-126.636
-328.18,935.984,-110.776
-283.284,920.124,-93.94
-317.444,899.14,-43.92
-393.084,911.34,-81.252
-475.068,929.64,-112.484
-482.144,903.532,-64.66
-638.304,843.264,46.36
-594.14,937.692,-15.86
-521.672,888.16,-112.728
-473.848,797.148,-182.024
-350.628,766.16,-255.224
-69.296,687.104,-231.556
164.944,573.644,-26.84
-58.56,293.044,282.064
559.736,-31.964,350.14
1094.584,-110.044,260.836
1060.912,125.904,4.88
1393.972,261.324,-150.304
1624.796,388.692,-354.776
1340.292,412.604,-377.956
1388.36,283.284,-215.696
1321.016,143.96,-85.4
1196.332,45.628,50.02
1159.244,84.424,0.0
1112.396,144.936,-64.904
909.632,184.22,-73.2
783.728,190.564,-68.808
799.344,208.864,-84.424
793.976,205.936,-97.112
757.62,233.508,-128.832
775.432,271.816,-192.272
768.112,239.364,-179.584
740.052,187.148,-149.816
736.636,97.6,-100.284
716.14,54.9,-69.54
696.62,72.224,-100.528
764.208,83.692,-129.808
858.392,74.176,-151.036
880.84,12.2,-126.392
863.272,-23.912,-104.92
844.728,-48.8,-90.036
835.456,-81.008,-82.716
891.332,-99.308,-91.988
944.036,-115.656,-120.78
860.832,-165.432,-95.16
752.74,-188.612,-87.84
766.892,-174.704,-101.992
835.7,-164.7,-119.56
908.412,-162.992,-157.868
903.044,-210.816,-152.5
857.172,-260.836,-137.616
806.42,-290.116,-127.612
761.036,-317.932,-84.668
792.024,-342.576,-46.116
939.4,-348.92,-64.66
1062.62,-413.824,-50.02
1034.316,-455.792,-53.192
913.536,-464.088,-132.98
749.812,-393.084,-223.016
813.984,-446.764,-151.036
966.728,-508.496,-122.0
1216.584,-529.48,-128.344
1408.368,-552.904,-127.124
1406.172,-514.84,-204.96
1357.128,-517.28,-211.548
1354.444,-558.272,-114.436
1399.828,-605.608,-20.984
1462.78,-588.772,0.488
1471.564,-573.4,-10.248
1440.088,-556.32,-40.992
1376.16,-514.596,-111.02
1277.584,-500.688,-100.772
1205.848,-484.584,-47.58
1193.404,-496.784,-22.692
1259.528,-471.896,-26.108
1302.96,-459.94,-38.796
1292.468,-437.492,-67.832
1300.276,-377.224,-118.828
1340.292,-290.36,-151.036
1255.136,-327.448,-63.44
1274.656,-346.724,34.16
1366.644,-313.784,20.984
1579.656,-216.672,-132.492
1459.12,-115.412,-148.352
1440.82,-141.764,-126.148
1379.088,-64.904,-149.572
1146.8,210.572,-182.268
734.44,415.044,-154.452
493.612,449.692,100.528
525.332,524.6,251.076
440.664,530.7,284.504
356.24,562.176,159.332
462.868,693.936,-30.744
375.028,676.856,22.936
338.428,710.772,25.132
250.588,790.072,-9.028
200.568,846.68,-85.156
198.616,877.424,-151.036
92.232,831.308,-93.696
49.288,831.308,-72.468
45.872,862.296,-82.472
44.408,861.808,-64.904
90.524,850.34,-49.776
203.984,874.252,-74.176
159.088,855.952,-4.636
121.024,872.3,29.768
148.84,890.356,22.204
207.156,898.408,2.44
263.032,911.828,0.244
232.532,935.496,27.816
220.82,975.512,20.008
183.488,980.636,19.52
219.112,971.12,12.2
232.532,948.428,28.792
260.348,957.944,32.452
243.756,952.82,52.704
255.224,975.268,34.892
221.064,989.664,35.136
235.948,989.176,18.3
243.512,989.664,9.76
210.816,980.392,25.376
206.668,979.416,12.688
218.136,1003.572,-22.692
209.108,1011.868,-32.696
218.868,996.008,-23.18
230.092,979.172,5.368
218.868,960.384,28.304
224.724,958.188,20.74
232.532,971.364,0.0
220.576,987.956,-12.688
217.648,989.42,-11.956
212.28,975.268,5.612
215.94,954.528,23.424
256.932,975.268,-7.564
233.264,982.588,-6.588
229.604,982.832,-1.952
236.436,984.54,6.1
232.288,970.876,26.352
216.916,952.332,42.7
247.904,960.872,18.3
254.492,978.44,10.004
220.332,986.98,13.664
218.868,985.272,4.148
213.256,974.292,11.956
222.04,967.46,16.348
240.096,974.536,7.32
222.772,976.488,10.98
204.716,975.024,3.172
190.076,966.972,2.196
174.948,962.58,-0.732
186.904,970.876,-20.496
217.16,988.688,-30.988
196.176,983.564,-11.224
180.316,976.244,2.928
181.292,970.144,0.244
174.216,965.752,0.0
174.46,958.676,-2.684
191.784,958.676,-15.86
205.936,978.44,-41.724
201.056,1000.644,-58.56
175.68,998.692,-50.02
160.308,973.56,-22.448
171.044,949.892,-4.392
199.836,955.748,-13.176
204.228,980.392,-33.428
199.348,991.86,-40.016
192.272,991.128,-38.308
178.608,966.972,-9.272
188.124,956.968,-2.196
206.18,956.968,0.0
