acc_x[mg],acc_y[mg],acc_z[mg]
-66.612,982.588,-87.84
-72.712,986.004,-85.644
-74.176,987.712,-83.204
-88.816,986.98,-82.96
-96.624,981.856,-74.42
-92.964,974.292,-75.884
-86.132,970.388,-74.908
-99.308,970.144,-74.42
-96.136,972.584,-74.176
-91.744,974.78,-75.396
-85.156,981.612,-75.64
-69.784,984.296,-83.204
-66.124,988.932,-84.912
-59.536,992.348,-81.496
-66.612,988.932,-85.4
-74.908,983.564,-87.596
-87.108,976.244,-89.06
-86.62,978.44,-89.792
-81.74,982.1,-89.792
-72.712,982.832,-87.596
-65.88,984.296,-85.888
-73.444,983.564,-81.984
-75.396,981.124,-76.372
-83.204,982.832,-74.664
-85.644,978.928,-77.104
-65.392,981.124,-79.056
-70.516,977.708,-78.08
-78.568,977.464,-72.956
-90.28,980.636,-65.392
-86.864,987.468,-62.22
-74.664,992.348,-68.076
-68.564,993.568,-71.98
-62.22,993.324,-82.716
-66.124,996.252,-88.816
-74.908,997.716,-91.5
-84.424,991.372,-90.036
-90.036,981.368,-83.936
-90.036,974.292,-86.132
-76.86,976.732,-82.96
-68.076,981.124,-75.152
-71.248,978.44,-67.832
-77.592,970.876,-62.22
-81.984,966.24,-62.952
-76.372,968.924,-71.248
-71.736,971.608,-83.692
-73.2,975.268,-95.16
-72.468,975.756,-97.844
-84.18,977.464,-94.184
-81.984,980.392,-91.012
-77.836,980.88,-86.132
-77.836,981.124,-79.056
-68.32,990.396,-75.64
-63.684,998.204,-70.272
-63.44,1003.572,-70.028
-57.584,1001.864,-77.592
-57.584,999.912,-81.496
-65.636,1000.888,-85.4
-68.32,1000.4,-84.424
-65.392,995.764,-84.18
-69.54,986.492,-81.74
-78.812,977.952,-71.736
-79.544,975.268,-57.584
-88.328,972.096,-48.8
-87.108,970.632,-50.264
-83.692,972.096,-53.924
-84.668,978.196,-59.536
-82.472,990.64,-61.0
-62.708,1001.864,-68.808
-57.828,1003.328,-73.688
-55.388,996.252,-80.032
-57.584,991.86,-83.936
-66.612,989.42,-81.252
-67.832,988.444,-80.764
-69.54,980.636,-79.3
-80.52,970.876,-76.372
-78.812,970.876,-79.544
-78.812,972.584,-77.348
-74.908,980.636,-75.64
-72.712,983.808,-79.056
-70.272,983.564,-84.912
-62.22,985.028,-85.888
-66.856,986.98,-83.692
-74.176,985.028,-81.496
-74.42,984.296,-83.204
-77.592,982.588,-80.032
-79.544,982.832,-78.812
-83.204,982.832,-77.836
-77.592,986.98,-72.956
-70.028,988.932,-78.812
-64.66,991.616,-81.252
-69.052,994.788,-80.52
-69.296,994.544,-77.836
-71.492,989.664,-77.348
-71.98,984.052,-74.176
-68.564,984.54,-75.884
-66.368,987.956,-73.444
-66.856,991.372,-69.54
-67.1,986.736,-76.86
-77.592,984.296,-76.128
-81.496,986.736,-78.08
-88.328,984.052,-84.18
-90.28,980.392,-83.936
-94.672,974.78,-76.372
-101.26,973.316,-76.128
-97.844,977.952,-75.396
-87.108,984.784,-70.028
-80.032,986.492,-70.76
-81.496,982.1,-72.956
-79.3,983.32,-78.324
-84.18,984.052,-84.18
-91.744,982.1,-81.252
-88.572,981.856,-81.496
-78.568,987.468,-87.84
-81.984,988.2,-88.572
-89.304,984.784,-82.716
-95.648,984.052,-76.128
-88.816,987.468,-71.248
-76.372,986.004,-76.372
-78.568,985.028,-78.324
-75.64,990.396,-81.252
-74.176,999.912,-81.496
-81.74,998.936,-85.156
-94.916,989.908,-92.476
-100.284,985.516,-96.38
-102.724,978.928,-96.868
-111.996,976.488,-100.772
-120.048,970.388,-101.748
-127.856,963.556,-101.26
-131.028,962.58,-105.652
-121.512,964.532,-105.896
-129.808,968.924,-101.992
-128.832,973.072,-99.552
-124.928,977.952,-97.6
-108.824,983.32,-102.236
-110.532,987.224,-99.796
-114.192,992.592,-94.184
-126.636,1005.28,-98.088
-148.84,1007.232,-96.136
-156.16,1008.94,-98.82
-166.896,1017.236,-105.408
-173.728,1027.972,-108.824
-198.616,1029.192,-112.972
-213.744,1039.684,-124.684
-177.144,1056.276,-150.548
-246.196,1068.476,-141.032
-292.068,1080.432,-135.908
-315.98,1132.648,-202.032
-416.264,1118.74,-234.484
-476.532,1188.524,-164.456
-505.324,963.068,-183.488
-316.956,687.836,-154.208
110.532,474.58,-94.916
532.652,86.376,80.52
724.924,408.7,517.768
1138.016,-146.4,-339.16
1503.04,640.5,-318.908
1255.868,752.74,-230.336
786.168,521.672,26.108
838.14,303.78,-20.74
1043.588,62.952,-11.712
1271.24,19.764,58.56
1244.4,86.62,91.012
945.988,130.54,101.26
888.648,134.932,96.136
987.468,87.84,162.504
991.372,69.052,160.552
913.048,111.02,123.708
801.052,156.404,118.584
689.788,190.808,115.9
643.916,239.852,84.424
659.044,263.032,75.64
726.876,244.0,72.956
622.932,160.796,72.956
521.916,141.764,74.42
499.712,200.08,41.724
629.764,223.748,9.516
781.776,146.4,20.984
790.56,-24.888,33.672
693.936,-142.984,53.436
746.64,-104.188,58.316
848.876,-78.08,47.824
862.784,-100.772,-2.196
928.42,-209.596,4.88
856.928,-313.052,13.908
838.628,-284.26,-6.588
959.164,-280.356,1.22
1032.608,-345.016,7.076
1027.972,-393.572,-11.224
987.224,-438.956,-6.588
964.776,-453.596,-14.396
962.336,-477.02,-11.712
975.024,-495.564,4.636
984.54,-533.872,20.008
950.38,-594.384,33.672
952.332,-592.676,30.744
918.904,-625.616,38.064
1002.108,-648.796,47.092
1050.176,-642.696,46.604
1069.208,-643.428,21.716
1125.084,-644.404,-0.976
1118.008,-618.784,-22.936
1050.176,-618.784,0.244
1004.792,-615.612,51.972
927.2,-657.336,35.868
904.508,-678.564,49.288
1074.332,-697.108,17.568
1122.888,-727.364,36.356
1166.32,-752.252,58.316
1244.888,-750.056,52.948
1178.52,-746.152,27.328
1111.42,-711.504,24.644
1171.2,-636.596,-16.592
1245.864,-550.464,-49.776
1231.712,-462.38,-23.18
1147.044,-374.052,7.32
1087.264,-349.652,28.304
1008.696,-395.036,-106.384
1026.996,-210.084,-29.036
1266.36,3.66,-186.904
1058.716,-39.528,-216.184
1024.068,226.92,-289.384
1210.972,416.508,-512.644
674.172,498.492,-157.868
459.452,782.508,-391.376
753.472,850.096,-433.832
750.056,829.844,-390.644
704.672,898.408,-457.256
539.484,924.76,-374.296
271.572,842.044,-202.764
222.528,830.088,-191.296
152.744,865.956,-194.224
107.848,852.78,-259.372
240.584,880.352,-278.648
328.424,844.24,-182.268
294.508,879.132,-146.888
215.94,906.704,-148.108
219.6,950.136,-140.544
252.784,941.108,-87.352
257.176,833.748,-53.192
215.696,852.048,-60.512
227.408,942.572,-85.888
171.532,991.86,-81.496
171.776,947.452,-28.792
211.304,908.168,-7.32
222.772,870.836,-26.596
257.176,916.952,-17.812
229.604,909.388,-28.792
152.012,889.38,-28.792
183.244,951.844,-35.38
203.008,939.156,-35.38
252.784,951.356,-18.788
237.9,973.072,-22.692
189.832,1007.476,-26.84
172.508,982.832,-19.032
182.756,963.312,-42.456
194.468,980.148,-43.676
190.32,959.408,-22.936
193.492,949.648,-17.324
156.404,950.136,-24.888
146.156,952.82,-32.696
148.596,956.968,-42.7
162.016,964.288,-38.796
201.056,975.268,-29.524
206.912,984.052,-20.008
179.828,993.568,-34.892
187.148,1012.6,-36.356
188.856,990.64,-12.688
175.436,969.9,-27.816
177.388,979.172,-22.692
183.244,981.856,-26.596
211.548,999.912,-37.088
212.036,985.272,3.172
193.004,964.776,8.784
192.028,974.78,-4.88
187.88,993.324,-19.764
194.468,992.836,-11.956
180.072,969.412,-8.052
153.476,949.648,-27.572
157.868,947.452,-35.136
181.048,955.016,-26.352
176.9,990.152,-32.696
179.096,997.472,-32.696
172.996,994.544,-22.204
163.724,983.076,-31.232
165.432,976.244,-42.212
163.48,959.896,-48.8
207.888,978.928,-39.528
202.032,991.86,-36.112
173.972,1013.088,-40.992
160.796,988.932,-31.964
174.216,973.316,-28.304
175.436,962.58,-36.844
187.88,963.312,-38.552
186.904,968.192,-34.16
186.66,980.636,-24.156
172.508,980.88,-24.644
180.316,995.032,-47.824
180.316,987.956,-41.968
182.756,967.704,-45.872
170.068,991.86,-39.04
167.872,1012.112,-44.652
179.584,1041.148,-46.36
183.976,1026.508,-38.064
177.632,992.592,-29.036
167.14,983.32,-36.112
146.888,967.216,-40.016
153.232,956.48,-38.308
181.536,984.784,-23.668
178.852,986.98,-22.936
172.996,960.628,-15.372
162.504,955.504,-19.032
164.7,959.896,-33.184
167.14,984.54,-38.552
196.664,1011.38,-45.384
191.784,1014.064,-21.472
175.436,1009.184,-30.5
148.352,1022.36,-47.824
136.396,1008.696,-49.532
150.304,979.172,-32.208
177.876,973.804,-33.672
166.896,988.444,-22.936
146.644,990.884,-40.748
154.208,988.688,-39.04
159.088,996.252,-30.012
164.7,1004.304,-34.404
197.884,1036.756,-36.844
207.4,1073.112,-33.428
200.08,1099.22,-43.432
195.932,1102.148,-41.236
170.068,1132.892,-51.972
145.18,1127.768,-57.828
164.212,1115.324,-50.02
171.532,1124.84,-37.332
166.896,1157.78,-29.28
163.236,1180.716,-42.212
124.928,1158.268,-19.032
101.26,1111.42,-25.132
75.64,1088.972,-19.032
79.056,1115.324,-51.728
152.744,1128.5,-58.072
213.988,1124.108,26.108
156.892,1106.296,51.24
105.408,1045.784,22.692
83.204,1042.124,2.44
82.228,1016.26,-7.076
104.188,1019.92,-4.636
131.516,1025.288,33.184
170.068,1021.384,66.124
149.572,1012.356,48.068
95.404,997.228,40.016
62.464,1016.992,33.672
36.844,1022.36,21.716
60.024,994.544,59.292
104.92,987.224,78.324
165.188,1008.452,55.632
181.048,1053.836,64.66
63.196,1027.972,49.532
-15.128,998.692,30.988
-1.464,955.748,55.144
54.168,972.584,21.96
76.128,999.668,21.716
39.284,999.912,31.72
-50.752,960.384,27.328
-122.244,897.92,0.488
-68.076,900.604,-18.544
-10.492,937.936,-16.592
-53.924,920.368,18.3
-121.756,876.204,7.808
-161.528,878.156,-13.176
-185.928,852.292,-9.028
-158.112,886.208,2.196
-169.824,848.632,29.28
-186.416,814.228,40.504
-228.384,799.588,43.92
-257.42,790.316,44.164
-270.596,775.432,50.02
-274.012,776.164,58.316
-239.852,790.56,69.052
-244.0,780.556,80.764
-268.888,783.972,80.764
-269.376,828.136,59.292
-265.716,847.168,64.66
-253.272,854.244,75.396
-207.156,872.3,86.62
-211.792,883.524,81.252
-258.152,870.348,61.244
-261.08,889.136,39.284
-254.98,897.432,44.652
-242.536,904.996,42.212
-258.884,912.804,39.528
-304.512,899.628,46.116
-307.196,916.464,24.888
-279.136,937.204,14.152
-265.472,930.616,31.964
-280.112,906.46,29.28
-290.36,907.436,23.424
-298.168,917.928,12.688
-336.476,936.96,-8.54
-352.58,928.664,-6.832
-323.788,924.516,6.1
-302.316,931.836,5.612
-292.8,941.108,10.98
-281.82,940.376,9.028
-291.092,953.796,16.592
-305.244,931.836,22.692
-287.432,934.52,22.936
-262.544,944.768,16.592
-260.348,953.064,20.496
-281.82,939.644,39.04
-271.328,933.056,35.38
-255.468,952.576,26.84
-252.296,967.46,28.548
-263.764,955.748,40.26
-253.516,946.232,45.628
-249.124,946.964,27.084
-250.832,950.624,20.496
-262.3,946.72,16.348
-280.112,936.716,27.572
-302.316,924.272,33.184
-310.856,927.444,15.372
-290.116,945.744,24.888
-287.432,948.428,28.792
-301.096,954.284,34.16
-297.924,963.556,49.288
-237.656,947.696,72.712
-164.456,999.424,16.348
-167.14,1035.536,18.788
-156.404,1001.864,46.116
-165.92,931.592,63.196
-163.968,963.312,-25.376
-17.08,1152.9,-12.444
191.784,1251.476,-23.18
168.116,1215.12,-31.476
172.264,1148.752,-125.66
281.576,1060.912,-19.276
403.332,1089.216,-22.204
529.48,973.072,-26.596
577.304,751.52,-74.176
657.336,686.86,-98.82
660.02,640.5,28.304
708.576,516.548,49.044
819.108,461.648,40.992
844.972,419.924,-25.62
826.672,369.416,31.964
810.568,275.72,22.448
832.772,231.8,87.84
808.128,181.048,72.468
859.612,156.648,60.024
869.128,122.488,54.656
840.092,82.716,10.004
906.216,80.764,19.764
905.24,96.136,26.84
789.096,94.428,23.18
676.368,77.836,29.768
654.164,72.224,63.44
662.948,77.348,61.976
660.752,71.004,54.9
659.044,72.956,1.22
670.756,71.736,-10.248
722.484,31.476,10.248
807.152,-107.604,19.52
865.956,-158.6,30.012
834.724,-137.128,-71.98
817.4,-172.02,-102.236
941.352,-193.248,-81.74
1057.984,-244.0,-72.224
1035.78,-327.448,-27.572
999.912,-330.864,-37.088
878.156,-349.408,-98.088
919.88,-324.276,-91.256
1033.584,-356.728,-64.66
1163.392,-428.708,-47.092
1153.876,-463.112,-23.912
987.712,-468.236,-102.236
921.588,-402.844,-65.392
978.928,-394.548,-104.676
1051.396,-415.044,-54.412
1071.892,-436.272,-41.48
953.796,-480.192,-54.412
894.26,-434.076,-43.676
951.844,-439.932,-49.532
1065.792,-488.244,-31.476
1117.032,-476.288,-13.42
1098.0,-457.744,-79.544
1102.392,-424.804,-134.444
1170.468,-453.108,-103.212
1230.98,-538.752,-48.556
1233.176,-593.408,-88.816
1227.564,-514.108,-121.756
1211.704,-431.148,-157.136
1206.092,-391.62,-128.832
1207.068,-398.208,-116.144
1239.764,-387.96,-124.684
1254.16,-378.2,-151.524
1201.944,-395.28,-169.092
1149.24,-387.716,-144.692
1097.756,-340.868,-122.0
1051.396,-335.744,-122.0
1015.528,-358.68,-114.192
1013.332,-362.828,-118.34
969.656,-292.8,-85.4
941.352,-305.0,-122.732
949.648,-212.036,-99.552
954.772,-83.204,-105.164
1008.208,-27.816,-118.828
1071.404,67.344,-66.124
1061.888,132.248,-120.048
952.576,179.828,-92.964
899.14,248.392,-79.788
875.472,371.856,-100.04
876.692,444.568,-128.344
984.296,536.8,-98.088
991.86,614.148,-179.828
911.584,610.732,-197.64
834.968,617.076,-174.46
774.7,636.84,-162.016
796.66,712.724,-136.152
845.704,763.72,-151.28
774.944,810.568,-136.152
659.532,822.28,-89.792
562.664,802.272,-112.484
547.048,854.244,-128.344
544.364,896.212,-145.424
519.72,882.304,-179.34
471.652,915.732,-148.352
426.512,946.476,-127.612
371.368,922.32,-120.78
293.288,909.632,-167.14
285.724,926.468,-142.984
278.892,930.128,-119.072
244.732,928.42,-80.276
242.536,952.088,-41.48
237.9,912.804,-45.872
232.288,914.756,-75.396
200.812,957.944,-48.068
171.532,897.188,-61.488
137.616,868.884,-52.704
130.784,877.18,-48.068
138.592,918.904,-40.748
138.836,947.452,-38.796
144.936,955.016,-40.016
150.06,947.94,-11.956
157.868,922.076,-18.788
139.568,948.428,-33.916
123.952,961.116,-28.304
157.38,981.856,-48.068
215.94,1024.312,-25.864
253.028,1014.796,-23.424
256.444,1030.412,-0.976
229.116,1006.5,-4.88
202.52,969.412,-7.808
202.276,971.364,-9.028
217.404,990.64,-17.812
230.58,996.984,-9.516
218.38,987.468,-2.684
199.836,973.072,-9.76
186.66,966.972,-21.472
196.176,963.8,-30.5
213.5,971.364,-17.324
217.892,983.808,-21.228
215.208,1003.328,-13.176
213.988,989.42,-12.2
213.744,958.432,5.368
209.352,952.332,-0.732
208.132,965.02,-12.2
199.592,972.34,-20.252
199.104,973.072,-10.492
196.908,975.268,-10.004
199.104,1001.864,-12.932
201.3,979.66,-3.904
195.444,958.188,1.708
195.688,956.48,-7.32
201.3,964.776,-19.276
199.348,964.776,-20.252
202.764,971.12,-6.588
198.616,972.584,-5.368
191.052,962.824,-10.004
197.152,972.34,-10.004
211.304,979.172,-11.956
209.596,981.612,-18.788
199.836,981.368,-12.444
202.276,979.172,-14.396
201.544,978.928,-8.784
195.932,983.808,-11.956
211.304,993.08,-5.856
218.868,988.444,-6.832
218.136,987.224,-4.88
203.984,988.688,-1.464
201.788,975.512,-9.272
209.352,980.88,-10.98
215.94,980.148,-1.708
210.816,980.392,-3.172
208.132,972.828,-4.88
210.328,947.94,-1.22
207.888,951.844,-6.588
206.424,961.36,-10.736
200.812,988.444,-4.392
208.62,976.732,-2.196
233.264,960.872,8.784
243.756,972.584,12.688
226.676,970.876,4.88
209.596,968.68,-6.588
203.74,969.412,-5.368
221.064,965.02,0.732
244.244,975.024,5.856
243.024,982.832,8.784
230.336,967.948,4.636
208.62,961.36,1.22
200.568,966.728,-6.344
205.204,960.872,-9.272
218.38,971.364,-9.028
219.844,984.784,-9.272
212.036,983.32,-2.196
202.032,980.392,-10.248
196.42,994.788,-9.028
199.348,981.612,-11.468
226.432,978.684,-1.22
261.812,996.984,3.904
260.592,987.224,10.98
239.608,979.416,-5.612
198.616,992.348,-18.788
175.192,998.448,-29.036
186.416,995.032,-37.576
211.792,1004.06,-24.4
195.932,983.808,-9.516
177.876,954.284,-5.368
163.236,955.504,-5.612
177.144,967.704,-14.884
188.856,965.264,-13.176
209.108,967.704,-1.952
215.696,970.632,-5.368
209.108,976.0,-1.464
196.42,976.976,0.244
194.468,961.36,4.88
196.42,957.456,3.416
206.668,968.436,-5.368
207.156,979.904,-10.248
200.812,988.2,-6.832
191.296,983.808,-6.588
190.564,1006.012,-6.588
207.156,1037.976,-1.464
203.74,1025.532,-0.488
191.784,1006.5,3.904
200.08,1022.848,8.296
208.376,1024.068,0.488
213.988,1032.364,-2.44
213.744,1035.048,-1.22
188.856,1016.992,-1.22
175.68,993.08,-6.1
186.904,1000.888,-13.42
200.08,1014.552,-17.568
208.376,1012.6,-8.784
192.516,1012.112,-9.028
172.752,1024.068,-10.004
168.36,1038.22,-15.616
181.536,1052.86,-27.084
199.592,1085.556,-61.0
187.636,1109.468,-60.756
188.856,1117.276,-67.1
203.984,1130.452,-50.752
228.872,1131.672,-40.016
234.972,1121.424,-39.772
232.044,1114.836,-39.04
223.016,1139.724,-39.04
221.064,1123.62,-27.328
218.868,1075.064,-11.224
212.768,1095.56,-17.324
218.38,1119.472,-18.056
208.864,1095.316,-21.716
162.992,1070.428,-30.988
142.008,1080.188,-21.96
116.388,1058.472,-30.256
98.332,1042.368,-36.844
100.284,1069.452,-48.8
120.78,1051.152,-33.184
139.324,1034.316,-29.768
126.636,1079.7,-10.248
95.648,1050.42,5.612
66.612,1004.06,36.6
45.872,932.08,30.256
50.02,895.236,26.596
55.632,900.604,20.252
85.888,919.88,8.54
88.084,927.2,8.296
49.532,889.38,10.736
4.392,864.736,15.128
-31.476,858.636,3.172
-54.168,864.98,7.808
-50.508,858.636,1.22
-56.12,856.196,2.44
-87.352,870.836,5.856
-122.244,878.156,1.22
-119.56,860.1,0.0
-106.384,856.684,8.784
-106.628,836.188,28.06
-94.672,828.38,46.116
-94.428,856.684,45.872
-142.252,866.932,39.772
-160.552,847.656,38.064
-171.776,813.74,36.6
-156.16,821.792,27.328
-112.484,881.816,-9.516
-95.404,962.336,-40.26
-107.116,1002.84,-41.724
-140.544,991.372,-19.032
-152.744,969.168,-1.22
-144.204,990.884,-1.464
-89.548,1043.1,3.416
-64.172,1050.42,7.808
-88.328,1039.928,-0.732
-49.776,1051.396,25.376
7.564,1049.444,46.36
22.448,1019.188,71.492
-15.86,989.664,85.156
-84.18,986.004,66.612
-192.516,946.72,48.312
-255.224,944.28,13.908
-260.348,927.444,4.148
-245.464,894.992,15.86
-239.852,889.38,33.184
-227.164,902.8,35.38
-221.064,899.384,56.12
-247.904,850.584,62.708
-279.38,824.232,49.532
-268.644,843.02,44.652
-238.388,883.524,38.552
-214.964,915.488,19.032
-201.788,937.692,23.424
-189.1,937.936,24.4
-200.324,947.94,20.252
-206.18,937.448,17.568
-183.732,943.792,19.032
-162.504,961.116,21.96
-170.556,957.456,20.496
-174.216,958.432,20.74
-164.7,976.244,12.688
-167.628,985.028,19.032
-189.1,976.732,19.764
-203.496,961.848,26.84
-196.908,973.804,10.98
-185.196,992.592,-7.32
-170.068,988.688,9.028
-152.988,974.536,24.888
-161.528,950.136,28.548
-170.8,956.968,28.06
-184.22,986.248,13.176
-200.08,980.636,4.392
-184.464,964.044,12.444
-158.6,976.976,20.252
-163.236,983.076,14.396
-176.412,983.564,17.324
-177.632,977.952,20.496
-175.924,973.56,19.764
-180.804,996.984,26.352
-206.424,1010.404,13.908
-208.132,992.836,10.004
-174.704,972.828,26.108
-150.792,970.144,20.008
-183.976,968.924,-4.88
-220.088,993.324,-16.592
-243.512,999.18,-27.328
-248.392,946.476,-7.32
-150.06,832.528,36.844
46.604,841.8,-15.616
134.688,1053.592,-76.372
91.5,1159.976,-57.34
97.112,1032.608,-133.468
226.92,1210.24,-221.064
368.928,1372.256,-47.824
460.672,1174.616,3.904
447.252,833.992,-147.132
495.076,627.812,-190.076
640.744,661.24,-96.868
520.208,614.392,-71.248
843.264,383.812,-35.136
1177.544,238.632,147.62
789.828,71.492,48.556
599.996,88.084,-38.552
644.16,194.956,-133.712
865.712,216.916,-36.356
851.072,65.392,140.788
810.324,-65.636,270.352
558.028,-127.612,225.7
516.304,-119.56,91.012
677.1,-43.188,-91.256
845.948,-19.032,-199.836
858.148,-12.444,-162.016
713.212,-80.52,-42.456
514.352,-111.508,40.26
596.092,-124.928,-27.328
768.112,-119.316,-103.944
831.796,-136.396,-126.636
830.82,-178.608,-65.148
727.852,-276.94,-38.064
702.476,-325.496,-91.5
813.496,-341.844,-83.936
901.824,-381.372,-89.06
947.94,-429.196,-114.436
933.788,-463.356,-137.616
966.484,-478.24,-136.884
1031.144,-508.74,-125.416
1022.36,-592.92,-132.492
1003.328,-609.268,-133.224
1037.732,-569.984,-75.152
994.056,-538.02,-85.4
976.244,-605.852,-66.124
1012.356,-683.444,-35.38
1032.12,-684.908,-55.144
1059.692,-650.504,-99.308
1094.34,-625.616,-123.952
1118.496,-657.092,-132.004
1155.34,-643.672,-126.88
1167.54,-649.04,-139.812
1138.748,-649.04,-120.78
1097.756,-669.048,-123.464
1093.12,-676.124,-91.012
1108.98,-680.76,-86.864
1077.748,-673.196,-105.896
1058.228,-660.02,-142.984
1083.36,-660.508,-152.256
1140.212,-626.348,-159.332
1166.564,-603.168,-147.864
1143.14,-607.804,-135.176
1121.18,-601.948,-152.012
1142.164,-528.992,-141.764
1118.252,-511.18,-125.172
1077.016,-579.256,-1.952
1066.524,-631.472,-14.396
1020.164,-606.34,-48.312
947.452,-500.444,-56.608
834.236,-438.712,2.928
727.12,-285.48,-38.064
886.452,-32.452,-119.316
948.672,214.72,-124.928
839.36,366.244,-138.592
674.172,425.292,-121.268
679.296,544.608,-168.36
599.996,859.368,-209.108
503.128,1056.764,-309.88
559.492,1069.696,-332.572
685.396,1016.992,-277.184
674.416,976.976,-246.928
521.916,912.316,-230.336
326.716,911.34,-202.764
195.444,986.492,-226.92
229.36,966.728,-223.748
320.372,962.58,-162.016
231.312,1008.696,-98.82
99.552,1014.308,-125.66
22.692,963.556,-175.924
-1.708,993.324,-203.984
113.46,1026.264,-121.024
132.492,1057.984,-88.328
93.696,1015.772,-56.364
36.112,961.848,-30.988
15.86,889.868,-32.696
36.356,869.128,-29.28
37.576,883.768,57.34
6.832,882.792,74.176
-1.708,888.648,101.504
4.148,882.06,105.652
18.056,886.94,106.14
52.948,896.212,106.384
98.088,935.496,129.32
115.656,984.052,151.28
101.992,1012.6,164.944
51.484,998.936,126.636
6.1,976.244,115.9
7.076,958.92,115.656
44.652,1021.872,136.152
67.588,1049.444,121.756
85.156,1007.72,133.712
64.66,979.172,117.852
35.624,972.096,107.116
15.86,991.86,101.748
11.224,978.44,78.08
14.152,961.116,64.904
24.888,967.216,64.904
40.992,964.044,68.564
60.512,961.36,71.248
63.684,993.324,78.324
54.168,1004.06,73.688
32.696,1007.72,59.048
49.288,1016.992,57.34
71.98,1023.336,60.268
82.96,997.472,51.972
88.572,997.472,40.992
81.496,1004.06,35.624
71.98,1005.768,43.432
57.584,985.76,39.772
53.68,977.708,26.352
64.172,997.716,24.888
71.98,993.08,19.276
70.76,987.956,15.86
66.124,996.496,19.52
82.96,1003.084,22.692
91.988,1004.548,27.816
94.428,984.296,25.132
87.108,974.048,22.692
79.3,971.364,16.104
68.564,978.684,10.004
64.172,987.956,6.588
91.012,998.692,12.444
110.776,1004.792,23.668
106.872,1002.352,24.4
100.284,999.18,19.276
96.868,993.08,20.008
94.916,988.932,13.176
102.48,1004.304,18.544
112.484,1009.916,24.644
104.432,985.516,24.888
107.36,969.168,27.328
104.432,963.068,19.52
109.8,978.684,12.2
94.672,990.884,11.712
98.576,987.468,5.612
105.408,992.348,9.272
91.256,990.396,14.396
86.864,988.688,17.08
103.944,993.08,18.3
118.096,990.64,16.836
116.632,997.96,4.148
113.216,1021.14,-6.588
99.308,1022.604,-11.956
82.96,1005.524,-12.2
77.592,983.076,-3.904
84.424,971.12,2.684
97.356,977.952,11.712
114.192,989.908,12.444
113.46,983.564,4.148
96.868,983.564,-3.172
86.376,983.076,-2.684
84.18,981.124,-8.296
86.62,990.152,-6.832
86.62,997.472,-1.464
91.988,997.228,7.564
111.996,997.228,10.248
134.688,998.448,16.592
139.324,984.052,7.564
121.756,968.924,5.856
100.528,959.896,-1.464
88.816,967.948,-4.88
93.696,985.272,-1.708
106.628,986.98,-3.172
114.436,978.684,-11.712
111.508,989.42,-0.488
108.824,997.228,3.904
110.288,1002.352,7.076
116.876,1000.156,8.296
119.072,990.396,3.416
110.288,978.928,-0.732
110.776,976.488,1.708
121.756,976.488,2.196
124.44,976.488,-3.66
119.56,982.344,-5.612
117.364,981.856,-9.272
118.584,985.516,-8.784
116.876,985.028,-8.784
118.096,982.344,-15.86
110.776,983.564,-11.468
109.068,982.1,-15.372
115.412,981.124,-14.152
122.732,998.448,-16.104
133.712,1027.24,-3.66
144.448,1017.48,-1.708
141.276,997.472,5.612
130.784,988.2,-0.244
118.34,991.86,-7.32
116.632,975.268,-17.812
110.776,963.556,-25.132
109.068,984.296,-19.52
110.532,997.228,-21.96
112.24,994.788,-13.908
108.824,987.956,-10.492
103.212,975.512,-15.128
97.356,981.612,-22.936
103.7,995.276,-23.18
117.12,1000.4,-21.472
124.44,1001.132,-21.716
120.536,1012.844,-18.544
101.992,1010.16,-12.2
92.476,985.028,-17.08
94.428,969.168,-20.252
94.672,977.708,-19.764
103.944,976.488,-21.716
109.312,974.048,-17.08
107.36,973.316,-18.056
102.48,978.684,-25.376
107.116,993.568,-23.668
101.016,1004.304,-23.668
92.476,995.764,-27.572
95.892,988.444,-27.084
111.996,1000.156,-18.788
118.584,1001.132,-14.396
107.116,988.688,-22.204
95.16,980.636,-19.764
91.012,972.34,-22.692
92.232,966.484,-23.424
99.552,979.416,-24.156
108.58,1002.84,-16.592
110.776,997.716,-16.348
104.92,984.296,-14.396
101.504,984.54,-15.128
96.136,986.492,-18.788
91.012,987.224,-26.596
90.28,993.812,-27.328
97.112,1000.644,-20.252
104.676,1003.084,-23.424
103.944,1004.548,-21.96
107.116,1018.7,-27.084
103.7,1017.968,-36.6
100.772,1006.988,-38.552
100.284,990.152,-34.648
94.428,962.092,-32.696
96.868,945.5,-28.06
102.48,957.212,-24.888
105.652,968.924,-28.548
87.596,968.192,-32.208
78.812,982.588,-30.5
81.984,1002.596,-26.84
87.84,1005.768,-21.228
87.108,1001.864,-23.668
81.496,1003.328,-27.816
79.544,996.008,-33.184
72.956,994.788,-48.312
44.652,998.448,-64.904
20.74,1014.308,-73.932
25.62,1032.12,-54.9
59.536,1056.764,-46.848
94.428,1110.688,-30.012
96.868,1138.504,-22.204
88.328,1125.084,-28.06
78.812,1121.668,-28.304
74.664,1145.336,-30.744
86.376,1159.244,-50.752
75.152,1158.268,-48.8
49.532,1136.796,-56.364
35.38,1124.352,-61.488
41.724,1113.86,-65.392
52.46,1106.784,-56.852
63.196,1099.464,-55.144
55.388,1063.84,-46.848
65.88,1018.7,-43.676
68.32,1035.78,-45.14
55.876,1032.12,-23.912
67.832,992.836,-14.64
75.884,967.216,-23.18
45.872,951.6,-38.064
37.82,944.524,-29.524
29.768,971.608,-39.772
2.44,997.96,-40.992
8.784,1003.816,-46.604
39.284,1013.332,-47.092
50.264,1040.66,-51.484
21.472,1040.66,-53.192
-7.076,1022.36,-52.704
0.244,1038.22,-53.436
18.788,1056.764,-46.36
33.916,1030.9,-43.676
40.748,987.224,-37.088
47.824,978.44,-33.428
57.34,970.144,-29.524
92.476,977.952,-39.528
98.332,982.832,-14.152
68.564,935.74,-8.784
44.164,874.496,0.488
21.228,870.104,4.88
3.416,898.164,-3.66
-1.708,911.584,-7.564
-0.244,922.808,4.392
6.588,921.1,14.884
11.956,930.128,27.328
-13.42,931.348,27.328
-68.808,925.736,1.708
-109.312,938.668,-0.488
-109.8,936.472,4.392
-95.892,937.448,4.148
-95.892,943.548,14.152
-93.208,939.156,27.328
-90.524,936.716,24.156
-115.168,930.616,13.176
-154.452,923.296,1.464
-154.452,936.472,-0.488
-146.4,923.784,10.248
-102.236,912.804,21.228
-66.856,934.276,27.816
-89.304,948.184,39.528
-133.712,922.564,48.556
-150.548,886.208,49.044
-145.912,876.692,40.016
-153.476,886.696,31.72
-157.136,897.432,26.108
-154.94,899.872,20.252
-164.456,914.024,20.74
-171.776,922.076,20.496
-178.12,937.692,16.348
-180.072,945.744,9.272
-162.26,947.208,-2.928
-162.504,960.872,-5.856
-177.632,981.124,-16.348
-188.612,995.52,-10.004
-186.416,974.78,-7.808
-173.24,986.004,-3.416
-172.02,1007.964,3.904
-172.508,1004.06,16.104
-166.408,970.876,10.248
-172.996,949.16,3.66
-183.0,971.852,1.22
-191.052,977.708,11.224
-191.784,955.748,15.128
-186.66,938.424,11.956
-188.368,944.28,11.468
-187.148,945.5,10.736
-182.024,948.428,5.124
-188.612,953.796,7.564
-189.344,958.432,11.956
-196.664,935.496,10.004
-202.764,934.276,5.856
-207.156,974.048,-0.488
-195.932,986.492,-2.684
-190.564,973.804,-4.88
-189.588,977.952,3.416
-178.12,991.372,6.344
-178.364,999.18,11.712
-171.532,995.276,2.684
-172.996,1013.332,-13.908
-222.772,1003.084,13.664
-237.656,970.388,5.368
-214.72,960.872,8.784
-183.976,953.308,14.884
-174.704,952.576,15.128
-193.736,953.552,-3.416
-224.48,963.8,-5.124
-240.828,957.212,-4.392
-202.764,973.804,4.636
-184.22,986.248,10.98
-223.504,971.364,10.004
-249.612,935.984,11.712
-238.876,928.42,8.784
-220.82,935.008,-3.66
-235.704,950.868,-13.664
-226.92,972.096,-12.932
-209.352,977.22,3.66
-224.236,950.624,5.856
-241.804,957.212,6.832
-232.532,979.416,-0.488
-221.552,980.88,-9.028
-225.212,964.288,-6.832
-220.332,955.748,-4.148
-217.404,977.22,1.708
-238.388,972.34,3.904
-261.324,953.552,5.612
-255.712,953.552,9.516
-237.9,952.576,11.224
-233.264,937.448,16.836
-229.36,913.536,17.568
-244.0,925.492,14.396
-251.32,948.672,23.18
-231.556,935.984,20.496
-242.048,923.784,19.032
-251.076,931.592,21.716
-257.908,926.956,19.52
-247.416,904.996,16.592
-189.1,921.588,27.084
-81.496,943.548,24.644
-29.524,998.204,17.568
2.44,1074.332,-5.612
-82.716,1196.576,-12.932
-0.488,1198.772,-42.944
116.388,1068.476,-119.56
335.5,1029.68,-85.4
387.228,1042.612,44.164
416.996,1019.92,10.492
499.468,851.56,-81.252
610.488,522.648,-63.196
624.152,391.864,-37.576
722.728,373.808,-105.408
1017.48,459.696,-56.608
1256.844,567.544,-61.976
969.412,274.012,-121.268
795.196,91.012,-19.276
607.804,-49.776,58.316
524.356,-283.284,66.124
785.192,-261.324,23.18
1043.832,-123.22,-8.784
1092.632,-91.5,-81.252
1040.66,-83.448,-124.684
989.176,-72.224,-130.54
976.0,-60.024,-140.788
1009.428,-87.108,-123.464
853.268,-79.788,-88.084
666.364,-40.748,-47.336
557.784,-43.92,14.64
568.764,0.732,47.824
621.712,54.656,27.084
633.912,-5.612,-17.324
571.204,-124.196,-81.984
609.512,-205.692,-62.464
607.804,-270.84,-23.18
602.436,-320.372,-82.228
782.02,-247.904,-193.248
976.0,-218.624,-225.7
1010.648,-267.912,-169.092
915.488,-355.264,-138.104
905.484,-386.496,-147.376
1033.584,-374.784,-200.568
1191.94,-380.152,-208.376
1206.58,-485.56,-187.148
1117.032,-512.156,-149.084
1020.164,-537.288,-202.764
1090.192,-514.596,-238.876
1260.26,-445.056,-240.584
1286.368,-442.372,-227.164
1192.916,-481.168,-210.084
1134.356,-540.704,-227.896
1132.648,-539.484,-221.552
1106.052,-546.316,-233.508
1157.292,-486.048,-229.36
1182.912,-447.252,-209.108
1141.188,-462.136,-183.244
1125.328,-504.104,-188.856
1114.104,-496.784,-181.536
1052.86,-487.024,-188.368
988.932,-489.952,-174.46
1029.68,-477.264,-165.676
1126.792,-468.724,-154.208
1139.236,-481.412,-155.184
1079.456,-465.064,-162.26
1027.972,-450.668,-175.68
1020.652,-440.908,-171.288
1063.596,-412.848,-153.964
1113.616,-410.896,-152.256
1108.248,-406.26,-151.036
1057.74,-365.756,-157.868
953.552,-348.188,-143.472
796.904,-355.02,-140.056
663.192,-334.28,-145.668
720.776,-281.576,-122.976
836.432,-174.46,-79.544
850.34,-48.556,-128.588
764.696,118.584,-181.048
839.604,277.184,-216.916
887.428,440.42,-196.908
894.26,733.464,-175.68
823.988,746.64,-173.484
941.352,696.376,-231.8
1057.008,820.572,-172.752
922.076,934.764,-139.812
746.396,859.124,-153.964
605.364,782.264,-209.84
629.276,870.104,-196.908
618.54,1022.36,-125.416
530.456,1032.12,-137.86
421.876,970.632,-154.208
406.016,881.084,-181.048
501.908,1005.28,-86.132
475.312,1028.948,-96.38
340.38,1012.844,-116.876
264.008,907.68,-145.668
235.46,883.28,-162.26
263.52,890.356,-98.088
264.496,997.716,-57.096
236.924,988.444,-71.736
195.2,856.684,-85.4
190.32,844.484,-101.748
174.948,927.688,-89.548
142.74,966.484,-66.368
126.392,990.152,-42.212
133.468,969.656,-30.256
174.704,996.008,-30.256
171.532,985.272,-30.744
141.52,959.896,-48.556
94.428,973.56,-43.432
98.82,957.944,-33.916
158.844,981.124,-18.544
172.752,985.76,-19.52
151.28,943.548,-18.3
136.64,919.392,-24.156
90.036,955.016,-26.84
61.976,980.148,-28.548
108.092,967.704,-29.768
181.048,957.456,-10.492
213.012,977.952,-8.052
212.768,981.124,-31.964
172.264,982.588,-39.04
138.104,983.076,-29.28
114.68,989.176,-34.892
114.68,1017.48,-28.792
141.276,1035.292,-21.716
174.216,1017.968,-13.664
176.412,988.932,-13.42
162.748,985.516,-10.492
155.428,994.544,-23.668
145.668,982.588,-28.792
136.64,980.88,-33.672
132.004,1002.84,-33.916
112.484,1001.132,-43.676
109.068,989.42,-52.704
119.804,994.3,-44.164
120.536,971.608,-48.8
127.612,959.408,-51.972
148.84,979.416,-44.896
149.328,994.3,-43.92
124.196,981.856,-47.092
115.9,954.04,-56.852
122.0,949.892,-49.288
136.64,965.508,-47.092
145.668,986.248,-42.212
155.184,1001.864,-39.284
165.188,1003.572,-36.112
166.164,994.056,-28.06
153.232,979.416,-38.552
123.952,974.048,-48.312
131.76,975.512,-51.24
155.184,985.76,-49.044
156.404,977.464,-49.288
158.6,949.16,-49.044
175.192,956.236,-37.82
161.04,950.136,-39.528
140.3,943.06,-43.188
128.832,937.204,-47.336
138.592,951.112,-47.092
150.792,985.76,-45.14
147.864,1003.572,-50.752
152.5,1020.408,-52.216
152.012,1001.864,-63.684
161.04,980.88,-67.1
144.936,980.392,-59.536
122.0,1000.888,-62.708
113.216,1007.476,-60.512
117.608,989.176,-72.224
122.244,982.1,-77.104
136.64,983.564,-76.372
145.668,997.228,-72.712
136.152,996.008,-74.664
136.64,990.152,-78.812
134.688,993.812,-79.544
123.952,977.22,-85.4
126.148,972.828,-86.864
136.396,978.196,-83.692
139.324,993.568,-76.372
141.52,1007.476,-71.004
152.256,1001.132,-75.396
166.164,996.984,-66.124
161.772,1001.864,-73.688
135.176,990.884,-83.692
125.66,971.852,-88.816
119.804,982.588,-86.62
117.608,1008.94,-83.448
143.96,1004.06,-75.884
186.172,989.42,-69.54
182.268,980.392,-65.636
144.936,968.924,-76.86
129.32,977.708,-86.864
127.856,985.516,-89.304
139.568,970.388,-89.06
158.6,968.192,-76.86
167.628,987.224,-69.296
173.484,984.54,-68.076
165.92,985.028,-62.464
146.644,993.812,-66.856
149.328,997.228,-68.808
152.256,1008.452,-63.928
149.572,996.984,-71.98
129.076,983.564,-84.912
137.372,1008.208,-82.716
143.716,1027.728,-82.228
134.932,1015.772,-90.524
131.272,1014.796,-85.4
124.44,1023.092,-84.668
123.708,1039.196,-81.984
133.224,1052.616,-81.496
119.316,1043.832,-81.496
119.56,1051.64,-78.812
125.66,1064.328,-78.324
105.896,1051.152,-90.036
97.6,1026.752,-86.62
87.108,1015.772,-89.548
86.376,1005.036,-98.088
104.432,992.836,-92.232
113.948,994.056,-89.304
119.804,1011.136,-89.304
109.8,1019.432,-86.864
100.528,1012.112,-81.984
98.576,993.568,-81.252
104.432,995.764,-79.3
107.36,1011.38,-80.52
104.188,1009.916,-83.204
95.648,1015.04,-84.912
98.332,1039.44,-84.424
86.62,1067.988,-94.428
56.12,1049.688,-103.456
38.552,1026.508,-101.26
59.292,1029.192,-92.476
80.276,1041.148,-93.94
75.152,1046.76,-99.308
56.852,1052.372,-97.356
39.528,1027.484,-98.088
37.82,996.74,-105.164
52.216,1012.844,-104.188
54.168,1027.728,-95.404
44.652,1012.844,-98.82
26.352,980.88,-90.524
15.128,961.848,-93.696
18.056,982.832,-92.232
18.056,998.204,-91.988
-6.1,967.216,-101.504
-33.184,948.184,-106.384
-32.94,953.796,-93.94
-19.276,939.156,-90.524
-5.124,949.404,-99.308
-26.84,978.44,-107.36
-64.66,998.936,-108.58
-78.324,996.74,-110.776
-89.548,1008.94,-107.116
-105.652,989.664,-108.336
-109.8,972.828,-110.288
-102.968,975.756,-107.116
-89.304,984.052,-96.38
-76.128,996.984,-87.84
-85.156,996.74,-80.764
-110.288,986.736,-80.52
-123.464,979.416,-84.424
-130.296,968.436,-77.592
-120.048,955.748,-76.128
-107.848,983.564,-66.612
-99.308,1019.92,-46.848
-98.332,1029.68,-29.524
-116.144,991.86,-26.84
-129.564,968.68,-24.644
-120.048,983.32,-18.3
-96.868,991.128,-13.908
-85.644,993.812,-14.396
-94.672,997.96,-11.224
-120.536,992.104,-12.444
-137.616,988.2,-9.76
-129.076,985.516,-6.344
-92.476,1004.792,10.248
-82.472,1009.428,16.836
-101.016,976.488,10.004
-83.448,983.32,21.96
-108.58,955.26,22.692
-168.848,916.464,6.1
-159.576,950.136,3.172
-156.648,950.868,0.976
-157.624,939.4,-2.684
-139.568,936.472,-1.22
-127.856,930.372,2.684
-148.596,927.932,3.904
-135.176,939.156,11.224
-130.54,919.636,3.416
-110.776,928.664,6.588
-116.876,960.14,9.272
-175.192,943.792,10.736
-205.448,901.092,-1.708
-170.8,916.22,-9.76
-126.636,954.284,-7.808
-145.424,946.476,-10.004
-182.512,929.152,-11.712
-201.056,924.272,-11.956
-197.396,921.588,-14.64
-201.3,907.192,-18.788
-204.96,901.58,-18.056
-200.812,912.804,-20.74
-211.06,897.676,-14.396
-217.404,882.792,-15.128
-224.968,879.62,-12.688
-211.792,879.376,-9.516
-206.424,864.736,2.684
-206.424,848.388,3.66
-219.844,863.76,6.832
-211.548,891.82,14.64
-229.848,907.436,21.96
-243.268,908.9,13.42
-235.46,930.616,22.692
-230.58,936.228,25.62
-228.14,948.428,20.74
-224.48,967.704,26.352
-214.964,976.0,38.796
-211.06,965.264,40.016
-215.208,965.996,32.452
-208.864,983.076,30.012
-202.52,987.712,25.376
-202.032,996.008,27.816
-245.464,983.076,24.888
-270.596,955.016,16.836
-237.656,970.388,12.2
-225.944,981.856,19.52
-235.46,968.436,21.716
-238.632,953.064,33.916
-216.184,943.304,32.696
-209.84,936.472,45.872
-179.34,952.82,49.776
-104.188,990.884,35.624
-37.576,1032.12,7.808
93.94,1129.72,-13.664
144.936,1160.464,-80.764
234.972,1103.856,-69.052
375.516,1228.784,-52.704
231.068,1228.54,73.932
320.616,1038.464,26.596
443.836,789.34,-133.224
435.784,460.428,-106.14
542.656,243.512,-82.96
623.176,134.688,-64.416
624.884,275.232,-13.664
767.868,381.372,-5.856
883.524,379.42,42.212
912.804,311.344,8.296
1011.624,241.316,-19.276
953.552,172.508,-44.896
769.332,148.108,-109.312
640.5,122.244,-18.056
549.488,44.408,-7.564
417.972,-7.808,79.544
335.012,-45.872,71.004
367.708,-84.912,19.276
489.22,-104.92,-65.392
679.784,-101.748,-92.232
799.832,-128.588,-74.664
781.532,-136.396,-41.724
659.288,-170.068,-85.156
591.212,-218.868,-121.512
726.632,-293.288,-125.66
889.136,-398.452,-77.104
982.344,-456.768,-104.676
947.696,-444.324,-162.016
890.844,-399.916,-255.956
1021.628,-403.332,-286.212
1217.56,-349.164,-252.052
1263.432,-229.116,-153.72
1173.152,-248.148,-154.452
1040.66,-348.188,-223.992
1148.02,-392.84,-332.572
1410.808,-353.312,-330.132
1551.108,-269.62,-258.152
1439.112,-267.424,-275.964
1447.164,-273.28,-355.752
1590.636,-91.988,-354.532
1606.008,91.988,-287.432
1539.396,170.556,-290.848
1636.996,203.984,-345.016
1737.036,261.812,-327.204
1582.828,376.98,-277.428
1287.832,504.104,-261.08
1115.568,534.36,-299.144
1142.164,472.628,-309.88
1158.268,445.544,-249.124
1055.788,550.22,-175.436
861.564,579.988,-197.64
771.772,581.696,-215.208
980.392,828.136,-162.504
994.3,1047.004,-85.4
836.188,990.396,-105.896
645.624,758.596,-154.452
733.22,626.592,-203.008
917.196,808.616,-95.892
849.364,908.9,-70.272
630.74,713.7,-104.92
488.488,557.54,-94.428
440.176,697.596,-50.264
419.68,803.98,-47.58
313.784,843.264,-23.668
202.032,817.644,-37.82
144.204,812.52,-51.972
204.228,906.704,-30.5
217.892,978.44,-20.008
139.324,932.568,-53.68
69.54,861.564,-66.856
62.708,878.888,-55.632
124.684,905.484,-31.72
168.116,929.396,-12.444
130.296,893.284,-16.836
72.712,879.62,-42.944
11.956,908.9,-56.852
23.668,920.368,-56.608
106.14,969.656,-17.08
128.588,999.668,-21.228
83.448,965.264,-31.964
33.428,923.54,-70.516
10.492,926.224,-103.212
47.336,976.732,-97.844
89.06,1017.236,-79.788
93.208,1056.276,-41.724
81.252,1048.224,-31.232
77.104,1049.2,-28.304
65.392,1054.812,-24.644
57.828,1042.124,-26.596
62.952,1032.852,-22.204
82.228,1026.264,-16.104
89.06,1016.504,-15.372
77.836,1013.82,-30.012
80.764,1008.94,-32.208
90.524,989.908,-40.748
87.596,995.764,-60.756
97.844,987.956,-31.72
132.248,995.032,-3.172
111.02,992.592,-23.424
111.752,971.852,-2.44
136.884,958.92,-14.396
143.228,935.74,-12.2
139.324,910.364,-12.932
146.644,914.268,-14.396
152.256,951.844,-28.548
146.4,973.804,-30.988
152.744,980.636,-18.788
164.944,956.968,-15.128
180.316,933.544,1.22
186.66,953.308,6.1
178.608,965.508,4.88
185.196,979.172,12.932
197.884,993.812,14.152
176.412,972.828,5.856
154.696,962.336,6.588
138.348,955.992,1.708
139.812,952.332,-5.612
173.484,959.652,-10.492
184.22,1013.332,-15.616
130.784,1037.732,-36.112
114.68,1038.22,-13.664
166.652,1056.276,11.468
228.384,1065.304,23.668
239.364,1074.82,21.472
219.112,1051.884,23.424
192.028,1013.82,5.612
170.556,987.468,-5.124
179.828,1005.768,-19.52
181.78,1037.488,-9.028
140.3,1019.92,-0.244
143.228,1009.428,0.976
163.48,1019.188,3.172
198.372,1049.444,4.392
196.664,1046.272,7.32
172.02,1034.316,-8.54
154.208,1052.372,2.44
109.556,1039.928,-2.928
123.952,1026.508,-13.42
167.628,976.488,-30.256
181.048,951.844,-36.6
172.508,964.532,-47.336
148.108,992.836,-54.168
142.008,996.74,-52.46
151.524,996.984,-33.428
152.988,1004.792,-17.812
156.648,1006.988,-4.148
191.784,1000.888,8.296
199.836,995.276,16.348
188.612,960.384,26.108
177.388,948.672,34.404
179.828,966.728,36.6
165.188,964.532,44.652
136.884,961.604,39.528
129.076,948.672,24.156
134.444,977.952,20.252
119.804,974.78,19.276
95.892,943.06,25.132
95.648,928.908,19.764
99.552,947.208,9.516
127.856,971.364,15.128
163.968,993.08,32.696
168.36,974.78,38.552
139.324,949.16,26.352
101.504,939.888,21.716
77.836,954.284,5.612
52.948,974.78,-26.84
53.192,988.2,-60.268
71.492,1044.076,-61.488
91.5,1080.188,-32.452
118.34,1041.148,-18.544
111.752,1008.452,-7.808
100.284,995.276,-3.904
124.928,1015.04,-4.148
128.344,1011.136,4.392
98.332,985.028,11.956
84.668,971.852,11.468
100.528,992.348,16.592
88.084,994.056,25.864
67.588,979.416,15.372
69.296,969.168,28.792
95.16,967.216,31.72
92.476,959.896,31.476
54.412,965.508,24.644
44.652,967.948,25.864
32.452,950.868,21.96
36.112,934.52,18.056
74.42,970.876,17.568
74.908,1019.188,21.96
42.7,1019.676,30.988
30.256,987.956,36.112
30.012,978.684,29.28
62.708,1010.892,26.84
72.468,1017.724,26.352
63.684,1020.896,26.352
57.096,1019.432,31.232
33.184,997.716,26.596
22.204,984.784,18.056
21.716,989.908,9.028
11.956,996.496,8.296
21.228,977.708,5.856
24.888,970.144,7.564
16.592,967.704,5.612
5.368,970.876,9.272
-0.488,964.532,4.88
28.548,968.436,11.956
45.384,978.44,19.032
28.548,988.444,14.64
13.664,991.128,15.616
-1.464,983.076,14.884
-7.808,966.484,7.32
-2.196,981.612,5.856
-7.808,984.54,0.488
-1.22,987.956,0.732
1.464,986.004,3.904
-5.368,991.86,-11.712
-0.732,1029.192,-3.66
-5.856,1047.004,-0.976
-32.94,1030.656,-13.42
-59.292,1025.288,-20.008
-59.292,1038.464,-19.276
-63.196,1024.312,-18.056
-55.632,1032.364,-20.984
-76.128,1029.436,-24.644
-86.132,1019.92,-28.304
-91.744,1018.944,-21.96
-87.108,1005.768,-14.396
-88.816,994.544,-7.32
-97.844,976.732,0.244
-108.336,954.528,3.66
-108.092,937.692,-10.004
-120.292,944.036,-14.152
-112.24,965.264,-3.172
-109.556,961.604,20.252
-124.44,926.956,25.62
-136.884,915.0,36.112
-122.488,927.2,31.232
-104.676,934.032,36.844
-89.548,913.78,35.38
-96.868,911.828,52.704
-115.656,904.02,53.924
-121.756,900.116,50.752
-110.044,916.464,56.608
-96.38,918.416,66.612
-108.58,907.68,62.952
-142.74,912.072,63.928
-138.348,906.46,65.88
-100.772,930.128,77.836
-104.188,953.308,76.128
-125.904,953.308,52.948
-152.988,965.508,30.5
-133.468,1022.36,20.74
-108.824,1051.152,38.064
-128.588,1008.94,39.284
-164.7,978.196,27.328
-189.588,949.892,14.152
-185.928,956.48,5.368
-175.924,957.212,-8.296
-174.46,960.14,-9.028
-173.728,953.796,-4.636
-174.704,954.528,11.468
-175.436,959.652,15.128
-168.116,948.916,23.18
-129.808,956.236,26.84
-88.816,937.204,37.82
-6.588,902.068,36.112
142.496,855.952,-48.556
268.156,960.872,-71.492
330.62,1231.956,-99.308
336.476,1255.868,-108.092
271.084,1009.672,-112.972
361.852,1003.084,-56.12
642.452,1135.332,-120.048
758.352,966.24,-325.252
678.076,792.024,-230.58
545.096,484.584,-101.504
476.776,172.264,-135.908
672.22,82.716,-198.86
1019.432,243.512,-228.628
994.056,220.82,-129.32
824.72,-8.296,-16.104
751.032,-148.84,-32.208
670.268,-213.5,100.284
668.072,-239.608,59.292
724.436,-268.888,8.784
727.852,-248.392,-76.128
682.956,-178.852,-86.132
625.86,-147.864,-50.508
661.484,-117.364,-37.82
706.38,-104.432,-19.764
675.88,-149.328,-37.576
755.668,-266.204,-85.156
870.836,-390.888,-106.384
842.044,-383.324,-120.292
700.28,-334.768,-136.396
730.292,-367.708,-132.736
899.14,-413.824,-91.744
1022.604,-510.448,-98.576
1059.936,-628.788,-92.964
968.924,-663.68,-132.248
884.744,-640.256,-171.776
977.708,-583.404,-174.46
1165.588,-581.696,-102.236
1201.212,-619.272,-50.996
1081.408,-636.84,-62.22
983.32,-652.7,-95.16
945.5,-708.576,-98.088
1002.596,-751.764,-102.968
1061.4,-742.98,-110.288
1075.064,-681.248,-108.336
1031.144,-600.484,-115.9
1004.06,-579.012,-105.408
1050.664,-640.988,-69.54
1072.868,-679.784,-38.796
1051.396,-672.952,-83.692
1007.964,-629.032,-110.776
1024.8,-626.836,-140.544
1108.004,-645.624,-135.176
1111.42,-565.348,-130.784
1026.508,-421.388,-97.112
896.456,-294.02,-98.82
799.588,-114.68,-111.02
871.812,145.18,-107.848
999.424,303.536,-122.244
1114.592,482.876,-93.452
1103.612,626.836,-104.92
1010.648,659.288,-109.312
973.316,739.808,-112.484
982.588,934.032,-98.088
998.692,1133.136,-101.504
1007.72,1169.736,-95.648
978.44,1013.088,-102.48
854.732,815.448,-77.592
700.036,825.696,-32.696
541.68,1010.892,-42.7
423.34,961.36,-100.528
380.884,834.236,-101.748
328.912,749.812,-75.396
225.944,788.364,-69.784
124.44,817.4,-68.076
102.968,795.684,-81.74
105.652,857.66,-72.468
85.4,940.864,-62.708
77.104,911.096,-31.72
68.808,828.38,-25.376
31.964,863.272,-40.992
21.96,888.404,-35.624
71.248,921.1,-21.96
65.148,941.84,-20.984
26.108,911.584,-14.152
-32.696,888.404,-25.62
-77.348,917.44,-28.792
-54.656,955.748,-25.62
-35.868,987.468,-27.328
-53.68,936.472,-41.968
-71.736,941.596,-43.676
-105.896,1005.28,-50.996
-109.068,1003.572,-48.556
-65.148,997.96,-46.36
-43.676,976.488,-42.456
-29.036,994.788,-48.8
-50.752,1040.416,-54.168
-64.904,1030.168,-46.116
-43.432,1047.248,-35.38
-30.988,1043.588,-28.304
-37.088,1027.972,-26.596
-33.916,1011.868,-32.208
-42.212,1006.5,-35.136
-32.94,1016.26,-45.628
-18.544,1013.576,-37.088
-23.912,1001.132,-40.504
-27.816,988.688,-40.016
-17.08,1008.208,-34.892
-21.716,994.544,-36.356
-15.372,988.688,-35.38
-33.184,1003.572,-29.768
-8.052,997.716,-15.616
17.568,976.0,-17.568
12.932,975.756,-14.64
0.0,969.168,-20.984
-0.732,979.66,-20.008
-3.904,979.904,-11.956
3.172,975.512,-8.784
-0.488,965.264,-9.028
-2.928,976.244,-4.88
12.932,979.416,-9.272
8.296,992.836,-6.588
5.124,992.836,-11.468
12.688,1007.232,-9.272
7.32,1007.232,-3.904
11.712,1000.156,-1.464
16.836,995.276,-1.708
11.712,1001.376,-6.344
-0.976,1011.38,-8.784
0.244,1015.528,-9.028
2.196,1013.332,0.0
-0.488,1020.164,-5.856
-15.372,1017.48,-4.148
-20.496,1017.236,-6.344
-22.936,1008.208,-7.076
-22.204,1004.304,-9.516
-34.16,1004.548,-14.152
-35.868,1016.992,-15.372
-42.944,1024.312,-15.372
-47.336,1010.648,-20.008
-34.892,1001.864,-16.104
-26.84,1008.696,-4.636
-35.868,996.74,-0.244
-40.748,975.024,2.44
-24.888,960.872,0.976
-13.908,981.856,12.444
-10.98,999.18,18.3
-19.276,995.52,23.18
-28.304,972.34,19.276
-31.72,969.168,13.664
-32.94,971.852,9.516
-39.284,965.508,-5.612
-42.456,972.584,-3.172
-34.16,972.828,8.784
-26.596,943.548,16.836
-16.104,927.444,19.032
-13.42,932.08,7.808
-37.576,941.108,-8.052
-37.088,951.112,-18.3
-39.772,989.42,-20.74
-30.012,979.904,-14.884
-24.888,985.272,-18.3
-26.108,1003.328,-23.18
-25.62,1024.312,-26.108
-30.744,1036.512,-23.424
-60.268,1026.996,-24.644
-71.736,997.472,-25.62
-54.9,1007.964,-29.28
-29.768,1019.432,-28.548
-16.836,1015.284,-10.98
3.904,985.028,-10.98
31.72,980.88,-12.2
46.604,999.424,-9.028
61.488,996.984,-9.76
72.712,985.028,-9.76
70.028,990.152,-8.784
69.296,1026.02,-2.196
53.68,1049.2,3.66
13.908,1019.432,6.344
1.464,1001.864,15.372
7.076,998.204,30.256
42.7,976.732,36.356
45.384,939.888,17.812
22.936,918.172,2.44
33.184,931.836,-6.1
57.34,960.384,-8.296
50.264,956.968,0.732
50.264,927.444,13.42
72.956,908.656,11.712
83.692,952.332,11.224
71.248,998.448,21.228
53.436,1007.72,30.988
81.252,1007.964,39.772
119.316,1015.528,34.648
127.124,1018.456,28.548
114.192,1011.868,23.912
98.088,1017.48,15.128
88.572,1015.528,5.856
86.864,999.18,4.636
71.98,984.052,-10.736
53.436,982.344,-16.348
37.088,991.86,-24.888
24.888,967.948,-30.5
9.76,960.384,-38.796
2.44,957.944,-36.844
8.54,979.416,-26.84
15.86,1002.84,-27.816
29.768,996.496,-28.304
45.872,983.564,-33.428
44.164,994.544,-32.696
2.44,1010.16,-40.504
5.124,1000.644,-47.824
55.144,1013.576,-41.48
42.456,1029.436,-34.648
5.612,1014.064,-26.84
-2.684,1010.404,-18.3
16.592,996.984,-15.86
42.7,983.32,-10.492
13.908,980.88,-12.444
-9.028,990.152,-16.348
-7.808,989.908,-21.472
-21.716,1003.084,-24.4
-12.932,1010.404,-22.204
12.2,1028.216,-6.344
27.572,1021.872,2.928
29.28,1016.016,9.76
20.984,1002.108,20.74
32.208,953.552,17.08
36.6,1044.076,45.384
40.016,1028.46,61.244
19.764,1001.864,68.564
12.2,984.052,73.2
41.724,995.276,71.492
44.896,1013.576,68.808
30.256,1006.988,60.512
25.62,1005.28,48.068
10.492,1006.256,39.284
-4.88,991.86,28.792
14.64,986.004,29.036
44.408,986.248,27.816
49.532,979.172,22.936
37.576,989.42,18.544
23.424,981.368,14.152
16.348,959.164,14.396
15.128,956.236,8.296
14.884,953.308,7.564
12.932,949.648,6.588
14.64,951.356,6.832
31.964,963.556,-7.808
26.108,943.548,-10.004
24.644,948.916,-14.152
12.688,982.832,-17.812
1.22,1006.988,-22.204
16.104,1041.88,-21.472
22.936,1033.096,2.196
43.676,1024.312,-2.684
41.236,996.984,-8.784
25.62,979.416,-23.424
17.812,981.856,-36.6
22.448,984.784,-36.844
53.192,1029.192,-52.948
67.344,1044.32,-13.664
57.34,1044.32,8.54
23.424,1077.26,17.568
40.504,1077.992,9.76
46.116,1045.784,6.344
16.104,990.884,1.22
20.008,945.744,-12.444
-31.232,895.236,4.636
-2.44,932.08,22.692
60.024,1018.456,15.86
69.54,1011.868,-9.028
22.692,981.856,7.32
-1.22,942.084,21.472
-2.44,942.816,16.592
25.864,978.196,25.132
76.86,995.032,30.256
90.036,1000.888,42.944
93.452,935.252,53.192
102.724,921.1,65.392
132.248,986.492,81.252
128.344,1014.308,70.272
89.548,984.54,71.248
80.52,915.488,39.284
26.352,892.308,32.208
40.26,970.876,47.336
107.36,1058.472,45.628
135.42,1170.224,42.944
157.624,1163.392,71.492
49.288,913.292,-7.564
68.32,825.208,-29.28
64.904,826.672,-22.936
58.56,942.572,42.944
49.288,1010.892,64.416
92.476,1038.708,35.38
106.14,1039.44,24.4
119.804,1017.724,22.936
52.704,1024.312,36.112
76.86,1069.208,23.18
108.824,1099.22,13.176
54.168,983.808,-33.916
39.772,952.332,-53.192
18.788,965.508,-37.82
0.244,993.08,-13.42
37.82,1016.016,-4.148
56.608,1000.644,-22.204
63.44,954.284,-29.768
25.62,953.064,1.464
29.524,941.84,7.564
70.272,965.752,16.836
95.892,985.272,20.008
110.044,985.516,11.956
93.94,1063.84,31.476
101.504,1018.456,1.22
41.48,981.124,-19.032
19.032,1010.16,-20.008
11.224,1010.16,-32.208
-17.812,1010.404,-21.716
-16.836,1033.828,-14.152
26.108,1070.428,-10.98
2.196,1051.64,3.172
-10.98,1008.452,16.104
15.372,954.284,24.4
31.232,953.552,36.356
67.588,1003.084,52.216
110.776,1006.744,42.456
58.804,987.956,45.872
72.468,974.536,47.824
69.784,950.868,57.828
103.944,946.232,58.316
0.488,935.252,51.24
35.136,954.284,27.572
124.44,999.668,5.612
90.28,1042.612,17.324
107.36,1029.924,15.616
32.208,1009.916,29.28
-18.544,1005.524,56.364
43.432,976.0,18.056
58.56,995.276,-8.052
76.86,1009.184,18.056
46.848,1001.376,24.644
57.34,993.324,64.66
82.472,994.056,40.748
119.56,1049.932,15.128
197.396,1008.208,71.736
122.976,1068.72,-18.056
81.008,1030.168,-21.472
33.672,1039.684,-46.116
58.072,1084.092,-72.956
103.456,1101.416,-48.068
79.3,1070.184,-15.372
57.34,1058.472,-26.108
28.304,1063.352,-53.436
8.784,1080.188,-82.716
-13.664,1094.34,-79.544
-4.88,1074.332,-51.972
4.636,1056.032,-26.352
27.572,1062.132,-28.548
35.38,1069.452,-21.228
-8.54,1076.284,-33.916
-59.78,1057.74,-24.4
-76.86,1049.932,-16.348
-78.324,1041.636,-44.652
-48.312,1033.096,-35.868
-13.664,1063.84,-54.168
-61.732,1042.856,-37.82
-116.388,1004.548,-12.2
-147.864,979.416,-27.572
-155.184,961.116,-23.424
-131.516,961.848,-34.892
-122.732,975.512,-42.212
-102.236,975.024,-24.644
-109.068,969.168,-13.42
-121.512,966.24,-31.476
-106.14,966.728,-38.796
-107.36,935.74,-25.62
-91.744,946.476,-25.376
-74.176,975.756,-6.1
-78.568,983.808,-14.64
-98.82,986.004,-30.012
-119.316,958.432,7.808
-108.336,944.28,7.076
-99.064,956.236,2.196
-63.928,974.78,-15.616
-50.996,964.044,15.372
-101.504,918.172,47.58
-142.984,865.224,76.128
-160.064,864.004,63.44
-177.144,866.444,33.672
-183.976,857.172,30.988
-198.128,829.112,57.584
-200.08,825.94,15.86
-184.708,843.996,-3.172
-202.032,860.344,-20.496
-262.3,832.528,2.196
-293.532,863.272,14.152
-260.592,881.084,-17.08
-262.544,885.476,-0.732
-258.884,875.96,-8.052
-253.516,889.868,-23.424
-272.548,887.672,-4.636
-260.592,902.312,-29.524
-260.836,921.832,-42.212
-274.012,924.516,-48.556
-293.288,910.12,-25.62
-305.244,916.708,-36.844
-314.76,939.888,-61.732
-370.88,940.62,-61.0
-382.104,939.156,-38.552
-392.596,926.956,-14.884
-323.544,975.268,-77.104
-187.392,1040.904,-92.476
-159.088,977.22,-45.14
-135.42,1065.06,-61.0
-167.14,1148.264,-58.804
-84.424,1152.9,-199.348
-33.672,1123.376,-316.468
41.236,1085.312,-192.028
3.66,859.368,-39.772
487.756,720.776,-95.404
1337.364,685.64,13.42
1677.012,433.344,197.884
639.768,302.804,126.392
97.844,315.736,343.308
488.976,12.444,303.78
649.772,71.248,187.148
825.452,-15.616,313.54
930.372,-54.412,372.588
876.692,13.42,331.108
816.18,61.732,244.488
779.092,44.896,232.044
732.732,47.336,256.932
678.32,33.184,236.192
586.332,36.844,212.28
505.08,38.308,216.184
496.54,43.188,236.192
524.6,18.544,203.984
617.076,6.588,150.548
594.628,-99.552,122.488
611.22,-125.416,123.708
693.448,-124.684,122.488
806.176,-209.84,149.328
843.264,-272.548,71.004
896.212,-345.992,35.624
833.016,-374.052,81.984
905.728,-440.908,128.832
1094.828,-480.68,103.944
1130.208,-511.424,16.348
1036.268,-589.26,34.648
986.004,-648.796,61.244
987.224,-674.66,112.728
1036.024,-669.78,31.476
1173.152,-655.872,-66.856
1187.06,-632.692,-87.108
1137.04,-607.072,-94.428
1048.712,-605.12,-19.032
966.24,-608.292,-47.092
1079.7,-634.4,-78.324
1151.924,-641.232,-76.372
1144.116,-623.908,-95.16
1142.164,-651.724,-74.664
1168.516,-662.948,-64.416
1073.6,-689.3,-87.352
1081.408,-641.72,-89.06
1139.236,-595.36,-101.992
1147.532,-578.036,-76.86
1182.424,-616.832,-32.94
1078.724,-620.98,-81.74
1068.964,-596.092,-91.744
1003.328,-577.792,-148.596
1080.676,-518.988,-106.14
1147.044,-483.852,-102.48
1180.96,-498.248,-48.8
1143.628,-512.644,9.272
993.812,-532.408,9.76
916.952,-526.552,44.896
942.328,-399.916,49.532
921.344,-310.856,13.664
986.736,-136.152,26.352
1098.488,-20.74,16.348
924.028,15.86,30.256
798.124,153.964,19.276
734.196,274.012,-35.624
740.54,364.292,-25.62
817.156,514.84,-63.44
860.1,705.648,-55.388
712.724,827.892,-67.588
590.724,908.168,-54.9
496.052,956.968,-35.136
416.996,1014.796,-60.512
321.836,1002.596,-88.084
269.376,1033.34,-41.724
274.5,1091.656,-1.708
168.36,1104.588,-7.564
81.74,1151.924,-25.132
115.168,1075.308,2.684
161.528,954.528,43.92
160.552,1020.408,53.436
165.676,1036.756,49.532
113.948,968.192,31.72
53.68,916.952,41.236
43.188,861.32,60.024
86.132,877.668,65.636
77.592,902.312,59.78
7.808,907.924,46.604
17.812,935.74,69.052
38.308,994.056,89.06
19.764,982.344,58.316
17.568,990.396,35.624
11.468,1018.456,47.092
-7.076,1005.524,40.016
0.0,996.74,45.384
13.176,1005.036,37.82
7.076,998.936,31.72
-12.932,1014.796,20.008
-27.328,1000.888,12.2
-9.028,997.96,22.936
21.96,1014.552,41.48
38.064,995.764,48.312
43.676,977.22,55.632
48.312,972.34,61.0
37.088,995.764,51.484
17.812,979.66,54.168
30.744,946.476,61.244
40.748,958.432,62.22
49.288,958.188,59.048
52.46,995.276,62.22
32.94,987.468,49.288
19.032,979.172,50.264
25.376,970.144,48.8
37.576,988.2,52.948
53.436,989.664,50.02
65.392,1004.06,50.264
64.904,1002.596,49.288
38.308,1020.408,48.556
48.8,988.2,50.752
59.048,1004.304,54.9
62.22,996.008,53.436
72.224,982.344,53.192
71.248,1017.236,52.46
61.488,1018.944,48.8
77.592,1003.816,57.584
71.736,1013.576,53.436
58.316,1025.044,45.384
69.052,1011.38,48.8
87.596,1011.38,57.828
82.228,1029.436,62.952
73.444,1017.968,61.976
93.208,998.692,69.784
102.236,994.544,79.788
100.528,968.192,77.836
85.4,964.044,69.784
91.988,960.384,76.86
95.16,986.492,82.716
82.228,996.252,73.932
79.544,985.028,75.396
60.512,963.556,61.244
57.828,963.312,61.488
66.856,980.148,67.588
80.764,974.292,72.712
87.108,955.016,70.028
78.324,953.064,60.024
76.86,977.464,64.416
72.224,984.296,63.928
75.64,975.756,61.732
93.94,974.292,67.588
87.84,1001.62,63.44
66.612,1024.312,67.832
56.364,1010.404,64.172
63.684,1003.816,66.856
58.56,1007.72,63.684
50.996,1004.06,62.464
47.58,1005.036,57.34
52.704,1020.896,55.876
43.188,1035.536,51.972
30.988,1044.564,56.608
35.868,1080.92,74.908
33.672,1107.272,76.128
22.692,1078.48,68.076
30.5,1051.396,66.612
43.676,1062.864,67.1
35.38,1083.116,67.832
16.348,1080.432,57.828
3.66,1071.404,51.728
-19.032,1077.504,51.24
-41.724,1093.364,45.14
-24.4,1107.028,51.24
-0.244,1109.468,57.096
1.22,1131.428,57.096
0.976,1150.704,56.364
-24.4,1125.816,50.508
-30.012,1101.66,47.092
3.904,1113.372,61.976
27.328,1110.932,68.076
28.304,1072.136,72.712
30.256,1048.468,87.108
39.528,1029.924,93.208
30.012,994.544,82.228
36.844,962.58,76.86
70.76,961.604,74.42
89.06,991.86,97.112
56.852,995.764,74.908
46.116,983.32,78.08
4.392,947.94,67.832
-20.252,933.788,48.8
19.764,944.768,63.196
70.028,930.372,82.228
84.668,926.468,79.788
66.612,975.024,67.832
25.132,990.884,55.388
-16.348,968.924,44.164
-11.468,964.044,50.996
6.1,962.336,41.724
-17.568,979.904,37.82
-20.74,970.144,32.696
0.0,986.98,34.16
-8.296,1011.38,21.472
-24.156,1021.628,12.932
-38.796,1015.284,14.396
-50.752,980.88,17.568
-15.616,986.736,27.328
2.684,991.372,30.012
-20.252,956.968,19.032
-29.28,940.132,24.156
1.708,991.372,36.6
22.204,1016.016,36.6
-9.76,986.004,39.772
-49.044,945.256,36.356
-57.34,933.788,25.864
-51.484,937.936,23.912
-27.328,950.136,27.816
-12.688,939.888,38.796
-13.176,932.324,41.724
-56.364,923.296,33.916
-94.184,897.676,24.156
-75.152,894.504,34.16
-41.968,924.028,38.308
-40.504,920.124,35.136
-66.368,891.088,23.912
-99.552,853.512,10.492
-128.344,841.068,6.832
-104.92,860.832,20.008
-82.716,842.776,27.572
-76.86,852.78,45.628
-82.96,851.072,53.192
-105.164,852.048,50.02
-120.292,870.836,41.236
-136.884,910.12,38.552
-143.716,963.556,33.916
-122.732,986.98,50.752
-105.408,985.272,59.536
-89.792,999.912,57.828
-104.432,1006.5,50.508
-110.532,1002.352,44.408
-99.308,996.74,40.992
-91.988,1013.82,39.284
-90.524,1027.972,38.552
-94.428,1009.428,30.012
-118.584,1007.964,39.04
-132.98,981.856,43.188
-132.736,956.968,37.088
-129.808,951.6,24.4
-146.644,964.776,18.3
-154.452,961.116,20.252
-167.628,951.112,22.448
-182.024,957.212,13.664
-171.776,965.752,20.74
-163.724,948.916,24.156
-177.632,930.616,24.888
-170.312,918.66,28.06
-153.964,922.564,40.992
-167.384,913.048,30.744
-172.264,930.128,19.764
-190.076,932.324,18.788
-188.368,936.716,22.692
-140.3,994.3,11.712
-146.156,1022.116,-4.148
-177.144,991.616,-15.128
-189.588,977.952,-24.4
-197.396,996.008,-37.088
-191.052,1000.4,-36.356
-180.804,998.936,-25.62
-158.356,976.244,-26.84
-121.512,917.684,1.22
9.76,817.644,-59.536
182.268,1045.052,-109.556
166.408,1311.988,-96.868
-39.528,1307.84,-169.58
-41.968,1077.26,-257.42
295.728,884.012,-225.7
511.18,854.732,-85.156
682.712,960.628,-213.256
848.388,985.028,-323.3
916.708,590.968,-203.496
804.712,157.868,50.508
559.492,-21.472,97.356
870.104,100.772,-115.656
918.416,141.764,-161.772
787.388,39.04,-40.016
830.82,-45.628,130.296
969.412,-59.78,163.48
1051.396,-20.252,53.924
1049.444,36.112,-16.348
1067.5,24.4,-41.724
1042.368,-59.048,4.636
920.612,-183.244,44.164
907.924,-199.836,66.856
915.244,-118.34,49.044
866.932,-45.14,48.8
844.972,-18.544,56.12
762.5,-6.344,71.248
667.828,-20.252,59.78
635.376,-28.06,46.848
684.908,-39.772,30.988
774.212,-71.004,51.728
698.084,-39.04,66.856
527.04,9.272,57.828
448.96,-2.928,14.64
598.288,-57.584,26.596
802.76,-137.372,51.484
884.256,-230.58,49.532
849.608,-247.66,28.06
754.448,-301.096,8.784
801.296,-316.712,-7.564
884.5,-310.124,3.66
938.18,-383.08,14.396
1006.256,-492.392,50.996
961.36,-597.556,24.888
993.568,-619.028,2.928
1109.712,-522.404,-20.984
1115.568,-437.98,-73.932
1140.7,-439.932,-76.372
1228.54,-457.988,-57.096
1269.532,-467.748,-52.216
1195.112,-456.524,-77.348
1133.868,-417.728,-109.556
1106.54,-403.332,-119.804
1149.728,-433.344,-78.324
1208.044,-513.132,-59.78
1241.716,-551.44,-53.924
1165.1,-561.2,-73.688
1051.396,-536.068,-96.38
987.224,-518.5,-94.916
1017.724,-475.8,-76.616
1103.612,-433.344,-75.396
1157.78,-374.052,-75.884
1141.92,-344.772,-101.992
1128.012,-351.604,-111.02
1166.32,-348.188,-107.116
1200.968,-309.636,-104.92
1191.696,-240.828,-116.632
1146.8,-197.152,-132.248
1094.828,-157.38,-142.008
1064.084,-104.676,-165.188
1047.248,-77.592,-158.6
1019.432,6.832,-136.152
983.076,121.268,-69.296
949.648,190.564,-44.896
926.468,325.008,-31.72
886.452,476.776,-92.232
821.792,628.544,-119.316
810.08,813.984,-105.896
798.368,922.076,-123.22
809.592,946.232,-69.784
746.152,948.184,-61.976
667.34,951.6,-113.216
608.292,1094.828,-104.188
434.32,1221.22,-172.508
389.912,1105.808,-110.532
348.676,976.732,-52.948
282.796,887.184,-40.26
248.148,950.136,-60.268
204.228,1053.348,-118.828
206.424,1026.02,-71.98
197.884,928.176,-50.264
184.22,912.56,-62.22
155.184,924.76,-69.784
162.504,947.208,-41.236
168.848,972.828,-29.524
162.26,980.636,-25.864
154.208,1007.232,-18.3
128.1,984.052,-26.108
98.088,964.288,-21.472
82.472,939.4,-34.404
95.648,957.944,-44.896
103.7,997.716,-41.724
110.288,969.168,-23.424
99.064,933.544,-21.96
71.248,930.616,-33.672
58.316,926.956,-46.36
60.512,947.94,-46.36
79.544,1002.596,-40.992
114.192,1005.768,2.196
98.576,968.68,6.832
77.348,960.14,0.244
73.688,940.62,-12.688
55.876,931.836,-18.3
90.768,932.568,-9.028
127.856,963.312,27.084
121.512,965.752,32.208
92.476,979.416,24.4
84.668,986.004,17.812
97.6,979.66,18.3
115.168,973.316,28.792
117.852,972.828,30.012
111.752,988.688,37.576
105.652,995.764,39.284
101.016,987.224,41.724
95.404,980.636,36.844
85.156,971.12,30.256
85.156,992.104,21.472
91.5,1006.988,33.916
88.084,965.996,34.16
95.648,990.396,20.984
94.428,997.96,29.768
95.16,995.764,29.524
101.504,1029.924,30.256
99.796,1013.088,31.72
94.428,987.224,29.768
98.332,987.468,27.816
100.284,1004.304,24.4
95.16,1010.404,17.324
86.62,1023.58,19.032
90.036,1009.428,24.4
90.036,991.372,22.448
92.72,989.908,18.544
89.548,986.492,25.62
85.888,961.604,34.404
90.036,953.308,37.576
93.452,959.652,37.576
85.156,972.584,34.404
79.3,997.228,27.328
81.496,995.52,30.5
91.012,995.52,39.284
87.352,1002.596,39.772
79.544,992.104,30.5
68.32,1001.132,27.084
71.736,1028.948,30.988
82.228,1026.02,37.82
87.108,1035.536,35.868
75.884,1070.428,30.5
72.224,1065.06,31.72
76.372,1053.592,32.94
85.156,1061.888,30.012
74.42,1049.2,29.036
77.592,1030.412,25.62
93.452,1036.756,28.548
75.396,1070.916,22.936
21.228,1107.028,4.636
13.42,1098.0,0.976
40.26,1086.044,8.296
61.0,1092.388,18.788
75.152,1091.168,14.884
86.376,1067.988,25.132
98.82,1034.804,30.256
109.556,1037.488,44.164
134.2,1074.088,63.928
152.988,1087.02,79.788
155.672,1034.072,97.356
157.868,959.896,115.168
136.396,920.612,112.728
100.772,923.54,90.768
77.104,985.272,70.516
72.956,1055.056,57.096
77.836,1092.144,72.712
118.096,1105.808,93.452
133.712,1100.684,97.356
97.844,1053.592,74.908
94.672,1050.42,58.56
129.808,1063.84,60.512
165.676,1067.744,62.464
182.268,1078.724,63.44
168.848,1074.576,69.052
130.784,1037.732,55.144
103.944,996.74,41.724
109.312,991.86,40.26
144.692,1034.56,37.576
135.664,1030.656,41.236
105.164,986.248,30.256
90.036,958.432,10.98
71.248,977.22,-30.012
24.156,1040.904,-58.56
24.4,1075.064,-59.048
86.864,1101.416,-12.688
135.42,1068.232,40.016
125.904,1031.876,45.628
58.56,1023.58,23.18
-3.66,1029.924,2.44
-33.916,1005.036,-7.32
-58.56,974.048,-6.832
-37.332,966.972,11.224
-12.932,977.22,29.524
-35.624,954.528,16.592
-74.908,931.348,-11.224
-70.272,947.94,-24.4
-38.064,976.976,-3.66
-19.276,970.388,8.296
-20.984,975.756,10.98
-47.092,972.584,17.324
-47.58,978.196,9.272
-46.848,991.86,9.516
-43.676,958.432,16.104
-47.336,905.24,38.064
-54.412,903.532,40.26
-67.588,893.528,38.552
-95.404,849.364,40.016
-130.784,823.744,39.04
-127.124,820.084,38.552
-132.004,800.564,37.088
-155.428,785.192,25.62
-169.824,802.516,30.5
-172.752,824.476,40.26
-193.98,816.18,36.356
-210.572,813.984,28.792
-198.86,830.82,37.576
-197.396,842.532,34.16
-205.448,843.264,40.504
-208.864,843.752,40.992
-229.36,881.572,22.692
-264.496,934.764,27.328
-268.644,937.448,25.376
-277.428,915.976,27.328
-264.008,924.028,44.896
-205.936,947.94,66.124
-183.488,927.932,64.416
-204.472,920.124,54.168
-221.796,939.644,47.824
-251.076,933.788,30.012
-285.236,941.108,21.716
-276.696,939.644,39.772
-253.76,916.464,43.676
-225.456,928.908,31.232
-207.156,974.048,29.28
-208.376,982.1,52.216
-226.676,946.72,53.68
-240.828,940.62,59.048
-237.168,941.596,59.048
-249.368,915.244,30.012
-262.788,939.4,33.672
-278.16,968.924,37.82
-284.504,952.82,44.896
-289.628,935.008,49.288
-289.384,939.888,46.36
-273.036,955.504,44.164
-267.18,968.436,37.332
-253.272,976.976,18.3
-277.184,966.484,59.292
-267.668,914.756,42.944
-282.796,911.584,30.012
-236.924,960.384,25.132
-149.816,985.76,27.572
-71.004,961.36,45.628
12.932,912.56,38.308
115.412,1012.844,-9.516
133.224,1232.932,15.372
84.18,1359.324,-53.192
95.648,1323.7,-86.132
284.26,1178.032,-54.168
359.656,967.216,-60.512
299.388,754.692,-27.816
643.428,629.032,-25.62
817.156,441.152,7.076
869.616,221.552,52.704
965.996,117.852,117.852
935.496,160.796,42.456
879.132,256.688,10.98
880.108,318.176,5.612
852.292,323.544,-5.856
852.048,237.9,27.816
887.428,165.676,32.208
849.364,99.064,18.056
802.028,85.4,25.864
824.476,124.44,5.612
865.956,177.876,-5.368
829.844,145.668,13.664
740.052,162.016,31.72
597.8,145.18,7.808
599.752,97.844,-0.732
684.176,22.936,24.888
728.584,-25.864,60.268
671.244,-22.936,47.58
591.944,-11.712,0.0
697.84,-18.056,-37.82
911.34,-91.5,-20.008
966.484,-255.956,76.128
975.024,-289.14,96.624
1002.108,-232.532,33.672
1039.684,-134.2,-30.012
1063.596,-61.732,-30.5
1122.156,-102.236,-4.636
1120.204,-164.7,-32.696
1052.616,-186.904,-65.392
1029.68,-157.624,-56.608
1073.6,-149.572,-11.468
1048.224,-201.544,25.376
977.708,-266.692,19.032
979.416,-305.244,-23.912
1020.652,-331.596,-46.116
1083.848,-399.916,-35.868
1140.944,-449.692,-5.368
1077.016,-454.816,-0.488
1005.28,-423.828,-10.492
952.576,-446.764,-25.62
1007.72,-461.648,-13.664
1196.576,-488.244,32.452
1259.772,-509.96,25.62
1119.228,-515.328,-29.524
1071.892,-448.228,-51.484
1082.872,-394.792,-42.7
1094.34,-380.152,-16.592
1155.584,-416.996,3.416
1213.412,-453.84,13.664
1211.216,-470.432,5.612
1185.108,-465.064,-6.1
1154.364,-432.124,-15.372
1114.104,-393.328,-19.764
1115.324,-379.42,-26.108
1192.184,-381.616,-8.052
1246.352,-342.576,-18.3
1203.652,-306.708,-31.964
1122.156,-298.9,-22.204
1030.168,-285.968,-6.344
946.964,-301.096,0.732
895.724,-332.572,21.96
882.06,-335.744,33.672
865.468,-268.4,22.936
926.224,-213.744,40.016
993.324,-92.72,29.036
974.536,-5.612,23.424
928.908,81.74,8.54
885.476,165.432,-5.612
923.052,263.764,-17.568
1039.44,403.576,-28.304
1090.68,521.428,-5.856
1042.612,575.84,5.368
957.456,593.408,2.196
890.112,616.1,4.88
908.9,705.404,-17.08
920.856,841.312,11.956
850.584,868.152,-11.468
763.72,835.456,15.616
648.308,830.088,8.784
539.24,820.328,-21.472
484.584,931.104,-29.036
418.216,982.588,-61.244
376.004,925.004,-62.708
357.216,883.524,-46.116
347.7,933.788,-30.744
325.74,1018.456,-34.648
284.748,1022.116,-45.628
233.264,933.544,-57.096
195.688,930.86,-34.892
167.872,937.936,-43.432
139.812,944.28,-45.384
157.136,987.712,-36.112
136.884,1035.048,-44.164
90.28,981.124,-50.996
58.804,920.124,-50.996
42.212,897.92,-51.728
36.112,926.224,-56.852
54.9,974.292,-56.364
70.028,1007.476,-50.02
43.676,982.588,-45.628
39.04,948.184,-51.972
45.384,971.364,-58.072
45.384,992.836,-64.416
30.256,1018.212,-68.32
30.256,1012.112,-54.656
59.536,1020.408,-42.944
77.592,1043.1,-40.26
78.08,1038.22,-38.308
76.372,1016.504,-45.628
48.8,981.612,-44.408
55.632,950.624,-37.332
60.512,926.956,-26.108
83.204,891.82,-17.08
94.672,917.684,-18.544
100.284,926.712,-22.936
112.728,977.708,-17.812
105.408,997.96,-26.596
109.068,998.692,-20.74
97.356,1010.892,-17.812
95.404,994.544,-13.42
100.772,984.54,-16.836
119.316,998.204,-13.176
120.048,1011.136,-21.228
109.068,992.104,-13.176
101.504,974.292,-9.76
97.6,950.38,-10.736
105.652,947.94,-8.784
103.212,963.8,-18.788
100.04,974.292,-22.448
102.968,984.784,-19.52
104.92,981.368,-19.52
103.456,996.252,-17.08
100.04,1008.94,-21.716
104.676,1003.328,-18.544
104.676,1016.992,-27.084
98.82,998.692,-28.548
105.896,988.2,-24.4
114.68,1002.108,-22.204
118.828,1009.672,-17.08
123.708,1011.624,-10.004
121.024,992.348,-9.272
113.704,983.808,-17.08
103.944,995.52,-22.936
110.044,1011.38,-22.692
106.384,1024.312,-19.764
97.112,1006.256,-16.104
91.256,1003.572,-21.716
81.252,1015.772,-26.108
90.28,1015.04,-21.716
96.868,1016.748,-20.496
107.848,1008.94,-13.42
107.36,1016.504,-14.64
107.116,1023.58,-15.128
101.016,1022.604,-18.3
92.72,1014.308,-16.104
96.136,1015.528,-20.984
93.452,1024.556,-17.08
94.184,1022.36,-13.42
84.668,1007.72,-16.348
78.08,1005.768,-17.08
66.124,1000.888,-20.496
65.88,1001.376,-23.424
62.708,1009.916,-28.304
56.852,1016.748,-26.84
55.388,1021.628,-24.644
51.24,1013.332,-26.352
50.264,1002.84,-21.96
49.288,1011.868,-20.496
50.752,1034.072,-19.032
49.532,1030.656,-20.252
44.164,1010.404,-22.448
37.332,1012.844,-23.18
27.328,1024.556,-22.936
27.572,1001.62,-19.032
27.572,987.224,-19.276
28.548,1006.012,-20.74
32.452,1026.02,-18.788
29.036,1020.652,-10.248
28.06,1026.02,-12.444
33.428,1044.564,-14.152
13.664,1040.172,-5.368
-21.472,1020.408,-24.888
-15.616,1041.636,-33.428
39.528,1085.068,-23.18
80.52,1093.12,-5.368
85.156,1072.136,0.732
75.396,1060.668,9.516
33.916,1036.512,-10.492
20.984,1017.968,-27.572
50.508,1030.412,-10.492
92.964,1047.248,-7.564
94.672,1058.228,-2.684
74.664,1041.88,-21.716
69.54,1025.532,-22.692
70.028,1017.48,-10.736
77.592,995.032,-10.98
84.668,985.272,-1.464
82.96,978.684,-5.124
71.98,987.468,-18.3
58.56,1006.012,-31.964
57.096,1000.644,-22.448
67.832,967.948,-13.42
74.176,953.552,-10.248
67.1,961.604,-11.956
44.164,965.752,-13.42
32.94,969.412,-7.564
35.868,980.148,-2.196
26.108,968.436,-6.832
29.768,986.98,-7.32
44.652,1026.264,-2.44
27.084,1010.648,1.952
15.372,1003.816,0.732
-0.732,1011.624,-1.22
10.248,1037.732,-0.488
26.84,1069.696,-11.712
10.248,1044.32,0.244
-12.2,1001.376,1.708
-6.588,990.64,7.32
27.816,985.76,0.244
41.968,1016.016,-8.54
19.276,1016.748,-17.324
-21.472,1004.792,-16.592
-32.208,998.692,-14.884
-18.3,993.324,-7.808
-4.88,1009.916,4.636
-0.244,978.684,19.276
10.98,965.02,16.348
10.004,957.7,12.2
28.548,968.436,27.572
36.844,974.292,33.184
12.444,946.476,35.38
-4.88,934.276,32.208
-4.392,942.816,22.204
-32.208,953.064,3.904
-47.092,973.072,-9.272
-46.36,976.732,-16.348
-39.528,977.22,-13.176
-36.844,972.584,-10.736
-61.732,947.696,-19.764
-90.28,928.176,-34.16
-118.34,916.22,-44.164
-125.172,911.584,-42.944
-111.264,898.164,-33.428
-101.016,867.664,-24.156
-99.552,860.1,-20.496
-105.408,866.932,-21.472
-98.088,894.016,-23.18
-103.212,910.364,-27.084
-152.988,929.396,-47.092
-164.456,959.652,-52.704
-173.24,968.436,-49.532
-133.468,980.88,-40.26
-109.8,989.908,-29.524
-137.128,975.512,-31.232
-136.884,973.316,-31.964
-114.192,983.564,-19.764
-106.384,984.296,-11.956
-98.088,972.34,-2.684
-94.184,967.704,0.244
-115.9,957.7,-3.904
-162.016,937.448,-16.836
-172.996,943.304,-20.008
-147.62,955.26,-15.128
-125.904,972.584,-10.736
-136.396,970.144,-5.124
-143.716,954.772,-5.124
-142.496,946.72,-12.932
-154.208,951.356,-13.908
-150.792,950.38,-5.368
-136.152,939.156,-6.1
-133.712,939.156,-17.08
-154.696,960.384,-28.304
-181.536,982.344,-31.232
-198.372,948.916,-20.252
-192.272,906.704,-11.956
-157.38,904.02,-7.32
-133.712,935.252,-1.708
-141.276,918.66,-0.244
-160.064,907.924,-0.732
-157.136,915.0,2.928
-144.448,938.668,2.196
-135.176,946.964,8.296
-128.344,941.84,11.224
-124.928,945.012,12.444
-139.568,954.04,5.368
-136.884,975.512,-0.976
-133.712,983.076,-5.612
-142.008,997.472,-12.932
-147.132,1002.108,-23.668
-145.18,1014.064,-28.304
-136.396,1013.82,-19.032
-139.812,1000.644,-18.3
-149.816,1000.644,-19.032
-143.228,1003.572,-13.42
-137.616,982.832,-1.464
-138.348,963.8,3.416
-148.84,956.48,7.808
-154.696,950.868,3.904
-145.912,951.112,0.976
-152.012,955.26,-14.64
-155.916,984.54,-19.276
-141.276,995.276,-14.396
-137.86,985.028,-12.2
-136.152,987.468,-8.296
-135.42,988.688,-3.172
-143.96,967.704,0.244
-150.304,955.016,-3.904
-141.52,964.532,0.976
-138.592,958.188,6.1
-138.104,956.236,0.244
-142.984,982.588,-5.124
-132.004,1002.596,-5.368
-130.052,1004.548,-8.54
-123.708,999.668,-5.368
-123.22,987.712,-6.588
-124.196,985.516,-5.856
-123.708,981.612,-7.32
-128.1,976.976,-7.564
-131.028,966.484,-7.076
-138.104,977.464,-9.272
-148.596,969.9,-16.104
-146.644,974.048,-20.74
-131.028,976.488,-15.128
-127.856,978.928,-15.128
-138.592,966.728,-10.004
-150.06,954.528,-7.808
-135.42,969.9,0.488
-128.832,973.804,3.66
-153.232,968.192,-2.44
-161.04,968.924,-9.516
-150.792,984.052,-16.104
-134.932,991.86,-15.372
-122.488,988.444,-9.272
-114.192,983.076,-9.272
-108.824,988.2,-4.392
-108.824,991.372,-3.904
-119.56,980.148,-7.076
-122.244,978.684,-10.98
-108.092,986.736,-9.028
-94.916,991.372,-9.028
-113.948,989.176,-13.908
-140.788,993.08,-18.3
-141.764,993.08,-17.08
-123.464,973.804,-11.468
-125.172,968.68,-15.128
-138.836,976.976,-21.472
-143.472,971.12,-17.324
-133.224,961.116,-15.616
-113.704,967.704,-16.104
-115.9,986.004,-21.228
-137.372,990.64,-28.06
-140.544,983.076,-27.572
-133.956,986.004,-19.764
-132.492,986.004,-18.544
-134.444,983.076,-18.056
-130.052,983.32,-20.984
-138.104,982.832,-19.276
-142.74,980.636,-21.472
-130.052,979.904,-19.764
-114.436,979.904,-18.3
-114.436,977.952,-18.788
-121.756,982.588,-22.936
-125.416,979.66,-25.62
-122.488,978.928,-20.74
-124.684,979.172,-16.592
-133.956,968.192,-20.252
-143.228,968.192,-23.912
-144.448,973.316,-15.616
-153.232,967.948,-18.788
-175.436,959.652,-24.644
-182.268,973.56,-30.5
-148.352,990.152,-21.472
-117.12,981.856,-14.396
-114.436,980.148,-19.276
-128.588,989.664,-24.644
-129.32,984.052,-25.62
-115.412,983.808,-28.548
-105.896,983.808,-25.62
-111.264,981.856,-21.716
-126.148,983.564,-18.544
-135.908,976.976,-18.056
-129.808,991.128,-14.396
-122.244,979.172,-8.54
-129.564,983.808,-5.124
-106.384,989.664,-13.42
-66.124,997.228,-5.612
-14.884,993.568,-2.928
75.152,993.324,-3.66
174.46,1018.456,-6.832
209.596,1103.856,-53.192
267.18,1153.876,-104.92
301.096,1259.528,-108.336
321.348,1345.66,-161.528
329.156,1150.948,-124.928
347.944,913.048,-173.24
486.536,769.332,-99.064
856.44,699.06,12.932
1008.208,496.784,72.956
783.728,150.548,106.628
497.76,89.792,38.308
417.484,241.072,46.116
675.148,157.38,140.056
938.668,49.044,193.248
1045.052,30.012,139.08
1083.604,71.492,80.032
952.088,38.796,58.804
864.492,6.588,53.924
843.752,-72.224,107.36
782.752,-86.864,142.496
718.092,-17.324,145.912
661.972,21.716,126.636
584.868,-20.496,127.368
449.692,-39.04,128.1
359.656,-28.548,122.488
318.664,-30.5,136.396
165.676,-88.328,142.74
83.936,-153.232,143.472
101.016,-168.36,86.376
385.52,-201.544,-8.54
696.62,-285.968,-37.088
724.68,-434.076,5.124
650.504,-529.48,-1.952
905.24,-514.596,-57.828
1254.648,-480.68,-109.556
1471.808,-481.168,-94.672
1386.896,-612.196,-48.556
1234.884,-777.14,2.684
1139.236,-912.316,10.736
1274.168,-888.404,-4.88
1388.604,-722.728,-13.42
1301.74,-631.716,-39.528
1242.204,-640.744,-35.38
1335.656,-679.784,-0.488
1317.6,-678.076,-7.32
1256.6,-627.324,-25.864
1232.688,-524.844,-65.636
1204.384,-378.444,-100.284
1138.016,-327.204,-95.648
1214.388,-402.844,-50.02
1282.22,-451.644,-17.812
1135.332,-416.264,-48.068
952.576,-352.58,-82.228
940.62,-219.6,-80.764
997.228,-57.34,-73.444
1060.424,142.984,-78.568
1122.644,178.852,-55.632
1191.696,37.82,36.844
1098.488,158.6,37.82
930.616,402.112,-6.832
717.36,661.484,-9.76
542.168,812.52,-50.508
640.256,849.852,-88.572
820.084,960.628,30.988
798.612,1022.848,77.592
623.42,1110.2,92.964
494.344,1157.536,40.748
459.452,1111.176,57.828
479.46,1176.568,133.224
453.108,1209.02,161.04
329.644,1144.116,103.944
233.264,1044.808,80.276
178.364,992.592,45.14
169.824,1037.488,70.76
153.476,1080.92,84.668
126.392,1058.716,68.808
119.56,975.756,62.952
127.612,933.788,63.44
123.22,948.672,78.812
114.436,947.452,78.324
102.48,929.396,77.348
150.548,884.5,82.228
200.812,857.66,99.796
196.42,905.484,126.148
167.628,966.484,144.936
136.884,984.784,139.568
134.688,966.972,132.248
134.932,970.144,133.224
147.132,959.164,119.316
155.428,956.968,115.9
144.692,985.76,124.44
141.276,974.536,115.656
157.868,948.428,121.512
154.208,946.72,120.292
147.864,962.336,117.852
138.104,976.244,112.24
136.64,971.608,102.724
144.448,978.196,107.116
146.888,990.396,103.7
154.452,982.1,110.532
173.728,975.268,116.144
178.364,996.496,130.052
175.192,1015.284,126.88
161.284,1017.236,117.608
154.208,1009.672,104.188
145.912,1002.108,98.088
141.52,1005.28,107.848
143.228,974.536,102.968
138.348,939.4,98.332
134.2,936.716,98.332
131.272,956.968,110.776
130.54,971.852,117.12
137.86,965.02,116.388
144.936,974.78,117.608
148.84,992.348,118.584
149.084,999.668,118.34
148.596,978.196,99.552
144.204,964.044,92.72
150.792,973.072,88.328
155.916,1009.916,91.744
147.62,1029.924,104.188
145.424,1019.676,111.02
155.916,978.44,113.216
166.164,954.04,111.02
166.652,960.872,114.924
164.456,966.24,106.14
154.452,965.508,95.16
146.156,968.436,92.232
159.332,967.216,100.284
170.8,963.312,103.7
162.992,958.432,97.112
158.112,949.648,85.888
158.6,964.044,86.62
166.652,978.196,86.864
165.92,978.196,81.74
168.604,982.588,78.08
164.212,985.272,70.272
163.236,987.468,60.756
153.476,997.472,58.804
144.692,1002.596,61.732
136.884,998.936,56.608
138.592,987.468,49.044
135.908,982.1,53.192
136.396,996.252,60.268
131.028,1001.132,62.464
128.344,977.22,51.484
130.296,962.58,53.924
135.664,961.604,54.656
142.496,970.144,70.76
157.38,973.072,73.2
173.972,968.68,82.96
185.44,967.46,84.18
182.756,973.072,81.008
176.412,980.148,81.496
163.724,986.248,69.54
153.476,973.316,61.732
151.28,965.752,62.22
166.408,967.704,68.076
180.316,979.66,75.884
182.756,991.616,83.448
174.704,997.716,88.572
162.016,998.204,90.524
165.188,991.128,99.552
181.048,973.072,104.676
193.736,958.188,102.724
203.74,948.916,96.38
211.548,955.26,81.984
193.248,967.46,75.152
169.824,974.048,79.544
174.948,970.632,87.84
188.612,962.092,95.16
181.536,959.652,81.252
160.796,975.024,75.884
152.5,979.416,71.98
161.772,969.9,76.86
171.044,979.172,83.204
159.088,989.664,72.712
142.008,991.86,66.368
148.84,987.224,66.612
171.044,995.276,74.176
191.296,1006.744,80.032
205.204,1011.38,79.544
202.764,1003.816,77.592
188.368,999.18,98.332
185.44,970.388,117.12
203.984,936.472,122.976
205.448,921.344,110.532
183.488,928.176,90.036
157.624,945.256,71.98
142.74,962.092,57.828
129.32,972.096,46.604
126.88,1002.352,43.432
133.224,1037.244,56.852
142.252,1029.436,61.976
137.86,1006.744,63.928
142.252,994.056,70.028
159.332,987.712,77.592
172.752,986.004,73.932
176.168,992.592,71.248
179.096,1006.5,80.032
171.288,998.692,87.84
158.844,972.584,76.86
164.456,970.876,68.564
159.82,994.3,58.56
137.372,1011.624,44.652
118.34,1009.428,40.016
108.58,999.912,45.628
121.268,993.08,49.776
133.712,988.444,50.02
128.832,990.152,34.404
114.68,996.496,17.812
89.548,997.472,1.952
53.436,980.88,-21.716
58.56,1003.084,-22.448
75.152,1033.096,-12.688
105.896,1061.644,18.788
140.3,1050.908,45.384
168.36,1003.328,61.488
193.004,984.54,70.516
191.54,978.44,68.564
177.876,960.872,60.512
156.404,925.98,55.388
135.176,910.608,53.436
131.272,916.464,62.464
135.42,922.564,53.924
140.544,955.26,57.828
145.912,991.86,62.22
145.18,1002.84,60.512
130.296,996.008,46.848
114.924,1015.772,38.308
106.384,1023.824,31.232
102.724,1006.744,27.572
106.384,969.168,17.568
102.968,938.18,16.592
115.9,922.076,23.424
129.076,919.88,37.576
135.908,920.124,44.896
137.372,925.98,46.116
139.08,951.844,46.116
134.688,991.372,47.092
134.444,1012.6,37.82
132.248,1026.02,30.256
113.46,1030.412,15.616
98.576,1032.608,-1.464
86.864,1026.02,-11.224
77.104,1013.576,-18.056
69.54,1002.84,-22.448
69.54,1003.328,-17.324
83.692,993.324,-21.472
112.728,985.516,-16.592
119.56,993.568,-8.052
105.408,1007.72,-9.272
91.012,1007.72,-21.716
67.832,989.176,-43.92
42.456,979.904,-59.78
30.012,973.56,-61.244
36.6,963.8,-47.092
61.976,942.816,-24.888
88.328,939.888,-6.832
108.336,951.844,13.42
125.904,968.68,32.208
136.396,994.3,44.896
155.672,1021.14,65.392
165.92,1022.604,72.224
169.336,1016.748,66.124
152.256,1022.848,60.024
133.224,1028.216,48.068
117.852,1010.892,39.528
110.776,986.004,27.328
117.12,976.0,17.812
126.88,989.664,18.544
130.296,996.496,19.032
129.564,991.86,16.348
123.22,982.588,4.88
106.628,980.392,-5.368
93.94,968.924,-7.808
98.332,950.38,-2.684
110.288,940.62,3.416
125.172,943.06,9.272
131.76,948.428,17.08
136.152,939.156,17.568
141.764,951.112,18.544
132.98,985.516,16.348
104.432,1029.436,9.76
80.032,1059.692,-4.148
71.004,1068.476,-14.396
74.664,1072.38,-15.372
99.552,1082.14,-6.344
108.824,1077.748,11.956
98.088,1038.22,39.284
135.664,962.824,55.632
193.98,918.172,49.532
207.888,907.436,38.796
146.156,909.876,-1.22
66.612,898.652,-31.964
20.252,927.2,-46.36
31.72,1008.94,-22.692
72.712,1109.956,12.688
103.212,1187.06,44.164
100.528,1177.3,54.168
97.844,1118.252,33.428
103.944,1078.48,14.884
107.36,1075.064,-3.66
82.96,1083.848,1.952
60.512,1070.184,3.416
47.092,1011.38,5.856
52.704,963.8,-3.172
59.78,973.56,4.636
62.952,994.056,2.684
81.008,1017.236,8.296
99.308,1023.58,22.936
108.336,1004.548,12.688
105.652,995.764,-14.396
88.816,1035.292,-31.476
73.444,1081.164,-28.304
81.984,1087.02,-22.448
82.472,1065.548,-18.3
76.128,1043.832,-21.96
76.86,1051.64,-8.296
77.836,1027.24,-6.588
69.052,1000.644,-24.888
53.68,1015.284,-37.82
47.336,1041.88,-37.088
39.772,1062.62,-29.28
52.46,1097.268,-16.348
57.584,1079.7,-32.452
56.608,1050.664,-31.476
51.24,1048.224,-39.528
25.62,1041.148,-42.456
20.74,1052.128,-39.284
40.748,1080.92,-31.72
60.756,1063.352,-20.008
78.08,1025.532,-19.032
72.468,1017.968,-20.984
61.732,1034.804,-31.964
46.848,1027.972,-39.528
27.328,995.032,-47.58
28.304,984.296,-44.164
39.528,995.276,-44.896
35.868,984.54,-45.384
44.896,986.248,-41.48
73.688,1018.212,-15.86
93.94,1029.192,-6.1
79.544,1014.796,-13.42
45.384,994.788,-18.544
30.988,969.656,-18.544
53.436,983.076,-5.368
89.304,1018.7,20.252
77.592,998.448,18.544
48.556,956.724,0.0
51.24,971.12,8.052
72.224,1016.504,24.644
43.188,1017.968,20.74
4.392,991.372,9.028
1.22,976.0,7.808
3.66,959.652,10.736
0.732,937.204,15.372
0.244,930.372,24.888
-2.196,952.576,29.524
-7.564,976.976,66.856
-26.352,954.04,100.04
-55.388,870.836,92.232
-30.012,849.852,95.892
23.18,895.724,110.776
11.956,903.532,85.644
-26.596,907.924,78.08
-6.832,890.844,108.092
41.236,858.392,119.804
38.552,809.348,87.596
-2.928,783.972,44.896
-18.544,804.712,36.844
-14.152,874.008,38.796
17.08,949.16,63.684
32.208,984.784,73.444
10.736,1008.208,82.228
-65.148,1004.548,80.764
-136.884,994.056,68.076
-144.204,1002.596,76.86
-74.42,1014.796,87.352
-39.772,1022.848,94.428
-45.14,1003.084,90.036
-57.584,972.584,81.984
-55.144,956.724,80.276
-52.46,960.872,82.472
-73.688,929.396,74.176
-105.164,889.38,55.144
-99.308,886.94,54.656
-52.216,916.952,67.1
-22.936,929.884,76.86
-55.632,894.504,72.956
-94.916,861.076,50.02
-114.436,886.696,39.04
-98.088,921.344,47.092
-50.264,925.004,59.048
-73.2,915.244,51.728
-135.664,918.416,38.064
-171.288,945.5,42.212
-133.468,948.916,47.336
-13.908,984.784,80.52
28.548,982.832,82.716
-39.284,941.84,86.864
-109.312,934.276,102.236
-119.804,937.692,120.048
-111.264,931.348,115.168
-78.08,959.408,121.512
-54.168,1027.484,130.052
-108.092,1048.712,116.144
-152.256,1050.664,106.872
-129.32,1074.576,117.608
-40.504,1095.316,127.612
31.476,1117.032,150.548
35.624,1075.064,150.548
-4.636,1004.792,121.756
-40.016,971.364,96.624
-51.972,971.608,81.252
-51.484,965.752,81.984
-51.728,932.568,70.028
-55.388,924.516,68.076
-61.976,925.492,68.564
-48.068,947.696,72.712
-64.904,967.948,72.468
-95.404,955.26,55.632
-115.168,943.548,42.212
-91.012,955.748,33.916
-61.488,995.764,35.624
-53.192,1022.116,38.064
-73.932,1015.04,46.116
-97.6,984.052,42.456
-89.548,984.052,40.26
-77.104,999.912,45.14
-62.952,1018.456,53.68
-56.12,1005.768,52.948
-50.02,988.2,52.46
-50.02,1000.644,57.096
-57.34,1006.012,65.392
-66.124,994.544,66.368
-77.348,981.612,62.708
-91.012,973.56,63.196
-92.476,962.092,70.272
-82.716,951.6,74.908
-69.54,956.724,73.932
-67.344,978.44,72.712
-69.54,996.008,71.492
-65.636,1004.548,75.396
-55.144,1003.084,77.592
-32.94,1000.644,81.008
-29.036,999.424,81.984
-51.484,990.152,69.052
-49.776,995.032,65.392
-49.532,998.204,65.392
-64.66,989.664,62.464
-73.444,983.808,60.024
-77.592,982.832,53.924
-66.856,988.2,52.704
-71.248,986.736,50.02
-83.204,978.928,49.288
-74.42,980.636,57.34
-55.388,981.124,63.684
-51.484,979.904,66.124
-54.168,990.64,63.44
-43.676,998.448,62.22
-44.652,996.008,60.512
-53.436,996.74,61.244
-61.732,993.324,61.976
-61.732,988.2,61.0
-68.076,975.024,57.828
-64.416,977.464,55.144
-52.216,995.764,58.56
-54.9,996.252,56.852
-61.244,983.076,59.536
-55.388,975.268,55.144
-43.188,987.224,58.316
-55.144,985.272,53.436
-69.784,982.588,53.436
-68.808,980.88,52.704
-64.66,984.54,57.584
-68.32,972.584,59.048
-71.004,970.144,61.976
-66.612,968.68,53.192
-50.752,987.712,60.024
-43.676,986.248,65.392
-48.8,988.444,68.564
-47.824,978.196,62.952
-66.368,996.008,60.756
-66.856,990.884,60.268
-57.828,986.98,61.0
-67.1,978.44,61.732
-70.028,967.216,55.632
-74.664,974.048,54.412
-62.952,968.436,52.216
-54.412,987.224,55.144
-70.272,1000.4,53.68
-68.076,996.008,52.948
-69.296,1006.5,53.68
-62.464,1009.916,54.412
-49.532,1009.916,57.584
-42.944,998.936,63.44
-57.584,985.028,59.536
-68.564,980.148,55.632
-64.416,976.976,57.096
-59.78,979.66,61.0
-61.976,978.928,62.464
-57.828,978.928,64.416
-53.924,974.048,68.564
-40.504,967.948,67.588
-47.092,983.32,64.904
-52.46,992.836,58.56
-68.076,997.96,55.388
-64.904,996.252,55.876
-56.852,997.716,55.388
-59.536,995.764,52.948
-66.368,998.692,54.656
-64.66,985.76,54.9
-63.44,975.512,56.12
-58.804,974.536,56.364
-56.364,987.956,62.22
-55.876,983.32,62.952
-53.68,979.416,60.024
-49.288,983.808,62.22
-55.632,983.32,60.512
-65.392,985.028,59.048
-58.804,986.98,61.488
-62.952,988.444,54.168
-81.252,1002.352,54.412
-89.548,1002.596,57.584
-78.324,997.716,55.144
-64.172,1001.62,57.584
-61.976,1001.132,61.244
-61.244,1000.156,63.684
-60.024,996.496,61.488
-51.484,992.104,65.88
-68.076,976.732,64.66
-68.076,972.584,66.612
-56.12,974.048,75.152
-60.024,971.608,72.712
-67.344,979.416,67.1
-67.344,979.172,67.344
-64.904,982.832,69.052
-61.976,989.664,69.54
-69.052,986.736,54.656
-69.784,984.784,51.24
-75.152,986.004,51.484
-71.004,993.568,56.852
-70.028,998.204,60.024
-74.42,979.172,57.096
-76.128,967.704,55.876
-75.152,963.8,48.8
-84.424,966.972,49.288
-77.104,974.048,44.164
-54.9,981.124,55.876
-56.364,976.976,55.632
-75.884,983.076,54.168
-79.3,992.104,49.776
-62.952,999.424,50.02
-53.192,994.544,55.144
-37.332,997.716,50.508
19.276,993.08,55.632
186.904,905.728,43.432
351.36,1022.116,-24.4
420.656,1266.848,50.02
335.012,1319.064,71.98
140.3,1201.7,-60.024
147.864,1014.308,-115.168
446.032,780.8,-30.5
676.368,548.512,-108.336
864.492,464.82,-10.98
1021.872,463.844,-43.92
1093.608,384.3,-115.412
1050.664,263.276,-125.172
932.324,263.52,-97.6
830.576,181.292,2.44
772.26,57.584,51.484
741.76,-6.1,77.104
863.028,-71.248,92.72
931.836,-137.372,45.628
919.636,-122.244,14.64
986.98,-119.316,5.124
1050.176,-130.54,14.884
1005.036,-149.328,39.528
916.22,-168.604,37.82
810.568,-174.948,44.408
744.2,-184.22,44.652
709.796,-102.48,71.248
599.264,-41.236,87.352
488.244,-64.416,72.712
482.144,-94.428,64.904
575.84,-63.684,70.76
559.004,-62.22,44.408
514.352,-11.468,32.452
555.832,-18.544,-1.952
708.82,-118.584,-18.544
817.4,-219.6,51.24
852.292,-264.984,83.692
815.936,-219.6,67.344
756.4,-132.248,-13.42
853.512,-139.568,-67.588
1084.58,-197.64,2.928
1151.68,-307.684,62.708
1087.264,-413.58,45.384
1072.868,-374.296,5.612
1084.58,-281.088,-14.64
1142.164,-256.2,3.66
1228.052,-336.72,48.8
1197.552,-412.848,66.124
1141.432,-445.544,35.624
1186.084,-419.192,30.012
1235.616,-292.312,37.088
1223.172,-207.888,51.728
1301.74,-253.516,101.748
1365.668,-314.272,128.588
1337.12,-378.688,99.308
1263.432,-325.984,55.876
1282.464,-243.756,7.564
1383.48,-161.04,37.82
1381.528,-127.124,49.532
1260.016,-99.064,41.968
1107.028,-104.432,-0.244
1120.692,-63.196,-6.832
1223.904,17.08,13.42
1138.504,80.52,43.676
959.408,160.308,36.112
799.1,288.164,-8.296
787.632,366.732,-66.856
944.768,557.54,46.848
998.448,880.84,173.728
897.188,925.492,151.768
735.66,853.512,21.228
701.5,767.624,-90.28
698.816,932.568,32.696
492.148,1244.644,156.404
273.524,1257.82,77.348
221.308,1052.372,0.488
306.22,972.828,9.516
247.904,1114.348,145.18
125.416,1214.632,116.144
-23.668,1162.416,32.208
-111.02,1072.868,-55.388
-86.376,1007.72,-85.644
-35.624,1087.02,-29.524
-40.504,1121.912,12.444
-22.936,1049.688,30.012
-1.22,928.664,22.936
-11.224,831.552,8.296
-64.904,823.5,-6.344
-86.62,838.628,-10.248
-99.796,902.8,3.172
-106.14,954.284,16.104
-61.488,991.128,51.728
-20.496,1018.944,71.248
-10.492,1039.928,72.224
-14.152,1048.956,101.748
-26.596,1022.848,98.332
-16.836,984.296,99.064
-6.832,964.288,96.136
26.84,951.6,101.016
63.196,963.8,101.748
53.68,996.008,104.676
31.72,1052.616,136.152
21.472,1059.692,135.664
39.284,1026.264,122.976
59.536,1003.816,116.632
65.88,988.2,101.504
59.536,971.852,95.892
42.212,979.172,92.72
21.716,977.708,92.964
15.616,969.412,91.5
-3.904,966.24,81.984
-17.324,991.128,91.744
-14.884,1004.548,97.356
1.22,1009.428,100.772
-10.004,1021.872,99.552
-2.684,1002.84,116.144
14.152,988.444,124.44
40.504,965.752,146.4
65.148,948.184,150.06
71.004,947.208,149.328
68.808,940.62,140.788
54.9,933.056,121.024
32.452,932.324,115.412
30.256,958.92,127.368
46.604,971.364,127.368
51.24,972.34,126.148
49.044,975.512,117.364
40.016,982.832,116.144
39.772,993.324,119.072
43.432,1001.132,124.684
46.848,1016.016,134.932
47.824,1028.46,141.276
49.776,1014.552,135.176
52.46,1001.864,131.76
44.652,991.86,128.344
32.452,974.536,118.34
34.648,972.34,117.608
45.628,989.42,123.708
56.12,1000.888,139.324
57.584,1014.552,148.84
60.024,1008.94,141.52
59.78,1001.132,129.808
45.628,1005.524,112.972
20.252,1027.24,99.796
6.832,1054.812,106.872
15.372,1057.984,103.456
20.496,1059.204,110.288
24.4,1073.356,122.488
19.52,1086.532,123.708
24.888,1075.796,117.852
36.844,1076.284,110.776
42.456,1105.076,110.532
41.236,1164.612,133.712
57.584,1226.344,156.892
73.688,1276.852,173.972
72.468,1267.824,164.212
92.72,1223.66,126.392
123.464,1165.344,102.724
157.624,1122.888,131.028
181.536,1091.9,128.588
172.508,1082.628,139.568
162.016,1063.84,135.42
160.796,1032.12,127.856
154.452,998.936,119.56
179.34,1007.476,119.072
211.548,1057.74,144.936
215.452,1057.496,146.644
193.248,1014.552,126.148
163.968,983.808,104.92
187.636,1016.26,96.38
224.724,1047.98,117.852
226.188,1036.268,125.416
199.104,1009.916,102.724
178.364,1023.824,90.768
168.604,1045.54,101.016
150.304,1028.46,83.204
120.536,1001.132,78.812
98.332,981.612,69.784
83.204,979.172,71.248
97.356,990.884,79.056
90.524,979.66,79.056
88.328,942.572,49.288
105.408,925.736,39.04
97.112,953.064,62.464
45.384,945.988,86.62
-1.22,897.188,87.84
-17.08,868.884,62.708
-9.028,871.324,59.536
-10.248,852.78,46.848
-22.936,838.384,34.892
-71.736,836.92,28.548
-127.124,843.02,17.812
-164.944,868.152,18.056
-169.092,869.86,19.032
-104.432,846.436,13.42
-65.636,813.008,10.004
-67.588,811.544,29.524
-105.408,834.724,8.784
-136.152,857.904,-11.224
-131.028,861.076,-0.488
-102.236,867.664,30.012
-124.44,845.46,30.012
-163.724,835.944,29.524
-173.728,833.504,30.744
-178.608,818.376,9.028
-184.708,835.944,-14.64
-190.076,865.712,-16.592
-198.616,886.452,-4.88
-211.304,903.044,6.832
-225.7,896.7,1.952
-219.112,901.58,-9.76
-196.176,918.66,1.464
-185.44,945.744,12.932
-203.984,958.188,9.272
-211.304,957.944,2.196
-207.4,954.772,-3.416
-174.948,947.696,-27.572
-165.92,991.372,-20.252
-194.224,1030.168,-9.516
-183.244,1033.584,-7.808
-166.164,1010.648,1.22
-199.104,976.244,8.052
-234.972,953.064,1.708
-249.856,961.116,0.0
-248.88,957.7,-13.42
-232.532,943.792,-19.764
-218.868,946.232,-10.492
-211.304,933.544,-17.324
-216.672,919.636,-1.22
-241.56,939.888,-6.344
-269.376,957.456,-14.884
-267.424,963.556,-18.544
-253.76,955.504,-13.42
-243.512,952.576,-18.056
-223.992,963.068,-12.444
-222.04,945.744,-8.296
-251.808,933.544,-15.86
-278.16,932.568,-30.988
-292.068,943.548,-36.844
-291.58,936.96,-33.428
-289.384,915.0,-35.38
-282.796,907.68,-30.012
-279.38,912.316,-22.936
-288.164,917.196,-22.448
-271.572,926.712,-16.348
-218.38,961.604,-7.076
-199.104,1011.136,0.732
-291.092,971.608,-30.988
-340.624,903.288,-65.392
-356.24,906.704,-68.32
-301.584,924.028,-30.012
-229.116,933.056,-9.272
-204.716,939.888,12.2
-238.632,920.124,6.588
-246.684,922.076,-6.832
-234.728,957.7,-2.684
-245.22,968.436,-9.272
-261.568,961.848,-38.552
-269.132,990.64,-35.868
-276.452,986.004,-43.676
-280.6,969.656,-37.332
-264.984,965.996,-38.308
-237.9,982.1,-26.108
-253.272,974.536,-39.04
-278.16,950.136,-49.532
-224.236,876.692,-54.9
-33.916,913.292,-37.332
132.98,1012.356,-32.452
197.152,1148.02,-56.852
211.548,1251.964,-66.612
141.276,1329.312,-158.6
47.336,1333.46,-107.116
117.12,1158.756,-19.032
307.684,952.82,-198.128
515.084,749.812,-159.332
712.236,634.644,-130.54
814.96,369.66,-231.556
913.78,66.124,-278.648
1040.66,263.52,-352.824
589.748,426.756,-187.88
287.432,466.528,65.636
406.016,213.988,106.384
741.516,-58.804,112.484
970.388,-156.648,13.908
923.296,-127.856,-70.516
638.792,-180.072,-129.076
612.196,-246.928,-145.424
783.24,-320.86,-134.2
729.072,-288.652,-57.584
612.684,-132.492,-21.96
559.492,-107.604,-60.024
717.604,-202.764,-89.792
720.044,-274.5,-80.764
552.416,-254.98,-90.28
460.184,-205.204,-104.676
652.212,-311.344,-130.296
858.88,-463.844,-108.58
918.904,-492.392,-101.504
884.744,-422.852,-147.62
880.108,-438.956,-166.164
1043.588,-535.824,-119.072
1104.588,-661.728,-59.78
993.324,-735.66,-81.252
835.456,-772.504,-116.632
901.58,-765.184,-156.892
1092.144,-668.804,-103.212
1132.16,-570.96,-50.264
1005.524,-560.956,-55.144
899.872,-594.14,-78.812
870.836,-551.196,-90.036
854.244,-509.96,-97.844
866.444,-510.692,-83.204
921.344,-578.28,-65.88
961.116,-652.212,-48.068
981.124,-713.7,-40.504
983.564,-696.376,-3.172
954.528,-722.24,-9.028
949.892,-799.588,-18.788
1004.548,-787.876,-19.764
1036.268,-763.476,-12.688
1041.148,-748.592,4.392
1071.16,-724.436,12.2
1126.548,-711.016,-6.832
1157.78,-721.752,-44.652
1164.124,-739.076,-62.464
1085.312,-711.748,-65.636
1067.744,-616.832,-62.708
1071.648,-519.964,-30.988
1086.532,-510.692,-8.052
1081.896,-523.624,20.496
991.86,-509.716,20.74
868.152,-506.3,2.684
757.132,-475.312,-19.764
713.944,-323.788,-12.444
709.796,-205.692,-27.328
820.572,-163.968,-2.44
838.628,-27.084,55.876
749.812,146.4,44.408
722.728,194.956,-32.696
877.668,287.92,-23.424
939.644,576.572,81.74
852.048,853.756,155.184
686.86,1000.888,140.544
665.144,986.248,82.96
665.144,967.46,38.796
620.248,1067.5,107.116
459.208,1196.82,172.02
255.956,1197.308,108.824
237.656,1059.936,-4.148
393.084,1000.4,26.352
453.84,1009.916,97.6
350.384,1046.272,109.068
256.444,1042.368,91.988
234.972,964.532,3.172
264.496,931.348,13.908
245.952,1007.72,76.86
226.188,1017.724,71.98
219.112,1013.332,60.268
207.888,982.344,49.288
230.58,933.3,20.984
242.292,946.964,66.124
226.432,975.756,79.3
230.58,945.5,22.692
255.712,913.78,16.836
283.528,966.972,58.316
298.9,1006.012,64.66
287.676,1041.392,84.668
252.296,1062.376,70.76
244.732,1037.976,78.08
263.276,983.564,68.32
281.332,963.068,83.936
279.136,954.772,87.352
265.716,922.808,66.368
269.132,949.648,93.452
291.336,991.372,133.224
282.308,991.86,117.852
241.804,966.484,74.42
193.736,965.508,54.656
186.416,991.616,69.052
188.856,1053.836,90.036
208.62,1053.836,91.744
217.892,1025.288,48.556
220.332,1002.596,33.916
220.088,1007.72,23.668
204.228,1015.772,56.852
235.216,1014.552,90.768
279.868,1010.648,89.06
285.968,1030.9,85.4
273.036,1025.776,50.752
249.124,1021.14,37.82
211.304,1026.752,25.864
176.168,1006.988,9.272
200.324,1028.948,38.308
212.768,1068.476,69.052
226.188,1040.66,63.928
252.54,1005.28,46.36
254.004,1037.976,66.124
278.648,1096.048,106.14
284.016,1138.26,94.428
249.856,1140.212,65.148
227.652,1130.208,48.312
207.4,1149.728,25.376
140.544,1169.736,-0.488
152.256,1177.788,-8.54
222.772,1197.308,7.808
260.348,1188.036,22.204
259.128,1134.356,19.764
258.396,1108.98,17.812
221.796,1118.984,-6.588
192.516,1129.964,-11.956
191.54,1099.464,-6.832
200.08,1073.844,-12.2
202.276,1095.316,12.932
185.684,1113.86,26.84
190.564,1102.148,27.328
192.516,1066.28,15.616
195.932,1027.484,6.832
198.86,1006.744,35.868
162.26,999.668,50.508
133.956,1016.992,51.972
127.612,982.1,48.312
128.832,915.0,21.96
118.34,854.244,3.416
133.468,849.852,37.576
129.564,853.756,46.604
115.656,842.532,25.864
96.136,856.684,38.308
83.448,889.136,49.044
65.148,865.956,48.068
72.956,828.868,23.424
69.296,829.356,29.768
59.292,849.364,31.476
25.864,866.2,32.94
0.244,863.028,20.008
33.184,869.616,8.296
39.528,895.968,12.2
45.384,915.0,25.62
61.732,915.0,15.616
68.564,955.748,6.588
26.352,956.724,15.86
-10.98,919.392,-3.172
-61.488,890.6,-34.404
-74.42,915.976,-37.088
-31.476,963.556,-17.324
-31.232,974.048,-25.62
-73.444,971.852,-35.624
-99.308,976.244,-49.776
-110.044,954.772,-58.072
-124.44,939.644,-66.368
-115.656,956.724,-62.708
-121.756,974.292,-64.416
-146.156,971.12,-59.048
-168.116,959.896,-65.392
-146.156,974.78,-61.732
-127.856,965.02,-33.672
-126.148,928.664,-28.548
-139.568,902.556,-37.576
-163.48,879.864,-38.308
-168.848,884.256,-40.016
-140.788,904.264,-12.932
-133.956,888.648,-7.564
-140.788,864.492,-6.588
-119.804,882.548,7.564
-55.632,937.692,25.376
-30.988,981.368,45.384
-101.504,974.048,49.776
-191.052,952.576,61.488
-207.156,911.584,-10.004
-208.864,858.636,-56.608
-162.504,882.548,-28.06
-90.036,938.912,5.368
-81.74,958.676,23.18
-129.808,955.504,9.272
-197.152,939.888,4.88
-246.196,922.564,-7.32
-203.252,915.976,-28.304
-154.696,942.816,-19.032
-181.048,935.984,-23.668
-214.964,938.912,-36.6
-222.284,949.404,-44.896
-181.048,949.648,-3.904
-167.384,932.812,0.976
-203.252,939.4,-7.564
-216.184,943.548,-10.492
-194.712,954.04,-3.172
-177.632,976.0,-5.612
-169.824,993.08,-14.396
-190.808,1012.112,-16.348
-216.428,1008.208,-17.324
-224.968,995.764,-30.012
-213.988,988.688,-24.156
-198.616,975.268,-16.592
-178.12,965.752,-23.668
-199.104,981.124,-25.376
-213.256,979.904,-16.348
-208.62,949.648,-17.812
-205.448,942.816,-26.108
-204.472,959.408,-14.884
-201.788,949.404,-2.928
-221.552,938.18,-14.64
-250.832,955.016,-16.836
-238.632,937.936,-11.224
-225.944,904.02,-16.592
-234.972,901.58,-15.128
-238.144,920.612,-8.54
-221.308,905.972,-12.932
-228.628,887.428,-22.204
-262.056,911.828,-48.068
-275.476,945.744,-43.92
-241.072,968.924,-34.16
-206.424,986.248,-27.572
-218.38,997.716,-32.208
-233.508,975.756,-23.424
-236.192,962.58,-29.28
-226.92,969.412,-23.668
-201.544,973.072,-18.3
-190.564,958.432,-19.52
-197.152,944.768,-17.812
-208.132,948.916,-25.864
-193.736,997.228,-23.424
-190.808,1025.288,-21.716
-195.932,992.104,-42.7
-203.496,950.624,-30.256
-169.824,939.888,-29.524
-131.028,937.692,-20.008
-32.696,916.708,-33.428
53.68,953.796,-28.548
196.664,977.22,-23.912
299.388,969.9,17.08
120.78,1012.356,-23.668
117.364,1091.656,-78.08
352.824,1090.192,-109.556
619.76,1146.556,-77.836
740.784,1066.524,-83.936
780.556,976.488,-142.252
702.72,929.884,-174.948
685.884,785.192,-179.096
622.932,557.052,-166.896
858.636,478.728,-71.98
907.436,282.552,-51.24
781.532,107.848,-29.768
709.796,57.096,6.344
686.616,-92.964,58.56
716.628,-250.832,40.504
874.008,-324.764,20.496
1033.584,-308.904,-58.56
1079.456,-308.66,-127.368
1013.332,-249.368,-134.444
1093.852,-204.228,-126.148
1118.984,-237.656,-80.764
1101.904,-280.112,-145.18
1013.82,-212.524,-91.5
871.324,-147.376,-74.908
820.572,-96.624,-55.632
876.204,-53.436,-21.716
900.116,-35.38,-13.908
785.436,-63.684,-24.644
668.316,-118.34,-42.212
732.732,-108.336,-57.584
809.836,-108.092,-75.152
797.636,-160.552,-64.416
682.224,-159.82,-35.868
537.044,-95.404,-23.912
562.908,-61.732,-33.672
703.696,-110.532,-37.332
782.264,-207.156,-30.5
767.38,-260.592,-34.648
744.932,-274.988,-63.928
788.12,-295.728,-70.272
866.688,-310.612,-42.212
891.088,-363.316,-32.94
931.592,-366.0,-59.048
998.204,-398.208,-82.96
1063.84,-449.936,-83.448
1070.184,-491.172,-78.324
1078.968,-514.84,-96.868
1148.996,-541.924,-106.14
1205.604,-560.468,-96.38
1197.308,-537.288,-84.424
1094.828,-538.508,-97.844
1027.484,-553.148,-83.692
988.2,-570.716,-80.276
982.344,-595.36,-93.94
1021.14,-568.032,-82.228
1018.456,-529.48,-60.756
925.004,-528.26,-55.388
874.496,-549.732,-56.852
905.484,-556.808,-69.052
964.288,-560.468,-70.028
996.496,-570.716,-56.852
1003.328,-602.192,-61.976
987.468,-574.62,-69.052
984.54,-521.184,-50.996
972.828,-559.492,-20.008
985.516,-656.116,-48.8
1087.264,-646.356,-45.384
1132.892,-566.568,-59.048
1103.612,-510.448,-73.2
1133.868,-502.64,-59.292
1140.7,-526.064,-47.58
1052.86,-494.588,-62.708
947.94,-452.132,-67.588
944.28,-403.82,-67.344
1148.996,-330.62,-0.488
1248.304,-237.412,66.368
1148.02,-147.62,43.676
911.584,-65.148,12.2
733.952,52.46,-30.012
882.06,214.964,19.276
1093.608,255.712,122.732
1122.644,264.252,137.128
966.728,338.428,115.412
781.044,504.592,59.78
737.856,681.492,78.812
710.772,848.632,178.852
706.868,981.612,219.356
754.692,1088.972,328.912
746.64,1098.244,343.552
643.184,1002.352,243.024
464.088,899.628,132.98
314.272,955.504,133.468
251.808,1014.796,165.676
318.176,1089.216,153.964
368.684,994.788,158.356
385.276,855.952,99.308
272.792,868.64,81.984
233.508,963.8,125.66
207.644,1041.392,162.016
160.064,990.64,101.992
120.048,943.304,51.728
99.552,878.156,-14.152
111.02,848.876,-24.644
93.208,923.052,32.94
82.228,976.244,72.468
141.52,936.472,7.076
160.064,873.52,-3.66
153.476,883.28,11.468
128.344,931.836,27.572
68.808,997.472,77.592
17.324,1036.756,62.708
7.564,1012.844,8.052
39.04,1009.428,18.788
81.984,1003.572,2.44
80.52,1001.376,22.204
38.796,1032.852,18.788
4.636,1031.876,12.688
15.128,1029.192,-6.1
35.38,1035.048,-0.488
49.044,1025.044,6.588
51.24,1002.108,-4.392
61.732,973.56,-4.148
85.644,997.228,22.692
87.84,1030.9,48.312
84.912,1033.584,30.5
82.96,993.568,6.588
79.056,990.396,19.276
70.76,995.52,23.18
87.84,985.76,19.52
111.02,967.704,25.132
130.784,977.708,39.284
116.388,1022.848,52.216
93.94,1016.748,7.564
52.704,989.176,13.908
50.752,984.052,20.252
75.152,991.616,38.064
105.408,1003.572,41.724
101.992,1005.524,40.26
98.332,984.54,23.18
105.896,970.632,17.08
118.828,977.22,30.988
119.56,979.172,35.624
129.32,984.54,43.188
128.344,988.932,31.964
128.832,1016.26,33.428
122.244,1038.708,25.376
114.924,1022.848,28.792
105.896,1008.696,11.224
94.428,1014.064,2.928
87.596,1024.068,-3.416
85.644,1035.048,5.124
95.648,1029.68,8.052
117.608,1011.868,3.172
103.944,1005.28,-18.544
92.476,1017.968,-3.416
84.424,1035.292,13.176
107.36,1023.58,17.568
125.172,1008.696,18.056
119.56,1013.82,11.712
113.948,1017.48,3.66
110.532,1025.532,13.176
116.876,1023.58,18.056
122.0,1002.596,12.2
135.176,1000.156,4.148
116.876,1021.872,9.516
105.164,1021.384,17.568
117.364,1006.256,12.444
131.76,1006.256,-2.684
116.876,1035.536,-14.152
75.884,1090.68,-15.86
42.212,1123.864,-20.252
17.324,1138.504,-30.988
4.636,1140.944,-49.044
2.684,1137.772,-68.076
15.128,1147.776,-55.632
52.216,1159.244,-33.428
68.076,1129.964,-41.48
63.928,1115.08,-39.528
62.952,1138.016,-34.648
52.948,1152.412,-7.32
32.94,1103.612,-45.384
-7.808,1073.112,-75.64
-21.716,1068.232,-63.44
12.932,1061.888,-34.892
32.696,1082.14,-6.588
31.476,1081.164,-0.732
33.428,1046.76,-6.588
6.1,1029.68,-31.72
-45.14,1032.364,-39.772
-62.464,1049.444,-28.792
-48.068,1063.84,-20.74
-36.112,1074.088,6.1
-41.48,1046.516,7.808
-35.38,975.268,-25.62
-14.396,935.74,-56.364
-0.244,979.172,-35.38
26.108,991.616,-10.98
15.372,997.96,43.676
-45.14,997.96,43.188
-84.424,984.052,-0.244
-32.452,920.124,-37.82
-22.204,872.056,-39.284
-53.436,891.82,-22.692
-60.268,922.564,-3.66
-63.44,883.036,48.8
-45.628,824.232,-5.368
-57.828,807.396,-15.128
-30.256,806.664,1.22
-48.8,819.352,-9.516
-84.18,831.796,6.1
-63.684,841.312,33.184
-38.308,832.528,81.008
-104.676,806.908,81.74
-197.396,793.244,64.904
-250.832,791.292,35.868
-263.764,806.908,7.564
-214.964,848.388,50.996
-154.452,874.252,62.22
-145.912,910.852,58.072
-195.2,894.016,35.136
-258.64,839.36,-7.808
-290.848,846.436,-9.028
-284.992,917.684,2.196
-221.308,929.884,32.452
-191.784,916.708,13.908
-215.208,907.68,7.808
-244.488,898.408,-0.976
-264.008,892.308,16.104
-262.056,929.152,36.356
-229.848,945.5,43.188
-201.544,936.96,44.896
-189.344,948.184,32.94
381.86,272.304,0.488
381.86,272.304,0.488
1127.524,-146.888,-9.516
963.068,-211.548,-129.808
915.244,-120.536,-147.864
997.716,236.436,63.684
1060.18,609.756,141.032
973.804,758.352,136.884
963.8,883.036,97.6
1037.488,1100.684,233.02
982.832,1204.872,239.608
822.036,1139.968,108.58
649.284,953.796,-59.048
621.712,888.404,-39.772
641.232,1130.696,104.676
615.856,1106.54,33.672
549.244,1018.212,58.56
467.504,948.916,62.708
410.408,847.9,1.22
408.7,864.492,40.504
327.448,994.3,81.74
224.724,1039.684,47.824
187.88,944.28,-19.276
198.616,871.324,-15.372
218.136,866.688,9.76
202.276,945.744,52.704
170.312,986.248,68.32
125.904,997.716,48.312
86.62,988.444,33.428
101.992,974.292,52.216
158.6,960.628,79.788
177.388,955.992,77.348
158.844,952.332,85.4
104.676,976.0,63.684
52.46,971.364,42.7
58.56,964.776,51.972
91.256,1002.596,72.956
98.088,1014.552,90.28
101.016,975.024,73.444
93.208,963.8,70.516
72.468,980.148,67.832
81.74,969.9,67.588
111.264,985.516,97.6
136.64,991.86,108.092
128.832,1005.036,100.284
118.584,1023.092,101.016
111.996,1024.312,102.48
98.576,1047.248,102.236
92.964,1037.976,105.896
104.92,1008.452,102.724
110.288,994.788,100.284
110.776,1004.548,92.72
112.24,1010.648,94.428
107.116,1039.44,97.112
84.912,1077.016,101.992
74.176,1080.188,104.432
72.712,1078.48,98.088
56.608,1077.016,81.74
37.82,1148.508,85.644
16.836,1204.14,61.732
-29.768,1202.432,53.924
-37.332,1237.08,84.668
0.488,1276.608,126.392
40.016,1317.6,156.404
23.912,1322.968,127.368
6.344,1308.084,72.468
-14.396,1312.476,51.972
-26.84,1275.388,34.648
-18.3,1183.4,9.272
-6.588,1121.668,-3.416
-31.476,1146.312,-33.428
-42.944,1188.524,2.684
-10.492,1192.184,33.916
21.716,1139.968,37.576
64.904,1100.196,56.852
92.964,1158.268,97.112
58.316,1120.692,110.532
41.968,1060.668,97.844
59.78,1026.996,79.056
27.816,1023.336,81.252
-18.056,1004.792,106.872
-11.224,994.788,114.436
-6.344,1010.404,110.532
-47.336,995.52,105.408
-85.4,938.668,103.944
-107.116,872.3,86.132
-123.464,860.344,101.016
-129.808,858.636,98.576
-157.136,822.28,81.008
-202.032,758.596,70.76
-229.36,740.784,63.928
-246.196,748.592,86.376
-242.78,713.944,90.28
-236.436,714.432,73.932
-287.188,750.3,91.256
-319.884,737.368,96.136
-311.832,686.86,89.548
-337.452,658.8,77.592
-348.432,691.008,70.76
-337.452,743.468,76.616
-351.848,753.228,84.18
-339.404,729.316,83.448
-351.116,715.652,74.176
-374.052,694.668,59.048
-403.088,696.864,49.532
-413.092,713.456,40.016
-415.288,742.492,41.968
-430.66,731.024,37.576
-416.264,718.58,35.624
-386.008,745.176,34.16
-395.036,780.312,26.108
-445.3,800.808,22.204
-467.748,817.4,18.788
-467.26,815.448,29.036
-427.488,807.884,51.484
-350.628,827.648,74.664
-360.876,843.752,75.64
-424.316,841.8,48.556
-459.696,833.016,40.748
-428.464,827.16,49.288
-413.58,852.048,56.364
-429.196,850.584,64.172
-426.024,822.28,69.296
-427.732,814.228,60.268
-431.392,836.92,66.368
-397.476,859.368,81.252
-365.756,879.132,90.768
-390.156,890.356,81.74
-429.684,896.944,74.42
-437.736,889.38,65.148
-430.172,892.308,65.148
-423.584,920.124,78.812
-421.876,910.12,84.18
-416.996,873.276,77.836
-413.58,870.836,70.272
-427.488,875.716,64.416
-402.844,861.32,71.492
-320.616,844.728,76.128
-294.508,788.12,61.732
-205.936,765.184,78.324
48.312,871.324,121.024
122.976,1048.224,62.708
117.608,1243.912,60.024
99.064,1332.484,53.68
29.524,1254.404,-31.232
6.1,1164.612,-56.852
147.132,1082.628,-22.692
413.58,1089.948,-44.896
719.068,1016.992,-103.7
910.12,804.956,-172.264
655.628,362.34,-32.696
499.224,214.232,-95.16
598.776,356.484,115.412
836.432,267.424,67.588
874.252,-89.06,15.128
789.584,-275.964,-48.556
704.672,-247.416,-0.488
727.12,-200.812,20.008
962.336,-208.62,14.64
1144.36,-200.324,19.276
1150.46,-234.24,-34.892
1035.78,-229.604,-52.216
1025.532,-214.232,-36.6
1070.672,-248.148,-41.48
1105.564,-241.072,-27.328
1088.24,-199.592,1.952
922.564,-173.24,-12.444
798.124,-152.5,12.688
780.8,-164.456,4.636
835.7,-166.896,1.464
857.416,-186.904,-9.76
824.232,-204.472,-0.976
664.656,-225.212,-32.452
649.772,-166.896,-20.008
771.284,-188.124,-16.592
890.356,-240.096,-15.86
890.112,-302.804,-14.64
798.856,-304.512,-38.552
732.488,-308.904,-52.948
732.0,-349.896,-58.072
760.06,-359.656,-31.476
785.924,-374.54,-32.208
773.968,-380.152,-39.772
775.188,-380.884,-27.572
762.744,-428.708,5.124
700.768,-476.044,14.396
812.52,-543.388,-5.612
932.324,-491.416,-28.304
951.844,-441.64,-29.524
970.388,-451.156,-24.156
996.496,-467.016,-26.108
1002.352,-451.644,-0.976
967.704,-450.912,7.32
902.312,-450.668,0.488
937.692,-501.908,-0.732
1021.14,-591.944,19.032
1036.024,-684.664,-6.588
990.884,-711.504,-57.34
1055.544,-711.748,-142.008
1211.46,-634.4,-123.464
1257.576,-580.476,-89.548
1207.312,-571.204,-83.936
1161.44,-583.648,-115.9
1289.296,-547.048,-104.92
1422.032,-486.78,-44.652
1440.82,-466.772,-37.088
1347.856,-446.764,-95.648
1355.176,-427.732,-119.072
1369.328,-363.316,-105.896
1297.104,-310.612,-84.912
1174.128,-284.748,-80.032
1050.908,-260.836,-95.648
1076.528,-199.104,-55.144
1109.224,-116.876,23.424
1095.804,-71.736,49.044
1005.524,-55.632,64.416
1016.992,-76.372,6.1
1109.712,-38.064,86.864
1117.276,-6.588,107.116
1058.472,46.36,101.016
937.692,109.068,66.124
934.764,222.04,59.048
989.664,381.128,148.108
1000.644,454.084,171.044
930.372,485.56,115.412
860.588,452.376,42.212
857.66,475.068,28.792
889.38,569.984,43.676
877.668,673.44,77.592
816.424,778.116,87.596
785.192,739.32,25.132
822.524,590.968,-73.444
910.12,573.888,-0.488
905.728,710.772,64.66
812.764,777.384,71.004
650.26,775.676,23.668
553.392,680.028,-62.952
555.832,707.112,-28.792
510.936,852.536,32.452
425.292,942.816,36.112
359.656,917.928,8.052
354.532,857.416,-15.372
380.884,897.676,-4.148
358.436,966.728,22.448
302.316,1007.72,7.076
205.448,1035.536,-4.148
159.576,1005.524,-46.604
215.452,1025.288,-9.76
228.628,1051.152,-8.784
190.32,1024.8,-47.824
122.488,968.436,-80.52
62.22,947.696,-110.532
72.224,931.592,-101.504
108.336,930.128,-101.748
95.648,932.812,-105.652
76.128,905.728,-98.332
90.036,877.912,-91.988
101.992,895.236,-81.74
122.488,926.224,-71.98
117.364,956.724,-53.68
114.68,938.18,-57.584
128.588,923.784,-63.44
153.964,967.46,-57.828
124.196,1019.92,-47.092
151.036,1008.452,-40.504
170.556,1008.696,-30.012
171.044,1012.6,-20.496
176.9,974.78,-28.792
181.536,960.14,-32.696
174.704,961.36,-40.992
151.768,966.972,-62.708
131.516,982.1,-57.828
148.352,988.444,-53.924
155.184,1027.972,-35.136
167.14,994.3,-41.236
166.652,995.276,-40.504
176.656,978.684,-39.04
168.604,988.932,-41.48
160.552,971.12,-47.336
174.46,977.22,-45.872
171.776,1005.28,-32.452
184.464,953.552,-43.92
188.856,984.54,-43.432
182.756,978.44,-30.988
186.172,972.584,-37.82
175.68,975.756,-40.748
177.388,946.232,-56.608
175.192,954.772,-63.44
171.776,969.9,-61.732
169.58,988.444,-57.584
171.288,989.42,-55.388
167.384,1012.356,-47.824
158.112,991.128,-58.316
161.04,967.704,-65.148
165.676,966.24,-67.1
172.996,979.416,-65.392
165.92,998.936,-66.368
164.944,1002.352,-69.296
154.208,1005.036,-69.784
145.668,984.296,-76.616
140.544,964.776,-79.3
148.596,976.976,-70.516
162.748,1007.964,-55.388
170.068,1020.896,-43.432
179.584,994.056,-48.068
168.36,970.876,-53.924
160.064,962.336,-60.024
154.452,974.292,-56.364
165.432,961.36,-56.852
162.748,957.212,-60.024
164.212,956.236,-60.268
166.652,982.344,-48.312
163.724,965.508,-53.68
184.952,935.496,-55.144
192.272,945.988,-51.972
165.92,975.756,-49.288
162.016,996.74,-46.604
164.456,1006.012,-40.748
168.116,988.932,-44.652
165.188,984.784,-50.02
160.308,999.18,-44.164
163.724,1009.428,-42.212
167.14,1001.864,-52.46
164.7,994.544,-61.488
164.7,997.228,-62.708
167.628,978.928,-63.684
169.58,970.632,-66.124
167.872,965.996,-58.804
