# PAMAP2 dataset (wrist-mounted sensor)

acc_x[mg],acc_y[mg],acc_z[mg]
-285.32425,-36.138763,321.3745
-740.07355,243.51743,118.112526
-949.6178,-7.388015,407.07742
-1655.6267,-85.35604,270.04678
-1636.4886,-91.136086,335.56436
-1700.7875,251.83234,584.76025
-1388.8478,430.51913,609.61646
-937.8151,479.37753,314.84406
-190.33809,553.2356,184.58185
591.6552,985.5804,251.69348
775.28107,942.7225,300.02063
275.32153,884.8558,116.78394
-290.57074,1148.3799,300.1919
-1063.5283,1457.2825,425.42786
-2407.5034,2403.645,836.4132
-3678.476,2888.7822,1008.424
-3114.498,1980.8773,671.31976
-1950.7125,669.92523,198.0532
-1138.277,146.65396,130.09995
-801.88043,-294.55856,-230.94992
-469.62064,-1443.713,-558.54846
-623.7723,-1110.7562,-424.74094
-897.6213,-1059.5157,-321.68396
-1468.8246,-566.9408,-157.93875
-1838.9728,65.178055,-40.211998
-3202.1873,1162.4436,733.0692
-3719.353,2849.7197,1391.2198
-1933.8588,1863.3738,553.5058
-665.7082,1650.8434,460.8265
259.2168,1341.9187,104.79474
809.32495,1084.0784,64.9702
1056.7485,1022.1739,62.27277
728.45575,865.3224,49.126144
189.38945,1224.4929,-19.599636
-611.4899,1695.1182,296.10944
-2353.2642,2787.332,623.33466
-4231.409,2982.664,900.6829
-3411.6748,1705.3451,531.29724
-2000.517,517.7606,197.00456
-1302.3168,44.18751,-45.939518
-537.01483,-1719.7596,-638.76355
-332.63147,-1673.9,-694.125
-715.8811,-1203.3389,-362.10355
-1196.6443,-872.0763,-379.8313
-1717.0546,-210.37885,-273.32004
-2463.1443,283.79495,124.96881
-3754.9805,1945.9924,852.226
-2628.2878,2439.873,475.76886
-1414.2008,1475.1632,547.83624
-533.16943,1194.1185,346.26508
183.78522,972.49347,310.424
869.60364,1038.2856,380.61737
1054.3878,837.87036,215.03183
525.05414,1027.3239,43.975388
8.323901,1485.5385,132.97847
-1364.4314,2658.6016,367.90274
-2809.4514,2898.745,565.91437
-2952.0605,2251.1382,392.0938
-2414.9106,1462.0181,3.4504085
-1915.6982,285.24738,-183.52406
-1455.6896,-340.0576,-334.007
-900.8825,-1608.4385,-691.93866
-692.63214,-1781.6543,-717.4477
-900.90643,-1260.101,-445.4153
-1125.416,-626.4642,-205.3958
-1753.6857,76.82812,-79.35056
-2691.2737,683.9791,490.50504
-3474.4705,1475.4633,1359.994
-2625.01,1244.7125,945.9074
-1423.7145,1128.1133,690.17126
-377.80258,1462.4124,635.2559
258.28925,1668.4069,416.78818
618.4082,1492.089,248.61505
425.71762,1265.7947,188.42802
76.70153,1275.0073,51.65121
-792.69147,1427.5,30.06012
-1926.4265,2018.1708,87.72742
-4400.623,2801.8271,129.30696
-4354.64,2194.398,-350.99164
-2558.5503,927.8875,-411.4835
-1933.8534,274.5237,-443.63022
-1231.6993,-970.42084,-538.77545
-694.734,-1752.7365,-619.27875
-611.6048,-1625.8516,-367.7669
-769.38354,-1065.3867,-146.21887
-839.29596,-548.9825,22.01564
-1391.6968,433.5603,243.66788
-2533.161,1773.6533,863.82367
-2990.382,3190.455,1198.8396
-1556.828,2254.2817,720.5776
-509.06012,1304.4513,555.71967
88.12494,896.0087,177.99832
466.15536,559.4575,191.83412
899.9538,367.28055,148.30313
747.8366,319.46072,215.1895
620.6257,395.1511,-8.948883
92.9306,1132.1956,95.34649
-827.9639,3020.4714,177.08945
-2562.5393,3523.064,212.97374
-2506.1667,2561.0264,129.93996
-1446.8043,1131.1184,-52.093304
-975.60956,493.17163,-0.46375
-630.52344,-275.6042,-153.89217
-472.07333,-867.9413,-176.99757
-395.38834,-992.38135,-153.41476
-537.00867,-709.22296,-136.45341
-784.7971,-396.76205,-13.697357
-1325.9657,651.0611,165.85957
-2113.7239,2448.4307,729.72046
-1830.921,3062.5447,822.41345
-758.52985,1762.9578,616.22186
-353.3307,1099.9755,448.23743
147.85536,490.65536,209.23775
597.0424,376.05386,98.93793
1002.7875,112.44767,101.70512
899.8947,234.28386,72.73165
691.65674,168.66748,-25.10081
164.41891,1273.2737,63.988895
-748.62585,3523.1023,262.94763
-2114.947,3760.8206,378.12833
-2152.9343,2572.5635,354.23358
-1508.9711,1253.185,70.38713
-1091.3757,313.06476,54.880272
-698.58594,-505.41174,-137.47131
-459.96768,-1242.489,-161.4791
-554.2367,-916.7433,-145.20628
-756.3005,-793.28955,-99.675705
-1118.9075,-123.98473,-82.182884
-1927.5211,697.7977,76.49789
-2797.2463,2915.468,309.1959
-1876.1077,3088.1216,169.19655
-650.59064,1657.7496,187.24396
-144.61089,1167.7067,86.94286
263.80212,742.51166,6.8976736
554.7155,535.37024,39.338524
954.34106,274.6341,29.126577
840.0769,271.08292,46.381207
616.1218,366.20798,27.53597
119.32648,1183.6581,-147.91666
-809.6708,3213.9685,-86.2823
-2241.5005,3810.9043,53.727715
-2581.975,2769.8616,220.32196
-1769.199,1363.0612,0.87848526
-1102.6354,326.28757,19.443953
-673.866,-439.98892,-116.18667
-420.45413,-1229.1774,-229.35739
-379.54532,-1103.9661,-153.41223
-576.99744,-656.1889,-61.173347
-981.82294,-242.90361,-112.56392
-1916.8367,952.6466,28.586782
-2848.8662,2870.5168,776.3726
-1748.6198,2744.1516,660.2754
-554.7328,1699.484,406.47232
-139.15688,1149.0515,360.16983
271.8565,667.25903,243.65483
636.50806,410.6837,259.53278
936.6719,109.48379,241.28932
775.99176,234.46939,211.08672
701.6163,107.451126,46.523384
309.195,1233.213,102.6242
-1133.203,3829.016,216.44395
-2276.9407,3891.3105,361.73117
-1898.0662,2289.6836,240.78702
-1337.0881,1060.7146,-23.478308
-859.14545,169.67413,-33.398327
-664.12714,-609.8369,-234.6947
-456.11163,-1190.9408,-335.6373
-643.2513,-1074.1627,-274.11148
-792.8438,-742.14575,-154.44563
-1242.7,51.203514,156.25218
-1805.2957,765.011,307.9738
-2702.0366,2945.392,1051.6046
-1969.4384,2903.229,709.0255
-845.75653,1576.5963,445.4121
-126.86486,1168.2351,223.73558
362.5998,692.62067,47.380386
1056.751,477.9711,74.461044
1178.1088,243.80283,46.83744
865.4482,420.24106,-16.905025
291.21616,906.11914,-94.835884
-457.3636,2523.4932,38.10743
-2174.397,3643.5212,276.87448
-2764.296,2708.45,363.01776
-1684.6671,1382.5907,74.542
-1197.1147,619.2321,-50.005917
-705.8559,-567.86,-111.46237
-400.3795,-1299.0658,-189.1975
-311.6526,-1041.2742,-122.299675
-566.9846,-864.1978,-6.441781
-867.99176,-251.5336,-76.93223
-1707.2368,558.08777,134.10239
-2582.8237,2564.9875,622.50415
-1993.3398,3106.189,624.55554
-814.92523,1669.6924,494.05734
-255.31856,951.20605,380.1895
183.03139,605.43896,128.032
475.16745,508.98868,119.99838
823.65625,196.4003,38.869976
728.6053,219.93593,110.67096
684.6599,146.35394,61.99461
229.04022,1679.4435,56.034927
-1074.2192,3506.4185,-136.79
-2297.5615,3751.8772,274.0474
-1967.2546,2133.7673,50.320133
-1444.411,1040.6738,-0.37957263
-894.33826,147.94548,7.830133
-613.80774,-792.5239,-237.01886
-346.3223,-1352.2596,-205.3791
-538.0507,-965.1366,-123.13038
-764.68713,-704.1049,-88.625145
-1143.2577,39.36921,10.793092
-2137.155,1472.1089,422.29086
-2536.2808,3108.3643,992.80695
-1502.6697,2638.8054,703.89374
-554.9464,1475.1649,460.4643
-165.8128,988.6023,193.15555
281.8938,726.04407,150.0168
790.44147,508.77887,153.92636
1100.0889,304.62253,79.37164
938.3748,307.70758,-41.927063
535.042,427.38855,-97.40288
-177.70331,2282.7979,-69.70018
-1876.5961,3713.1604,-19.889647
-2726.301,3135.1216,276.13766
-1988.6765,1911.75,212.65495
-1343.5083,696.27,-76.95871
-714.6366,-83.782616,-117.24424
-553.3724,-771.2069,-275.26163
-408.41843,-1338.9398,-222.73741
-752.17505,-1240.952,-283.4643
-1035.3701,-826.16864,-47.56397
-1382.8156,119.04422,-40.494965
-2375.777,1571.4509,285.81982
-2961.671,2940.8662,1041.044
-1702.6019,2390.6584,574.45074
-709.9765,1244.1636,422.06546
-313.26788,908.3998,291.20364
78.07555,521.0718,170.5014
602.0692,470.81683,113.0109
1001.57825,346.48114,128.41562
797.9138,568.67535,161.53458
490.0398,546.26685,-11.934396
-680.0933,2800.8713,38.959488
-1954.5323,3455.6345,336.27927
-2434.8948,3129.358,817.9787
-2218.8293,1946.3135,436.36072
-1647.576,711.1848,-15.352609
-1104.5531,58.42189,-82.60369
-810.3998,-500.67435,-182.5054
-679.3799,-1048.3258,-336.26334
-704.19586,-1052.9003,-309.8477
-884.3348,-799.6933,-217.85838
-1131.7979,-98.561485,-29.946712
-1915.6431,1454.9269,1.9872423
-2527.7847,3437.0576,610.4631
-1565.793,2929.6467,567.80554
-543.7573,1523.201,300.38773
-169.16101,1092.562,198.04756
223.02711,652.1413,204.43517
736.8949,386.81543,148.83356
1070.8955,183.05478,200.33275
824.13184,332.234,230.42862
606.963,333.92072,56.012905
-97.60972,1869.51,-173.38025
-1467.2406,3605.7366,-72.65234
-2696.911,3629.6416,354.6882
-2188.173,2277.396,237.60722
-1532.3398,932.2384,46.126682
-1028.589,-153.24538,-49.292255
-710.78186,-1126.7349,-290.75906
-559.55383,-1650.4242,-151.77974
-698.52386,-1077.7101,-20.600895
-863.4739,-600.98395,-48.40241
-1311.9816,122.09414,-95.05627
-2236.7305,1190.0747,223.93073
-2823.7844,2957.0544,560.2365
-1709.5433,2692.4531,406.0065
-790.4293,1640.6366,391.22433
-288.8229,1259.2891,237.22534
358.60748,734.89526,178.89037
1086.7256,644.0098,238.78531
1066.6761,393.34186,247.49347
690.8737,654.2365,-7.9874067
422.18506,320.40518,-250.92159
-79.10194,1515.5831,-238.42897
-2224.3154,3461.4438,58.397057
-3209.1929,3153.5393,95.32447
-2556.4211,2184.3008,134.52443
-1959.8705,930.37366,-58.70893
-1681.0002,274.56863,-28.98686
-1328.989,-889.2456,-239.00977
-667.3293,-1505.1726,-477.71848
-595.0714,-1351.5492,-67.54384
-545.7206,-789.52356,302.846
-893.0789,-66.74589,130.19202
-1676.2784,457.5361,-2.404423
-3104.4365,2985.642,585.40106
-2388.9753,3353.2917,702.3534
-985.558,1647.2969,388.16226
-388.02094,1218.4767,201.68712
300.85275,707.49646,3.78521
947.36444,348.64658,-213.05875
1179.6813,316.9788,-332.333
584.324,982.84814,135.67575
158.94719,1129.5095,-74.31416
-464.19327,1995.994,-88.36098
-1484.4565,2735.4963,-86.50247
-2862.1782,3316.0605,115.13902
-3047.5823,2617.958,118.21285
-1988.5204,1287.5558,173.03496
-1271.6244,180.97754,40.654354
-1077.5348,-705.9767,-161.55916
-571.862,-1832.0461,-581.8917
-554.30084,-1370.9941,-131.30347
-732.5054,-1193.8594,56.31936
-987.9065,-210.94101,100.63065
-1894.0182,473.95325,224.332
-3342.9275,2058.2974,1017.3458
-2743.9495,2372.4233,1525.8883
-1095.2177,1466.5825,888.49884
-661.3601,1160.1674,558.68713
-123.83078,1176.9568,232.63795
262.75656,1268.6528,244.33586
736.8512,1281.6157,247.43716
653.4098,702.3302,137.40497
577.1527,978.0429,49.062313
88.23863,1037.6906,69.27243
-663.79486,2229.4817,404.8839
-2825.8728,3305.9775,709.7677
-3462.6753,2948.4048,826.5953
-2211.9849,1438.9899,674.5387
-1667.9119,125.17713,17.27829
-935.5613,-1128.5316,-535.82
-521.7234,-1897.4253,-651.4903
-524.64185,-954.25854,-195.19563
-835.2825,-761.8766,-344.16568
-1198.26,317.50574,-105.58425
-1553.0803,621.06024,-495.81848
-1851.4443,3224.0989,-541.36066
-1377.3706,3094.3254,-213.06674
-758.7121,1729.1089,-199.51709
-324.4569,1481.5773,32.261547
-53.570972,876.99615,191.48999
404.51483,495.17883,172.73587
744.73395,125.60764,112.225136
791.49945,232.35878,236.46747
553.67847,261.0219,151.95103
356.52292,750.0736,-159.59152
-705.5298,3123.8093,-667.4957
-2333.4314,4353.426,-419.5001
-2246.9907,3137.2793,-280.3372
-1791.6592,1608.6792,-231.88469
-1267.4064,346.38577,68.12653
-974.21875,-662.9825,-129.25587
-675.1834,-1754.9406,-238.88757
-717.4128,-1232.8495,142.89139
-889.2205,-793.6136,17.741505
-1183.4335,-261.86212,-127.81152
-1825.5803,737.7339,-80.91668
-2409.893,3162.312,411.48416
-1585.6821,3561.14,403.49246
-772.8883,1888.8104,298.56775
-386.32587,1111.5472,125.38167
-72.60564,694.43317,98.59012
292.16083,380.94913,-11.946208
742.08606,110.56776,10.067683
1002.7483,142.11842,22.459127
798.30023,193.08994,-47.65485
372.15033,1077.386,-196.84093
-918.6521,3766.92,-193.81866
-2019.7083,4221.974,-65.41032
-2426.3916,2873.805,313.98642
-1777.7275,1011.8283,172.27686
-1369.7018,181.90622,170.24748
-1028.1912,-1406.3296,-57.571686
-757.14484,-1715.0626,-74.05955
-833.24414,-1006.2849,15.434469
-973.6964,-681.9746,7.316292
-1485.7361,12.335197,-224.31323
-2498.9333,1898.6938,-74.24373
-2348.1707,3819.7104,470.7244
-1260.018,2716.2512,332.70764
-432.60498,1563.1721,319.20602
111.12025,985.34015,225.92516
390.582,768.3738,190.20262
772.4461,384.72977,174.82736
1007.1096,321.52905,113.46986
813.5611,394.01483,84.15429
422.27972,738.16974,5.942566
-649.9136,2700.5684,228.09212
-2367.711,3894.3074,350.20886
-2784.3623,2979.6528,434.58853
-2012.6854,1614.0773,139.94882
-1386.6743,441.95593,102.98213
-923.6211,-547.7481,-108.802414
-479.65616,-1630.5654,-333.78543
-536.80475,-1229.388,-149.8824
-732.15564,-892.79553,-88.33858
-1063.7593,-109.038605,-104.387215
-1882.1014,1085.3298,12.36351
-2433.3223,2700.0125,568.90234
-1701.6335,3179.5557,528.1781
-693.5675,1856.2664,433.5222
-278.38837,1086.8082,341.62045
165.04353,647.48956,171.79189
564.14935,344.66403,139.7616
990.7386,317.28894,221.57214
945.6848,423.71173,266.53073
775.138,312.32727,27.788315
333.93372,1205.2711,89.26975
-581.21454,3465.009,64.36267
-2744.2522,4437.832,161.96832
-2643.7903,2621.891,288.61807
-1766.817,1066.4036,43.578133
-1300.242,-14.704121,-3.720881
-807.4688,-908.51697,-284.06415
-564.2359,-1361.7675,-290.01483
-663.4373,-917.5006,-124.97768
-808.78674,-684.17694,-119.85651
-1241.0562,125.6517,-57.66574
-2085.565,1667.5322,301.9536
-1978.8307,3532.0874,816.0121
-1081.4847,2852.9175,659.6352
-460.40247,1483.3815,444.7299
11.670984,984.63214,266.55978
337.5983,476.7992,196.56282
711.84076,118.929245,123.59653
890.2318,37.52641,129.11435
836.60645,144.56216,21.122917
577.5836,704.0143,120.89687
-268.35095,2771.7427,344.885
-1645.0957,3908.0806,515.9171
-2059.7263,2874.7544,506.00714
-1574.553,1705.16,276.35764
-1076.4602,364.04898,98.759026
-649.7188,-470.7777,-125.976715
-485.20175,-1033.0587,-391.8265
-474.15775,-988.09546,-275.94705
-783.6383,-758.9817,-56.31547
-1105.1154,-191.42671,71.31577
-2005.7123,1078.9337,174.39458
-2186.8599,2917.0906,933.69055
-1268.1619,2974.9846,1183.6692
-428.41034,1393.0364,702.84296
17.198063,976.91724,480.08386
484.69592,514.73065,472.5694
863.1783,237.97643,429.02722
857.3713,139.70097,291.23734
555.8356,241.18712,130.90558
93.0654,1126.4563,390.00867
-1383.1206,3359.9907,878.55676
-2099.614,3076.0867,1024.7686
-1516.5684,2115.482,824.8431
-1020.743,1092.0393,341.9681
-879.58154,280.05728,192.13393
-736.37726,-457.53928,-18.921347
-505.51358,-843.7325,-254.63126
-689.4276,-737.59265,-276.04926
-802.76776,-788.37006,-207.54579
-945.24005,-180.28345,89.423775
-1136.2397,786.8804,94.18868
-2146.0835,2411.7935,1198.217
-2071.6682,3318.46,1812.5459
-680.0796,1621.1337,988.0402
-200.72717,1068.4907,859.10474
163.58359,448.0098,426.1378
574.8892,237.98505,360.3004
981.73315,-35.597763,166.39456
926.16656,133.18143,208.02148
768.9408,291.34866,68.461586
-126.238014,2047.9542,679.2586
-1975.1082,3980.5044,1221.522
-2493.0952,3073.404,1063.4216
-1662.7888,1452.2942,517.7008
-1236.0751,624.3722,292.12646
-852.52704,-277.22568,-29.652159
-656.93915,-897.3792,-269.01468
-507.81976,-1024.6321,-366.76578
-734.8623,-687.2794,-108.76834
-795.5558,-484.32645,35.666477
-1392.6501,789.26636,373.84592
-1916.7949,2372.0996,810.0208
-1465.2662,3190.7341,913.9665
-645.82556,1841.2936,582.8894
-167.08578,1173.8629,374.96405
170.94434,814.36615,354.08835
658.98517,473.5564,242.85883
1093.0779,255.94408,287.0917
929.48334,351.08685,212.53868
627.5495,592.7801,183.17099
-401.5402,2481.348,226.53413
-1524.2646,3940.2778,394.37598
-2102.7175,3398.7322,515.4048
-2017.7214,1756.9313,54.855247
-1531.9734,675.2137,18.044909
-1143.8595,-271.11884,-49.605537
-775.8998,-1238.1943,-301.85703
-716.06396,-1241.0304,-123.20709
-906.9945,-859.15466,23.66691
-1025.4857,-216.09097,62.309505
-1670.6921,1261.1472,208.90332
-2079.9097,3146.7026,867.99524
-1339.8108,2828.9587,973.39557
-525.32794,1489.7792,486.68854
-64.79347,966.6643,413.39853
204.76141,568.71924,225.92732
518.2043,256.23145,146.08588
825.5278,28.49422,91.63978
982.9107,364.00003,95.4125
593.5702,747.5722,37.971825
84.427666,2456.246,93.74304
-1328.0287,3938.3933,353.89542
-2412.247,3290.6282,440.82837
-1752.2118,1777.4128,297.73538
-1210.3556,664.8225,230.89792
-976.1857,-157.3869,141.06172
-641.3823,-1129.9523,-117.56848
-625.90106,-1455.4504,-265.13614
-897.1744,-1196.661,-84.81669
-1067.9315,-316.5704,-110.326775
-1748.5524,819.5879,-311.65552
-2507.8723,3931.7275,188.57686
-1603.1329,3521.9863,687.8965
-573.28094,1505.7885,390.3364
-17.261942,1063.9591,304.4929
244.27095,452.18655,334.5512
532.3257,323.73035,350.50195
949.9877,224.90556,199.80562
966.30945,462.26788,207.19687
529.15063,691.70355,178.96648
-180.00272,2467.527,324.54965
-2103.1824,3903.2065,533.2618
-2779.0466,2932.3818,441.87646
-2032.3651,1598.4944,31.811102
-1382.6804,465.9391,-28.020948
-814.4353,-452.89597,-204.06271
-441.72525,-1642.0239,-452.5674
-357.19232,-1671.7361,-370.0982
-899.3183,-877.2059,63.77536
-1393.8988,-0.67942005,-191.05325
-2527.416,1886.0653,116.83239
-2246.0896,3171.8577,825.29205
-1132.9489,2327.1409,531.172
-472.32825,1375.066,364.94595
-142.41046,965.27484,155.32599
267.4026,504.7847,124.07656
756.66833,404.78052,163.58774
941.0971,406.95358,192.61055
694.91095,473.67682,128.79726
223.9858,842.34283,134.56021
-794.84674,2465.941,164.0277
-2330.5476,3399.3242,327.83243
-2501.6914,2757.9976,108.06634
-1654.8792,1593.2417,-119.67631
-986.35284,401.4019,-97.489685
-693.22156,-369.8999,-182.8389
-494.8372,-1591.779,-286.7012
-495.75854,-1427.2076,-106.51771
-890.0897,-762.2901,55.426563
-1153.6891,-121.91838,21.018576
-1828.4963,1280.3054,-23.384834
-2291.5,3248.3242,741.48267
-1500.5818,2882.4082,751.45386
-630.4459,1283.2323,521.0202
-73.13534,917.60925,300.04468
498.86374,424.15945,212.31146
853.00696,522.30475,147.16925
915.8299,220.01256,-49.18417
830.8643,335.11734,-145.60236
535.35785,772.25806,-96.95493
-406.43457,3311.9375,211.64012
-2313.3025,3557.3657,570.7413
-2632.9934,2630.9785,867.6617
-1935.3105,1290.9784,405.74365
-1159.7461,262.91513,224.97676
-608.84827,-634.06085,-128.5657
-527.05457,-1093.8909,-265.3492
-454.18646,-1009.0902,-180.11429
-713.25916,-736.8235,-190.05692
-1297.4103,-285.88095,-37.97291
-2420.4243,1191.9822,377.24994
-2437.1494,2738.574,987.0875
-1292.4176,2579.043,963.7943
-408.98236,1482.527,542.322
0.79224414,1079.3234,492.68057
525.43176,660.5263,315.99393
997.52655,339.03882,143.56175
1107.283,284.95978,101.13363
786.89484,348.36435,13.076646
179.69182,1200.6921,209.63257
-730.8545,3079.1023,532.90735
-1835.2734,3715.9373,751.6161
-2475.1401,2951.9092,935.9021
-1771.4722,1328.0873,380.13107
-1163.9865,241.32506,117.49046
-762.7799,-564.2095,-108.0964
-615.0135,-1047.3083,-244.55984
-563.7959,-989.3497,-310.5696
-926.8797,-427.37665,-84.65424
-1134.094,128.2626,103.28418
-1413.1007,906.2878,261.79605
-1773.1439,2009.8278,734.736
-1768.4025,2815.3135,1037.127
-919.6829,2033.7338,737.4602
-220.20114,1215.1094,531.21936
372.23697,896.6587,183.58081
765.9142,541.81696,162.34143
1088.3712,215.29376,37.90904
991.42395,314.05606,76.41095
749.3215,431.42975,-33.833977
-13.224848,1863.4202,278.0178
-1488.19,4013.1907,685.8652
-2698.8357,3679.946,900.65125
-2198.058,1927.4625,502.01663
-1475.8782,652.4306,141.55084
-823.04114,-448.98425,-169.58913
-456.21347,-1160.1536,-386.12576
-399.2359,-1239.9138,-364.94894
-723.40875,-728.38806,-177.46129
-1030.0183,-503.16653,-137.38536
-1759.5961,299.1949,111.44601
-2578.83,1439.9294,505.05325
-2214.8386,3640.0066,349.53513
-972.76013,2978.986,495.3351
-272.4644,1334.2732,280.0311
138.54518,966.1722,265.46024
373.1907,212.11578,300.5914
789.71,125.70505,252.0167
1098.61,99.367,381.3647
951.4286,529.4607,256.03043
473.03262,453.08636,-38.632477
-688.425,3330.6948,-543.64764
-2487.1057,4497.874,-819.98517
-2671.9502,2659.3433,-375.75732
-1738.7847,1471.258,-312.50897
-1187.5532,235.06699,-142.12943
-908.00824,-384.7535,-119.292656
-638.31616,-1419.2927,-102.902664
-637.5685,-1299.4182,-100.064835
-944.3259,-838.7905,-45.273655
-1170.9718,-306.9917,26.740683
-1866.2347,1032.55,-34.73376
-2691.9348,2891.4265,555.38654
-1762.0897,3498.4138,552.93536
-531.05084,1975.7894,313.1654
-23.87944,1135.4851,202.80197
435.7885,753.222,148.21516
815.0629,443.31195,232.89218
951.14056,165.58685,209.70854
817.152,320.57874,130.70709
667.88873,224.17508,37.505447
-151.12387,2124.6277,197.7152
-1894.4133,4295.803,591.23505
-2900.051,3645.5564,521.7851
-2101.9045,1858.3837,175.2905
-1400.8733,466.28827,48.50732
-873.88245,-422.5104,-146.8411
-583.37134,-1623.9146,-417.31473
-416.77673,-1246.0212,-156.36227
-724.33386,-785.55615,27.825827
-1073.8856,-396.93076,-145.03625
-1827.9656,844.68445,-209.92134
-2492.854,2724.5227,364.26572
-1720.2242,3328.4907,552.2392
-821.549,2178.7097,528.7111
-264.66452,1239.0436,426.9516
116.49337,751.8834,246.59102
570.0231,376.21176,158.75528
979.59454,355.58044,271.42117
1108.3381,448.13235,264.7547
744.6976,408.27698,83.38641
459.4145,710.91626,-46.47151
-1769.5096,3251.6904,567.0105
-3232.5938,3438.859,611.7081
-2201.4744,2164.2476,391.4977
-1467.7133,1037.0381,186.70982
-695.33295,106.76589,-57.538223
-465.4897,-710.3148,-329.99194
-260.46237,-1188.5305,-371.26526
-481.37958,-834.46106,-327.41745
-851.8454,-644.4939,-144.7175
-1652.3926,-41.22285,-172.5007
-2415.6838,1097.1064,228.13268
-2386.9844,2636.849,960.66547
-1409.8264,2536.2788,826.6985
-468.20847,1487.17,547.5537
109.04871,1200.7406,430.15356
523.7175,913.1219,351.02142
833.6076,630.52594,392.659
906.55414,275.69638,229.57188
763.9136,434.46326,135.57951
475.7974,190.4137,16.87351
80.79432,1679.1327,237.97476
-1675.6973,4088.2036,609.06464
-2628.6628,3170.5396,688.12134
-1749.0961,1780.824,347.33057
-1043.4856,630.57214,0.60332435
-623.7165,-187.32245,-77.567375
-538.2589,-881.4077,-252.07423
-473.64395,-990.3497,-226.38197
-781.61694,-843.7216,-198.69197
-1139.5687,-458.3704,-139.01984
-1840.1754,608.3273,-19.333374
-2332.2124,2453.566,260.72238
-1721.9324,3548.814,457.97256
-609.79956,2249.5144,359.31747
-90.793625,1271.9491,333.77475
307.81784,759.35596,279.31293
669.72327,271.25134,265.6731
871.86487,119.65727,210.79095
842.7119,289.2625,226.74997
577.0888,243.98769,57.069225
233.59534,1019.5608,7.353027
-1259.0723,3503.688,429.52103
-3216.1426,4176.9277,537.82086
-2366.055,2262.2773,267.58295
-1634.8531,1055.598,168.308
-986.83405,-9.7689495,-113.15299
-762.79425,-573.9557,-394.07886
-537.1559,-1092.9819,-359.3522
-739.97144,-1071.2937,-264.86493
-852.52527,-996.2246,-193.85728
-1201.979,115.45646,158.14354
-1762.8904,1663.3522,601.22595
-1931.9584,2452.011,1082.97
-1334.1078,2548.9434,968.3981
-676.63367,1109.4766,540.1666
-243.16951,772.4142,350.3241
200.91609,430.47772,235.77745
757.7774,352.83075,146.94528
879.40796,206.93575,148.90434
662.02545,287.0062,161.50339
205.17654,1067.1531,295.7713
-1271.0295,3186.8494,798.5732
-2668.1196,3325.4907,974.3527
-2392.3289,2312.5386,640.4337
-1691.2684,1258.0,278.01578
-1068.2021,170.43605,88.48241
-648.27,-784.54614,-346.2183
-409.60068,-1367.6492,-433.91168
-477.3944,-1041.9025,-239.37448
-709.22015,-763.52954,-181.50606
-1167.4286,158.5861,-9.677317
-1926.8329,1719.8365,633.6525
-2416.4265,2323.5254,1376.5508
-1252.6573,2902.4097,1057.9728
-293.9649,1376.8457,804.48047
-7.903292,679.99347,568.7597
599.5238,482.48178,435.00793
1001.19934,169.45901,393.88855
1050.4692,-35.893276,225.86594
635.58575,-34.696705,16.813543
411.05914,583.0072,35.64623
-921.1066,3807.625,622.20795
-2437.102,4035.502,852.2364
-2045.9204,2225.2566,623.6023
-1321.7257,808.6924,219.3356
-871.167,-3.067604,77.86534
-607.8316,-681.21814,-100.11294
-425.22488,-1148.655,-321.0724
-520.6711,-836.00385,-132.48596
-719.6429,-547.9618,-62.60942
-1051.4253,-196.50574,51.948364
-2107.607,1204.8481,540.87225
-2437.9897,3178.6416,1171.8779
-1669.2633,2208.9072,808.06635
-707.3803,1403.5208,274.04376
-21.991947,1065.6211,194.17133
263.1606,718.4618,162.24693
665.4466,292.19308,67.69411
980.43365,261.90805,-58.95357
971.332,465.32553,-26.225744
412.70724,864.95966,19.904716
-277.99414,2412.3237,-95.018295
-1624.174,3627.6663,232.20148
-3013.8042,3381.2078,324.26135
-2116.0752,1907.2358,281.297
-1400.4647,804.793,159.49916
-906.7169,-96.263565,209.35515
-485.34253,-1274.0692,-105.37572
-369.66272,-1437.2047,-33.183475
-517.4591,-836.24567,66.695465
-802.7136,-368.58557,81.27218
-1496.1584,254.06708,-251.96774
-2560.5283,1882.3632,-96.34773
-2595.0273,2911.146,163.64871
-1188.7576,2312.5654,-319.46054
-447.95987,1578.3239,-218.02513
88.451004,1047.8031,-116.46455
437.91656,638.47485,65.32736
821.189,376.8736,28.312569
985.0931,254.39209,-9.190645
766.5003,404.69864,-95.52067
300.09634,826.5977,-460.44308
-869.9094,2676.6504,-565.40063
-2067.0352,3515.6304,-474.81357
-2499.1714,2991.901,-260.19833
-2073.4617,1666.8495,-70.18601
-1263.3607,419.41733,0.5011283
-842.4075,-532.6808,-129.49425
-548.4254,-1494.3832,-159.26694
-466.95236,-1107.0343,-96.13795
-742.02026,-693.53796,-11.27301
-1043.2181,-331.12012,64.51188
-1820.5597,730.00415,113.08853
-2449.9019,2197.1897,545.8316
-1944.2794,2776.6426,535.1491
-1106.3134,2005.3234,398.7471
-505.46414,1160.3601,273.81277
70.14413,942.3957,111.15127
791.0851,641.0995,209.03888
1212.2347,337.02502,215.25214
1001.51105,326.22263,212.07133
550.1733,501.74622,24.201756
-103.863144,1724.2443,39.1131
-1838.9489,3672.8975,427.07132
-3123.4333,3634.2002,505.49347
-2499.6423,2051.5952,329.26636
-1763.5093,759.5511,146.80511
-1261.1882,-68.7958,-1.1466068
-782.30286,-1350.9213,-372.03564
-557.87915,-1342.5265,-291.33795
-687.37054,-1085.0691,-131.13954
-888.64264,-667.94366,-98.043884
-1369.1832,-52.321808,-42.006367
-2342.0322,1446.0897,375.86798
-2572.4993,3456.771,985.60284
-1254.9435,2691.1272,552.4267
-449.87088,1520.1671,634.4493
103.59754,998.6637,470.17343
570.5235,652.1987,423.48776
863.1359,242.0379,417.87274
1002.05023,355.9848,546.86865
777.76794,245.54552,298.7089
234.88474,1584.908,93.646515
-1037.6616,3651.8274,-258.09595
-1784.8892,4111.4683,-674.4695
-1752.0072,3158.8838,-459.56506
-1208.2539,1371.9241,-279.03802
-757.29395,529.8032,-48.42584
-771.34155,86.4812,1.1424692
-905.5761,-147.88124,150.20361
-692.1309,-292.33273,211.2855
-574.91986,143.85373,168.092
-78.05531,750.66833,399.9551
687.6854,1024.9976,614.4749
1066.9066,1551.328,1228.6136
1263.1646,1956.6085,1279.6821
982.6135,907.0727,757.43713
573.1941,300.15787,463.7564
332.5855,-236.82867,73.53038
190.77808,-481.05438,28.877218
5.1202097,-272.30212,-52.57736
201.24846,-142.20842,-271.169
191.46283,-30.4529,-191.10686
674.48486,-43.880505,138.02563
1340.7007,218.13007,-190.49586
1728.5063,1231.8037,-20.54645
1321.1265,1642.2032,231.9017
646.72675,1592.7806,469.91974
82.62976,908.38605,659.23285
-414.81125,107.44109,377.66345
-680.2879,-118.11773,270.58102
-796.9149,6.898681,157.83015
-1110.8312,362.7196,-12.110851
-1316.315,480.07104,-177.20393
-1914.8951,1088.4291,-117.97171
-1883.2131,3391.9893,-435.28897
-1235.9001,2702.5093,-411.96912
-578.97314,1646.053,-305.22922
-52.627438,1003.8694,-316.77454
263.98502,639.60815,-281.42816
666.664,265.22653,-195.51709
1013.1171,138.36754,-105.90871
882.23474,132.59378,-141.78741
454.2632,593.8951,-243.06604
-477.97272,2480.2258,-414.65366
-1951.2981,3568.5847,-195.85133
-2464.0967,3118.627,28.058718
-1976.5322,1914.1464,149.63948
-1409.0734,631.05634,270.92792
-867.23285,-820.1303,-94.71216
-493.8978,-1630.1091,-284.287
-479.64667,-1046.3859,-99.8912
-661.5309,-773.28815,-241.70804
-892.41547,-153.82149,-174.64128
-1575.3815,811.6341,21.75262
-2237.9185,2370.9062,616.08234
-1924.5623,2905.9666,536.79047
-951.66876,1675.268,487.32837
-299.88098,1128.9329,400.94882
223.09322,863.84106,214.97318
616.75793,557.809,274.80246
956.81995,370.0681,195.88565
854.01685,-24.926748,114.957245
510.40836,152.71939,102.71981
-158.96878,1551.4785,692.538
-1438.0288,3000.9675,1169.669
-2252.8267,3147.9443,1172.7828
-2181.9448,2034.5781,864.9893
-1509.5704,944.7501,263.8733
-913.764,130.92868,-27.16729
-696.9522,-682.8076,-379.33438
-545.936,-1041.711,-353.65387
-664.4484,-948.06177,-353.8857
-790.8937,-672.4348,-152.03557
-960.19586,174.14209,123.601234
-1307.3801,1222.3013,644.41425
-1768.4535,2175.6243,1176.269
-1450.2062,2857.0154,1305.1283
-640.1542,1524.3612,928.80237
-282.6432,911.9177,667.12946
173.7551,323.6576,383.2137
567.6471,134.91692,286.25168
969.2303,-159.42397,164.27875
775.93427,299.83453,151.98222
583.63074,222.5005,-27.315643
-146.65222,2125.5474,293.99054
-1353.9066,3740.5564,486.4091
-1958.0079,3070.7915,561.88794
-1688.8376,2127.482,480.49362
-1045.3303,780.2218,187.14552
-636.7032,-273.08475,70.50836
-595.15137,-480.16885,63.95219
-632.2431,-821.0346,-125.51528
-884.645,-538.0285,-188.71259
-984.2883,-384.1251,-60.373566
-1172.1682,457.30637,46.719337
-1308.7924,1314.6053,460.16202
-1318.8307,2136.1133,723.5999
-1124.1831,2397.631,499.08176
-556.192,1780.5183,270.2312
-94.89041,1306.2869,80.40055
448.79333,709.09534,71.02959
941.0265,578.1164,130.43849
1037.2122,341.506,70.73706
651.9088,269.8747,23.752607
289.93454,630.8858,-174.1556
-1361.135,3412.9128,-384.03152
-2760.3098,3536.792,169.1639
-2188.1309,2459.1116,167.41426
-1734.369,1076.4711,69.02546
-1107.7656,59.23665,111.047935
-807.3674,-800.58624,-51.03107
-493.20847,-1357.5897,-166.16199
-601.0035,-998.89075,-158.91212
-780.702,-749.7709,-136.02608
-1108.9631,-190.05058,52.122272
-1898.0396,1183.4836,180.4693
-2249.8887,2744.571,760.01965
-1393.8345,2661.0312,624.4378
-664.0818,1658.3102,519.9812
-239.22672,900.36475,325.03915
364.3003,601.3119,173.93964
819.1658,463.17352,253.85278
1009.6001,302.2611,237.26947
748.3332,259.27356,104.24197
289.91974,937.8048,26.94951
-936.307,2329.6187,322.7463
-2178.8455,2980.7292,468.07898
-2008.1797,2423.357,349.906
-1600.0035,1388.7671,250.463
-936.61566,426.76538,103.60171
-462.23715,-129.35785,-96.325
-333.1765,-750.94086,-263.3946
-428.8954,-789.67053,-215.06848
-958.08154,-640.374,-331.0831
-1402.8168,30.348549,-157.71507
-1659.2136,1223.944,293.25537
-1739.5297,2388.0974,810.71655
-1132.653,2583.9753,912.3447
-387.4246,1499.3348,679.4262
38.96589,906.89325,438.76953
361.95535,440.7376,381.45547
751.58923,119.26874,215.29204
981.6839,-14.529181,34.821854
764.88947,98.08145,-78.09405
134.31947,1581.6344,250.47931
-619.4172,2781.6838,542.5737
-1453.387,3443.861,545.032
-1648.2565,2771.1653,374.39197
-1230.2524,1511.1499,279.8457
-824.55273,355.54288,125.82509
-632.94434,-405.06348,-117.78573
-490.57855,-1081.32,-371.86514
-586.0729,-939.342,-311.48187
-802.44464,-684.1943,-128.12695
-1227.7865,39.139893,-22.054724
-2171.6855,1657.1061,447.73184
-2046.5038,3354.353,776.27075
-891.1961,2602.1106,823.1641
-148.74574,1261.8303,511.9823
209.19917,959.60535,402.41238
645.5249,396.8839,350.69183
1060.1282,32.579906,120.440445
1008.20776,209.15965,172.94159
700.09503,485.32758,110.84788
-31.202219,2131.7312,221.3446
-1500.7891,3604.9053,435.6896
-2159.4019,3130.347,500.0966
-1921.2703,2325.179,337.6663
-1240.7108,1005.15686,140.73972
-762.2345,169.55577,12.4846735
-599.78204,-566.84894,-131.5205
-553.12573,-957.4828,-189.35617
-735.6243,-922.3464,-191.79745
-831.16614,-631.6921,-104.88541
-997.03656,-65.8579,146.76611
-1634.4547,1260.5405,390.56265
-1874.6178,2841.285,690.0657
-1160.4104,3199.9531,804.418
-416.3579,1518.1959,587.8111
-192.23296,1305.7979,328.19263
244.10696,639.20245,211.68086
628.19403,308.84268,251.19183
1112.187,103.60189,326.23932
983.0303,285.46005,251.13089
624.4708,763.79443,103.84058
-318.26093,2646.651,308.1703
-1465.8912,3611.7388,591.0771
-2049.3335,2938.7815,704.29016
-1971.7521,1694.549,424.6186
-1511.2878,606.69543,174.31076
-993.04926,-426.80817,-153.4837
-655.59784,-1210.7522,-337.13696
-539.4955,-1389.2557,-321.29395
-842.3334,-982.2086,-17.292814
-1198.7742,-82.92445,78.39622
-2123.8223,1546.2968,399.6626
-2350.488,3140.733,645.93463
-1242.3997,2769.3044,375.54395
-356.06473,1552.6664,234.92572
79.81573,1186.5183,20.510582
592.3811,671.31903,84.350235
989.8555,509.29147,175.10596
1092.5308,263.59308,82.224724
716.4283,584.4788,4.9904704
148.18115,1228.7279,-380.63617
-1309.3951,3074.6946,-337.9818
-2038.2275,3054.3274,283.83234
-2196.7268,2576.3594,-29.776983
-1666.9232,1246.7917,-32.342033
-852.33514,361.58005,37.851738
-518.48926,-529.9659,-19.271072
-376.04056,-1120.2314,-257.64636
-590.4958,-1311.2388,-269.45624
-940.49225,-671.30597,-31.106766
-1285.7269,-437.79013,-321.01825
-2127.3525,1633.1901,-320.402
-1742.0319,3279.5586,343.0372
-1151.8319,2626.5747,39.299736
-518.2548,1768.4678,-133.4409
-221.29291,1275.5344,133.00452
186.03934,555.6891,179.69322
697.0324,247.31569,47.981777
1079.1025,11.529775,143.1835
760.27997,209.18718,160.32741
634.3658,-15.403401,107.25274
-1227.1067,3380.935,-952.1768
-3138.752,4410.5864,-492.6402
-1817.8148,2244.7705,-385.8526
-1456.2256,900.137,-270.1387
-817.0381,-64.54174,25.584156
-599.0778,-644.94116,-151.79953
-238.11464,-1496.4132,-243.78622
-554.4433,-1009.007,-242.26743
-947.20404,-742.5043,-131.22435
-1505.9156,440.788,-145.48952
-1878.8364,1809.6351,68.797195
-1775.8899,2600.9512,589.6593
-1114.1239,2170.463,374.3217
-478.25867,1636.3279,180.35976
-54.0403,939.1586,207.17157
427.62717,696.0507,121.24735
905.29865,409.0151,126.764275
885.4506,452.91425,129.87102
757.9578,446.76285,51.14621
-134.63924,2040.9558,-257.85593
-1626.155,4339.5063,-145.3892
-1977.4039,3963.569,245.6514
-1708.5092,1988.6133,51.194427
-1191.9641,554.7069,-11.952172
-928.4703,-351.61606,-163.32738
-753.41595,-1294.6698,-332.8402
-769.79694,-1290.0502,-146.31856
-970.30676,-892.02136,12.573351
-1017.04584,-2.5366156,-410.57407
-1601.9644,433.95255,371.15018
-2609.2754,1865.8154,1683.5352
-1644.8289,3181.2515,1631.7384
-733.9808,1621.03,1482.6898
-167.34885,872.23553,763.5139
185.4503,724.7966,517.02637
624.1424,387.8918,340.03946
939.54126,145.1029,290.23376
963.3417,408.65997,94.00703
449.31158,1027.5531,312.51135
-4.284524,2096.1387,354.95935
-863.397,3569.7715,555.74335
-2158.6265,3303.0469,862.2451
-1759.2756,1848.2582,364.11548
-1343.1476,669.147,279.2496
-1015.7751,-472.00226,-34.57818
-709.5616,-1230.4515,-267.19788
-680.8703,-1249.191,-94.67128
-891.77435,-891.1346,81.649666
-1106.8365,-322.90097,74.77257
-1878.3064,1354.3436,215.8938
-2180.8677,2933.8274,622.57336
-1318.8721,3177.571,739.2721
-388.9426,1616.9141,534.7974
-23.091627,1132.4165,347.88696
355.46603,655.9321,113.22012
574.0735,350.0078,111.87084
876.2113,100.61123,84.01407
862.6829,328.00604,44.087303
758.8355,482.1683,-122.41309
-517.19543,3137.7173,175.95818
-1535.7471,3768.2883,458.07547
-1997.6654,3064.1587,777.44727
-1811.4579,1667.134,336.0321
-1031.908,407.72946,-118.55195
-710.75354,-199.8393,-99.70816
-490.78598,-667.18146,-223.93141
-568.6059,-884.9669,-345.68503
-977.11554,-640.0326,-272.19733
-1059.3539,-525.1876,-12.195665
-1438.8223,834.9595,491.9135
-1712.5985,2429.9758,1058.7106
-1354.5364,3100.1663,1623.2826
-575.18304,1798.1747,1252.8854
-18.27186,853.38995,716.2191
295.71063,524.8959,351.3651
599.04315,351.9084,231.07533
919.44385,438.27606,154.09773
905.59717,413.6286,55.254177
832.89264,446.02325,-120.19111
274.71344,1681.1808,395.84995
-848.4268,3677.8933,1015.76917
-2041.4825,3663.162,1362.5227
-2066.5798,2062.699,978.85895
-1527.4086,1058.2948,425.87582
-1139.214,-162.48657,-21.065298
-792.13934,-1068.8411,-409.65738
-580.912,-1305.7582,-440.3089
-791.0004,-854.8947,-49.197453
-945.92584,-611.70776,-35.022617
-1536.1799,578.4051,352.19446
-2249.967,2079.0842,1013.20575
-1811.4603,3285.0005,1023.3225
-878.3205,2335.5425,945.5914
-245.39252,1000.57166,507.82986
147.19325,690.0336,304.04007
832.5767,351.4906,304.2726
1120.7809,137.50438,270.24387
949.6997,176.79988,131.85027
487.35474,227.5111,2.023528
173.28424,1542.0151,-5.837473
-1505.0862,4140.664,461.16626
-2334.3435,3238.3318,270.74368
-1669.6836,1933.2115,225.17162
-1298.7323,669.3133,139.62958
-919.57635,-10.53553,31.069407
-661.8197,-873.799,-206.18185
-457.82343,-1044.3884,-108.35504
-663.37854,-656.149,68.04124
-716.5719,-435.36627,98.5955
-1243.1119,393.78067,200.61935
-1827.0765,2000.4557,542.81775
-1798.3462,3295.8494,633.8981
-1088.0154,2059.157,354.35532
-461.19443,976.16455,276.81454
64.44248,516.9785,307.96585
568.902,172.65848,217.39407
1049.694,-18.443779,233.53127
810.4256,325.69492,314.8237
658.6335,405.6517,23.953276
-362.80548,2114.3345,94.04587
-1382.0891,3098.4768,400.29443
-1722.1462,2494.402,354.6905
-2185.7212,1562.1942,285.15723
-1625.0913,530.2901,-115.10937
-862.36,-193.5014,86.32507
-256.85068,-769.26514,25.837168
-9.017498,-829.324,-32.77719
-206.96655,-726.23846,-109.54398
-672.4375,-286.0331,74.95524
-1541.8484,-73.51462,-202.59523
-2798.6064,1283.0726,258.66827
-2653.4446,2054.9888,1045.0012
-1417.5022,1814.669,417.40652
-662.4781,1254.7511,527.15717
-81.031815,684.05493,508.9887
509.3338,629.72705,528.0211
899.9595,465.21115,599.63947
910.99274,157.1228,416.0915
661.1763,553.32355,-212.24803
-100.76055,1932.8993,-110.24543
-1173.8082,2931.7925,247.38095
-2342.974,3377.5312,271.71292
-2252.919,2314.2463,305.17975
-1536.237,1022.43524,248.41913
-1099.9894,-110.89747,62.728447
-722.16895,-1070.1705,-247.52695
-609.25006,-1470.6477,-134.84149
-810.9238,-1024.816,-55.41558
-1019.61536,-563.8686,72.80706
-1426.9833,133.52615,261.18033
-2171.6104,1391.0798,898.14087
-2279.3293,2815.1033,1108.486
-1192.0754,2650.5125,749.604
-364.0297,1223.4978,502.77576
110.767456,757.9561,98.092636
535.0416,376.35196,0.4283168
735.6965,133.66425,-76.4829
761.4979,126.68911,-37.508904
388.82837,589.1651,-57.23032
-552.5848,2047.453,189.72697
-1606.7175,3189.981,417.97366
-2118.0461,3003.6453,617.6944
-1648.2822,1968.6875,470.21716
-1153.5087,794.5233,406.70724
-865.50793,-394.1643,-2.2962701
-631.7519,-1574.836,-266.0884
-680.6164,-1496.619,-150.93942
-977.1062,-1074.7404,-125.231
-1429.6981,-229.67711,-75.927216
-2373.5994,1435.2444,550.4059
-2345.1255,3112.368,926.3942
-1089.1982,2408.5278,729.93085
-364.81094,1077.5508,553.40814
125.18993,685.7934,356.00674
525.1741,505.9434,374.24677
971.14246,286.37805,270.7943
1011.1942,253.99567,74.208534
693.77576,868.73145,106.60938
-210.0081,2163.418,181.5732
-1216.6543,3088.97,331.81253
-2269.4563,3603.921,592.39636
-2200.31,2193.886,363.31165
-1507.1328,935.42426,107.18829
-1078.3341,-328.7922,-150.77063
-711.64923,-1425.1208,-612.90234
-506.49765,-1515.3223,-417.11996
-735.0787,-899.9752,-130.33191
-921.6681,-472.5205,-44.493908
-1875.2086,760.51166,671.873
-2318.683,1750.9048,1324.3049
-1644.332,2321.1125,929.3707
-761.5346,1973.1853,669.66156
-267.3359,1230.8967,506.7306
33.70273,825.42505,281.3354
609.6945,603.29443,239.70813
1057.4128,779.1665,260.96423
1025.7952,787.8947,-181.266
364.55896,843.31195,-31.718706
-730.1813,2514.8372,766.4928
-2349.9014,3234.7808,863.9013
-2524.1912,2205.69,837.5604
-1658.5172,1449.7606,502.4042
-1211.5891,637.24536,46.549515
-789.1879,-177.04333,-177.59343
-573.9015,-713.8014,-417.8423
-529.32245,-869.2481,-333.9546
-695.5477,-839.9597,-152.64908
-659.14044,-471.1021,-28.68346
-1223.2412,420.10986,406.8371
-2128.3967,1691.4302,1324.6494
-1999.1271,2597.474,1777.9388
-874.1985,1507.4463,1212.005
-323.15433,896.7311,926.8579
128.18118,619.33466,578.808
569.68494,425.90576,355.29312
1070.0128,268.91095,269.30734
1159.9834,203.47633,219.5107
840.87366,414.80325,106.58918
397.00818,1382.7622,246.10284
-1143.0537,3836.9187,748.53815
-2558.6448,4091.9412,765.1149
-1817.9432,1884.798,302.85376
-1430.7949,1019.60254,192.11789
-907.2524,-68.14225,-103.076256
-707.7072,-626.11743,-255.25522
-537.25714,-1057.7538,-267.4212
-707.2146,-740.3407,-86.35762
-733.7069,-749.6105,56.814663
-1094.1321,288.1474,199.06018
-1867.4672,1541.7258,615.03735
-1953.3585,3335.661,859.49365
-903.70465,2462.6562,780.29144
-396.6974,1362.229,649.99603
58.753773,598.36206,374.33295
532.1926,386.9787,153.16217
813.5896,135.48235,154.603
631.78705,408.12927,358.37802
413.3564,559.9568,163.35722
-138.44186,1725.1464,221.56532
-526.6511,2412.3276,229.85046
-1432.4132,3481.0215,374.0899
-2223.3206,2800.262,399.5417
-1844.5428,1375.3563,239.31987
-1148.3287,70.463,-67.27129
-757.4545,-705.97296,-273.99268
-538.71466,-1286.2554,-182.41728
-526.40356,-1006.2412,-42.81179
-873.0212,-890.16785,-47.35655
-1244.2596,-4.491495,50.701714
-1920.4236,1082.7471,64.367775
-2452.157,2665.5134,644.0742
-1568.2229,2690.8362,684.8146
-647.16455,1721.5549,548.5765
-194.42094,987.65564,499.7217
463.72952,665.59143,322.9672
976.57825,109.78762,320.4659
1061.9884,332.27444,307.4848
904.7636,57.472477,-10.993514
236.21591,1236.3562,-340.67355
-1509.0856,3835.6206,412.06595
-2609.2622,3512.4739,241.80663
-2561.3354,2746.8955,-13.923142
-1792.5826,1092.3802,65.93676
-1203.2888,186.88431,-180.36682
-1008.06506,-314.87613,-139.2548
-672.57556,-1031.2576,-170.83423
-452.51984,-1327.8542,-277.0289
-724.7931,-1106.9188,43.910706
-921.2041,-399.50137,188.23572
-1949.464,1604.7582,416.658
-2196.044,3680.732,790.07776
-945.5301,3172.6855,1280.6272
-274.93845,1307.566,863.4428
108.85322,796.63684,532.822
439.59164,-89.6347,269.95322
910.3106,118.766495,149.29654
1011.1789,59.630005,67.98055
678.17554,208.75465,69.68149
434.38016,570.4373,162.7437
-844.9053,2825.5461,848.9011
-1896.022,4036.7393,1157.282
-1326.1459,2502.3877,1132.4042
-1185.6305,1589.1672,865.48584
-935.7083,502.93198,450.28696
-832.6142,-162.97565,48.697006
-717.3616,-814.26404,-291.24728
-807.6986,-1106.9552,-474.4888
-837.3393,-904.476,-152.97896
-999.1676,-288.717,356.18835
-1483.9043,1401.5922,872.65265
-1737.1646,3282.7246,619.19794
-1190.2603,3227.3936,320.64294
-48.15124,1471.5256,193.28154
168.43686,710.7997,137.27034
491.0354,464.80368,194.0115
725.4471,249.25206,176.93695
971.5505,151.07425,27.887735
752.1454,-0.19272935,-28.238808
318.6766,1189.2123,-464.4127
-1064.4517,3496.5027,-104.25459
-2364.772,3521.8574,351.25104
-1923.5636,2203.193,216.98076
-1522.7434,1085.9725,168.07304
-957.7295,261.2851,59.689167
-670.03485,-621.1507,42.550385
-437.77313,-1251.0734,-30.917913
-517.9536,-998.8106,79.831245
-754.1937,-717.45935,51.172703
-1148.9279,174.10188,74.552734
-1802.4384,1847.4319,93.20931
-1815.6003,2462.9639,495.3352
-1134.5217,2496.584,382.0152
-547.4593,1780.233,142.84906
-259.8594,1377.9742,139.4769
129.42665,489.9394,95.95237
505.83228,267.549,53.090443
900.04987,7.4838576,196.13132
866.7897,202.99661,281.7671
600.9137,171.68672,71.781296
-155.97556,2022.468,-38.35407
-1737.3248,3405.6865,290.34363
-1881.9156,2533.0933,233.52782
-1493.1459,1703.5138,183.48538
-1146.5411,646.4744,154.44377
-703.9326,-230.84248,-22.36885
-326.3257,-982.602,-140.19223
-377.21158,-888.8233,16.273605
-547.9005,-770.3086,-45.02767
-1054.2721,-202.76248,-20.075148
-1583.747,145.82983,-51.002907
-3054.6846,1332.5927,377.51703
-2678.8782,3049.9165,-107.33326
-988.4551,2142.4233,-57.203823
-263.45685,1201.0596,-155.55577
304.36255,871.3221,-219.7221
780.3681,713.9427,4.3758917
877.7769,597.1681,308.307
702.837,455.39053,341.7192
299.8864,848.82513,-108.069466
-490.67102,2180.4924,-246.84167
-1549.9666,2600.017,247.83748
-1951.41,2544.732,279.0081
-1555.6206,1472.4655,124.837326
-1066.4014,384.14395,79.70048
-506.629,-715.3626,-223.50311
-452.53354,-785.701,-74.03354
-491.49942,-776.62225,-49.211464
-755.8835,-682.05817,-168.9305
-1045.814,-286.95416,-33.293743
-1864.4128,776.7929,173.61546
-2503.0876,2792.8743,741.07104
-1722.6136,2608.1282,897.26483
-582.52435,1099.3899,643.0223
-98.90799,516.82526,465.3971
316.43253,354.45407,383.45963
605.0357,322.8117,379.24734
739.24316,186.22662,269.85855
558.90607,284.4776,100.485535
189.01654,1005.04834,-19.640306
-648.1821,2587.388,165.5291
-1692.3623,3191.3125,232.73277
-2102.399,2668.8037,190.62086
-1576.9479,1632.3815,110.87209
-1093.963,1072.5277,153.53525
-517.1669,-22.669315,-49.986057
-473.23975,-1329.572,-333.11057
-558.01764,-1448.3884,-135.54034
-936.65405,-1116.132,-59.97634
-1203.9261,-91.06363,95.45548
-1560.232,1007.678,165.96075
-1793.9113,2912.6692,861.7894
-1360.4409,2936.7776,823.5497
-399.26547,1410.1774,590.81775
-80.919556,1042.9005,682.7036
335.98544,265.72604,555.1339
489.95108,-97.1747,462.86588
582.25885,-214.0426,303.15945
361.70233,83.37137,226.93225
233.17606,137.84566,99.36419
-516.55505,1964.2034,368.45505
-1566.5188,3378.2302,576.49054
-1817.1963,3030.8506,482.4056
-1528.831,2062.2756,408.46585
-1008.5848,840.93646,145.47925
-667.25323,-116.7788,36.114212
-510.1745,-618.26843,-76.69855
-307.01822,-965.0341,-135.53363
-601.2123,-759.53613,-99.15048
-797.34344,-645.53845,-64.38261
-1243.614,70.25197,-103.4278
-1981.8828,1934.9025,359.79623
-1811.9286,2885.809,791.2172
-931.3905,2268.098,751.91956
-314.81454,1535.6866,754.55817
-53.990314,876.76666,559.3125
295.91998,300.6162,317.76624
704.05054,36.045734,209.7718
819.43585,151.39726,196.08037
615.182,69.326126,111.01137
114.04582,1401.4783,286.2254
-1136.3707,3193.006,865.03516
-2040.2109,3362.1667,1164.9998
-1529.4071,2083.0571,560.35876
-1080.3362,1099.238,192.89145
-750.9535,222.29332,64.05715
-631.5929,-352.51202,-103.72565
-505.19995,-1039.8738,-263.63467
-631.2176,-930.60864,-303.26562
-810.9214,-848.70386,-123.0027
-1303.9353,180.78638,154.91182
-1965.3286,1997.8575,562.4926
-1699.759,3240.85,1022.8948
-688.51337,2279.0332,810.1908
-98.39145,1213.0509,543.5815
273.40158,866.9237,408.91278
606.14734,378.9141,261.7268
901.1058,18.405685,99.66736
784.98865,165.04108,117.76238
600.47614,290.0658,61.85424
211.65828,1480.027,256.85413
-841.2366,3688.6228,496.56964
-1942.1744,3448.946,703.7457
-1640.9257,2050.3303,463.09296
-1061.5632,955.87555,193.22035
-635.61694,124.152664,59.143463
-483.0941,-421.08084,-73.530815
-444.44867,-745.0694,-103.179855
-633.25073,-656.75195,-167.063
-836.9291,-586.58154,-146.00476
-1273.407,897.9393,230.75343
-1439.4055,2299.0522,990.67316
-959.9243,2996.8025,1169.5029
-221.24834,2025.9377,969.2987
201.05273,1130.2853,576.78503
456.74927,754.8478,294.21335
541.5994,235.01933,160.34288
588.92474,17.50268,11.673008
580.14825,-45.920006,-51.807
615.7736,98.43832,-40.49273
707.00354,653.71423,75.304886
580.9138,2743.9827,438.5071
-304.53033,3630.3867,877.95447
-832.61194,2668.3376,856.5418
-688.08984,1430.8829,563.28467
-613.2853,440.97266,366.02933
-599.5941,-167.04301,164.49246
-464.3957,-555.5569,51.80629
-572.0212,-428.96735,15.937147
-732.2609,-394.23486,75.714035
-746.69794,934.72186,392.80594
-839.54443,1995.9214,709.78784
-498.31308,3030.8213,983.4457
-14.243986,2492.9712,833.98004
286.35638,1109.8495,512.5094
470.9682,641.7233,218.13011
565.3747,197.62929,129.65175
673.897,-63.829796,-79.637344
791.39154,-103.31313,-73.48116
746.5527,-85.34141,-149.23769
744.4545,936.3314,169.38402
304.64056,3260.4077,904.5686
-577.93665,3957.7222,1104.1779
-904.19305,2373.5317,878.70703
-756.05237,997.80505,499.8873
-552.12134,287.29745,179.14565
-555.455,-311.69525,-95.88949
-490.7173,-664.6997,-193.05765
-639.0535,-751.10864,-216.58098
-799.67914,-388.08948,-9.077128
-953.47046,1012.45325,610.9102
-1110.1917,2534.9707,1083.4257
-377.98248,3499.5613,1141.7246
-29.402353,2300.8313,923.4214
162.67958,881.3537,500.17294
311.92606,509.47076,359.73456
461.21274,61.566498,179.28917
431.90585,-238.82378,47.30624
602.98553,-409.8283,-59.254955
685.8722,-279.56982,-172.4476
741.9331,382.7891,-53.30664
259.43484,3469.4492,408.48654
-780.47437,4694.7764,804.08356
-938.51215,2642.641,682.1681
-904.1034,1075.1548,373.63733
-621.5024,31.362291,210.32857
-495.31036,-544.02997,57.92383
-518.0007,-643.2541,208.99292
-660.77435,-585.8072,322.2691
-710.0301,-468.66614,113.03812
-1079.2297,299.08798,327.45004
-1657.87,1996.2551,-107.20403
-1339.166,3716.2236,-1235.1952
-296.5279,2910.5154,-812.1149
256.71182,1555.7247,-407.46747
325.84396,744.83014,-31.001442
679.5156,17.883259,-113.8707
767.43097,-374.5557,-2.8699148
659.71173,-167.44852,176.80763
596.4318,-9.690576,-33.68284
490.8039,993.3263,-436.8481
-310.88715,3834.2605,-242.82033
-1173.2747,3872.303,-47.923832
