# PAMAP2 dataset (wrist-mounted sensor)

acc_x[mg],acc_y[mg],acc_z[mg]
-683.65735,-430.43292,110.927925
-657.47784,-1033.4271,119.11137
-536.7279,-918.01917,32.402287
-454.22925,-948.8149,-46.51679
-668.56323,-1327.0404,-310.18692
-1219.8446,-2158.8477,-611.47217
-1847.599,-2843.844,-885.5153
-1998.9983,-2974.0383,-976.7749
-1579.192,-2017.2631,-517.73584
-866.9396,-945.84515,-314.22015
-766.15546,-326.95197,-297.18686
-408.23495,97.77343,-163.06743
-705.734,434.04892,123.28302
-564.3078,981.3511,2.9704986
-612.5641,788.1482,-614.78564
-603.40656,621.149,-400.96426
-1009.1943,544.9014,-109.264595
-1232.3224,536.5177,-561.51355
-3883.5469,-2325.8691,-507.12103
-4295.916,-4490.1904,402.62164
-1335.5613,-2927.749,145.63039
-219.52625,-2039.9164,173.79117
244.01443,-1290.5164,219.65565
507.4958,-968.2751,295.66528
501.51706,-387.5331,519.73975
508.6639,-385.86154,509.1196
394.03857,-241.60982,471.91138
389.8368,-527.3878,328.3328
65.21165,-1003.1796,-0.7518623
-0.07822076,-2669.4753,-352.2342
-885.5751,-4566.1685,-355.03494
-1139.8917,-3486.844,-444.51285
-949.557,-1811.5139,-245.11346
-847.92,-433.636,-101.89182
-893.9168,5.703634,-40.25486
-1010.2128,684.6127,-271.52222
-886.65686,887.981,-458.2351
-832.3824,687.7401,-296.95035
-1033.786,490.27298,-216.31158
-1169.7687,346.18616,-281.01923
-2299.669,-474.93323,-559.572
-4580.464,-3678.3806,-32.824844
-2862.8953,-3923.2744,177.33562
-578.20355,-2110.9524,155.9024
262.88577,-1340.916,224.84117
725.94543,-904.4621,349.3102
500.78088,-584.4441,551.8758
582.17834,-326.57773,448.1944
362.42682,-665.92365,409.1746
436.98666,-684.2939,322.17337
4.712633,-729.8622,179.9563
-6.573942,-2507.4624,-341.34134
-1452.7056,-4847.3936,-302.5739
-1942.7579,-3478.2283,-240.2643
-1190.7487,-1512.0022,-9.344875
-1028.1536,-398.80884,-45.284733
-748.77185,345.8571,-305.17444
-806.8762,711.2569,-263.16818
-741.70874,545.32227,-253.91866
-503.69955,541.5334,-239.06429
-860.6714,508.94455,-329.31592
-894.56085,501.52103,-373.8899
-2164.329,-652.1745,-405.87918
-4587.287,-4051.5552,398.1156
-2282.2249,-3897.0132,495.9733
-433.07663,-2067.4485,322.1594
424.93234,-1216.1523,191.65785
952.6268,-727.0808,163.72365
602.16943,-544.5292,549.9767
507.78653,-489.9423,441.82062
439.08746,-541.4417,330.1859
408.50122,-750.4041,313.92075
-168.16708,-1071.862,-21.010803
-102.50012,-3169.2405,-577.2734
-1318.7162,-4734.557,-384.8891
-1294.2924,-2136.8206,-309.61255
-548.22565,-787.986,52.071953
-672.76654,-75.86904,301.18048
-331.30414,212.25993,-140.82097
-599.94366,667.84216,-345.87207
-687.6303,432.34122,-372.17584
-532.3781,268.563,-229.77176
-830.404,25.604473,-316.32486
-839.2966,878.4388,-424.32037
-3212.5254,-1514.8469,-303.9355
-4290.773,-5421.449,252.05914
-1018.8765,-3012.5732,333.59964
138.54884,-1632.6868,57.183475
971.9984,-777.57886,77.16517
792.91364,-623.5482,399.3073
719.09564,-244.19261,464.19162
605.8544,-526.29803,304.83316
768.56445,-590.51654,354.00143
531.4177,-833.4572,230.79031
457.2692,-1697.0933,-428.98248
-118.712425,-3833.1182,-632.249
-1350.4918,-4752.0796,-540.8414
-1199.6633,-2314.0405,-229.59212
-661.4283,-259.43112,98.191986
-671.8973,3.1038074,16.648966
-513.58093,452.12585,-24.847452
-788.97815,716.39374,-322.5651
-701.4812,406.47415,-188.00717
-909.10266,404.31152,-250.59077
-1091.8088,356.0958,-390.94678
-1798.1721,47.89252,-486.74
-4348.7866,-3694.7993,362.5769
-3158.2332,-4498.4062,390.26114
-569.8435,-2550.5798,149.22299
228.73204,-1410.6864,147.73749
861.4405,-646.37823,204.43631
773.76276,-396.4766,321.0146
787.9996,-301.60788,324.7072
667.79333,-689.69604,332.1823
977.2926,-680.26575,383.5978
534.23114,-884.6387,57.786343
459.95398,-2856.9956,-399.66595
-1047.8292,-5694.0205,-680.3991
-1702.7426,-3520.4119,-368.76593
-997.6462,-1079.63,-97.25396
-956.266,-241.88213,46.78682
-712.57043,376.95926,-15.310767
-820.73834,892.00775,-338.96274
-879.03394,696.98364,-278.88208
-713.9168,538.476,-195.05466
-1043.7067,195.93188,-282.7312
-1197.1222,497.42233,-410.9772
-2929.1406,-1573.023,-249.84683
-4116.0005,-4757.311,199.85022
-1423.268,-3628.1316,71.49618
-163.5942,-2107.8613,118.06392
632.9419,-854.07056,228.96614
968.447,-513.0853,331.07034
873.9643,-308.31506,414.01453
728.8923,-374.16302,437.48166
686.0417,-564.25446,430.6785
414.94467,-926.07043,246.96739
219.41856,-1451.9423,-292.6166
-93.639984,-4388.3,-642.0587
-1729.5509,-4818.8145,-477.85016
-1160.0668,-2204.6777,-347.0932
-976.3578,-529.22217,-10.341902
-1006.62396,56.95964,278.3587
-824.9948,593.7359,-64.898636
-771.7349,1062.2844,-474.29306
-860.59546,561.84247,-278.35733
-966.5897,326.15854,23.192286
-1051.4105,515.6151,-303.99774
-2302.397,-1026.2701,-226.02449
-4076.6836,-4301.5796,696.9218
-1969.4702,-4130.39,392.71597
-170.09686,-2175.7844,432.84988
680.7466,-1011.969,321.61273
1049.7115,-498.96622,340.43494
874.3784,-342.05368,224.64267
686.01196,-658.6003,326.7672
761.45917,-673.4555,357.1906
497.3631,-695.76105,260.36044
287.5758,-1525.6,-155.2205
-364.9078,-4169.031,-362.638
-2115.3535,-4789.863,-347.53348
-1395.683,-2080.1775,-141.37811
-1068.0724,-490.99252,56.05736
-993.44653,296.25583,27.604239
-782.3084,858.7206,-133.59294
-607.35,895.26056,-257.6588
-655.8885,552.89905,-316.49557
-732.13007,535.9448,-314.74377
-853.5142,366.0619,-521.5453
-2193.3657,-43.999825,-391.9628
-5093.459,-3744.3572,-771.6122
-2770.7876,-4166.817,-514.717
-429.21878,-1859.356,-449.95404
520.933,-1230.8755,-199.36441
998.5806,-890.18555,272.9233
945.0962,-679.7738,57.44897
868.63617,-729.15106,494.7533
909.75806,-722.68567,395.33185
589.7562,-878.2805,263.98193
277.2454,-1513.7063,-440.8939
-657.3849,-3942.0317,-1200.7593
-1973.5663,-4728.5254,-1266.6992
-1376.1422,-2679.7239,-554.76984
-936.83624,-939.7485,-162.82564
-994.2029,-2.7597528,40.309376
-1159.7054,374.31418,32.168682
-802.07623,1079.159,-361.20206
-949.8788,934.3861,-521.7414
-1071.1156,610.1279,-187.2442
-1307.44,212.23416,-333.2987
-1406.8922,352.23874,-504.7957
-4281.94,-1840.1748,-592.7366
-4676.654,-5424.6553,-966.2244
-1227.6487,-3393.1296,-574.8316
-63.962418,-1509.5453,-294.46524
932.90643,-997.4271,112.94734
912.2674,-806.1153,226.7647
976.6094,-1011.30273,369.90485
1003.7301,-1029.4705,572.5448
714.0407,-1016.75354,544.2782
162.43944,-1384.8197,-267.75974
-628.994,-3956.9922,-964.7342
-1996.2201,-5021.1587,-974.96643
-1529.334,-2596.5232,-579.4595
-985.6014,-789.45886,-247.25407
-1110.6434,52.125633,-133.92316
-1081.677,574.85876,-102.6692
-824.9811,1219.4854,-413.43973
-908.4953,1012.69196,-309.5142
-1221.007,605.4046,-272.3865
-1495.0083,279.63522,-479.63583
-2332.3335,-60.20364,-705.0507
-5145.73,-3650.2456,-349.56387
-3481.5896,-4867.4736,43.45979
-790.44434,-2791.5923,185.68608
195.05225,-1796.0441,695.47723
1098.8789,-956.9508,842.82117
1119.1871,-428.57748,688.24646
759.8535,-562.7616,588.81915
343.58456,-911.48035,352.8994
118.19805,-1213.1586,92.00292
-292.9413,-1794.7755,-368.3919
-924.4957,-4109.14,-1043.1257
-1779.9738,-4462.554,-634.7779
-1154.8335,-2190.9277,-463.55032
-732.7903,-561.8028,-337.3895
-836.3659,105.284584,59.292156
-962.187,606.9175,-66.06024
-1018.1838,1044.9044,-361.06793
-1104.6053,609.8881,-255.33247
-1092.5187,774.8934,-257.82434
-1445.0945,294.64673,-430.343
-1962.4662,-124.256165,-755.9354
-4724.8813,-3164.7473,-342.6585
-4467.224,-4815.2725,-181.74734
-1128.437,-2966.7993,-13.77693
209.57845,-1592.6598,451.15387
1020.94403,-1158.4686,700.9661
944.87756,-541.9309,767.51074
765.7906,-651.92786,712.3465
522.7946,-677.2927,553.29285
530.61053,-1001.90753,376.36508
71.63106,-1230.4934,26.564123
-278.66763,-3394.2488,-676.38904
-2178.918,-5283.549,-731.1177
-1969.0438,-3146.5269,-412.86697
-1084.4299,-789.0332,-220.02612
-914.12665,164.20226,54.537334
-788.45526,1011.4778,-384.97974
-1003.5434,1582.9661,-802.37573
-1282.2898,808.2077,-303.43393
-1347.9579,405.29044,-390.3571
-1671.1437,95.927086,-573.08405
-2052.373,64.36331,-694.9605
-4899.4487,-1830.9393,-397.74442
-5089.0513,-4133.391,-199.41869
-1741.3163,-2991.9988,356.69882
-193.20506,-1777.3245,707.3713
680.0807,-1165.0511,752.62823
714.1317,-433.76328,778.03064
737.4697,-325.27893,739.9916
506.68634,-534.69904,689.34174
631.95013,-732.12225,568.87177
316.7839,-1020.20483,242.5947
112.896835,-1893.8124,-440.95987
-1239.4521,-5446.7656,-1292.4235
-2329.75,-5140.393,-1196.0999
-1646.5592,-2358.6338,-631.4608
-1212.9592,-356.47708,-233.16313
-1259.0269,674.14557,-60.98636
-1261.7236,1598.5127,-488.5681
-1216.2435,1371.3228,-544.2405
-1220.5042,849.2783,-276.92984
-1435.3044,378.7398,-466.21768
-1587.1041,275.33356,-457.88046
-3452.81,-1621.2233,-280.38144
-5088.5884,-4720.3486,-48.728756
-2110.2576,-3370.8406,63.908195
-420.56924,-2093.0347,282.18726
458.13748,-972.52167,299.98022
713.87476,-543.4524,362.8824
583.7732,-327.72406,467.2228
659.7541,-533.42566,570.9764
769.92755,-255.1621,490.0802
614.18585,-797.54663,453.47034
296.8247,-1193.093,-279.35327
62.42609,-3709.1155,-663.7838
-1387.9258,-5726.731,-642.3225
-1499.1808,-2855.9998,-569.1591
-925.8043,-711.9178,-99.24754
-1089.7261,-10.402799,153.7274
-805.1359,470.13242,-199.5207
-803.39575,634.1781,-417.9137
-905.939,411.67993,-195.64503
-1008.4024,436.69498,-97.63893
-984.61664,161.57892,-315.48523
-953.04114,575.753,-299.51422
-2602.01,-890.5641,-318.28308
-4977.97,-5411.396,506.83
-1784.2249,-4124.933,642.23035
35.68147,-1929.6133,498.64487
839.8408,-1000.7345,469.52008
893.2457,-533.0807,741.6781
825.5745,-481.93555,391.03986
758.84204,-284.65433,116.74252
829.7809,-527.6061,458.6842
491.0925,-934.11017,389.11636
451.65268,-2355.5925,-175.08932
-457.73886,-5560.835,-88.91129
-1811.4448,-4198.139,-91.96512
-1347.1246,-1468.3501,-282.01968
-1167.2468,-274.4959,-150.63383
-960.7693,469.52875,-203.81082
-712.1037,869.3749,-327.8382
-727.73035,703.16,-385.96854
-758.9478,542.63324,-225.29265
-1345.1588,310.82968,-282.16415
-1414.0234,642.9411,-583.5177
-3869.9353,-1242.1395,-165.40279
-5216.2964,-5177.5547,411.33173
-1737.969,-3370.4153,364.4622
-38.450153,-1694.6351,94.114395
817.90247,-922.53406,321.4426
827.86346,-504.61523,622.6447
957.8103,-162.77042,448.808
821.81616,-540.2764,399.04193
817.7868,-806.696,562.8773
476.34787,-1149.8119,189.90738
317.58783,-2070.6006,-528.04834
-616.43335,-5017.6045,-1168.9077
-2077.408,-5114.832,-1136.0404
-1498.2166,-1690.4271,-486.27612
-1215.6448,-291.11404,-134.16725
-1064.2008,378.816,4.5714307
-900.9958,1202.4948,-362.57333
-920.2504,989.42615,-370.68423
-948.5279,537.4929,-102.14562
-1099.8035,274.02936,-203.82826
-1338.7235,335.74478,-474.06284
-3130.5825,-1016.7625,-217.04575
-4812.8447,-4996.3267,-5.573207
-1787.8604,-4165.962,169.46902
-32.21187,-2112.3523,301.4565
840.0801,-884.6818,223.8218
876.2955,-507.6089,487.2624
932.47455,-286.7378,307.38873
983.18524,-556.3796,369.4993
954.61816,-787.1272,410.17755
356.092,-1217.1445,305.6101
-29.296915,-1725.5197,-178.55728
-894.1869,-4481.872,-801.2177
-2007.7163,-5395.787,-885.05316
-1637.5239,-2703.1294,-631.88055
-1218.016,-726.974,-379.5557
-1436.1825,548.98706,-93.39782
-1116.8475,1477.2374,-384.50705
-874.01874,1683.9459,-826.8331
-1097.8483,793.76843,-522.0787
-1338.6993,515.6994,-503.11768
-1784.6277,96.09253,-954.4623
-3609.061,-1017.33875,-784.60956
-5845.2876,-4808.368,-676.1869
-2518.621,-4273.9873,-69.90824
-382.16336,-2006.0453,205.05281
579.624,-1265.4554,344.14816
754.4149,-768.9067,524.6644
575.55493,-499.44495,469.50806
704.3279,-727.25397,710.6364
679.1212,-766.22095,501.0682
453.92123,-1032.6721,273.2423
236.5908,-1321.9928,-267.13715
-132.8192,-3717.7031,-1036.0332
-1361.1666,-5631.601,-1534.1388
-1647.8033,-3340.6042,-1010.8215
-1564.8727,-1126.357,-367.1828
-1417.8982,77.69527,67.426834
-1310.4554,1013.1747,-215.6799
-1143.77,1124.3062,-321.5766
-974.4718,900.34515,-206.58365
-1127.3608,442.96954,-16.611795
-1253.9222,60.340466,-314.17035
-1943.614,157.21967,-285.6406
-4202.834,-2448.6394,-51.506657
-4507.9585,-4562.892,76.2635
-1416.8691,-3097.585,305.0667
38.417934,-1473.1621,93.12323
764.64966,-788.6011,222.21042
1065.475,-525.445,352.93796
1067.9352,-735.9556,447.1831
957.42676,-611.4082,597.83685
891.49756,-871.79846,555.7863
649.33185,-908.5896,18.593569
50.69365,-3670.2822,-800.9815
-2665.0217,-6412.6255,-629.47906
-2370.5015,-3234.1143,-471.7245
-1635.9034,-811.3802,-459.78937
-1344.7491,209.93747,-188.63562
-1036.0981,763.1665,-59.919647
-491.14856,1351.8134,-521.2974
-716.33575,641.06885,-501.05453
-771.7576,606.79114,-129.62636
-1066.6896,47.51222,-208.79301
-1381.544,498.6327,-313.74384
-3794.133,-1990.212,1.8069365
-4611.869,-4363.568,-80.5447
-1456.5562,-2966.1619,4.3811574
-174.26988,-1666.5963,-147.35
647.391,-667.5936,-117.74196
952.60266,-590.2522,148.63808
1039.1919,-510.7888,246.45409
890.56586,-583.574,385.944
1027.3259,-634.80835,305.6728
780.4799,-1241.6549,-171.95694
240.12686,-3103.3818,-1309.0094
-1436.92,-5347.1113,-1676.9701
-2036.0962,-3431.735,-1149.6329
-1517.9701,-870.9616,-286.1218
-1378.2302,176.69789,-55.936802
-953.62366,725.1267,-284.3884
-767.17267,1265.2507,-380.19678
-930.91766,800.6232,-183.96545
-1055.8441,232.49774,-307.07254
-1171.9767,301.85437,-487.24463
-2204.6318,97.70033,-326.2666
-4651.2227,-3747.2175,-194.17578
-3109.1116,-4715.4478,91.61923
-346.04755,-2488.7307,336.56174
626.60034,-1231.08,466.81186
1120.2584,-576.18414,690.5921
759.3451,-141.5997,556.942
793.9367,-236.71481,372.85956
507.46524,-659.4788,457.20728
594.8204,-756.17474,424.5063
226.40565,-1027.2396,10.712471
268.33902,-2724.4497,-410.7868
-1499.9425,-5641.142,-614.1521
-2045.3809,-3825.2625,-619.4091
-1295.3765,-1227.2465,-200.69644
-1006.96466,30.814302,-69.12208
-925.3254,509.47995,9.776669
-681.6632,1110.5103,-384.41238
-655.1765,755.4343,-461.82935
-674.6296,576.33655,-171.1902
-873.18774,141.47893,-155.79631
-1387.0135,238.93681,-304.75934
-3436.7205,-2580.88,482.3764
-3190.6367,-4982.2676,786.62146
-662.37646,-3022.4827,579.97095
190.46904,-1687.9694,450.4299
992.197,-561.3214,333.6384
747.21893,-309.35364,344.8968
954.25287,-49.242905,326.85638
822.8489,-446.92676,379.99893
960.4938,-433.43747,354.50174
497.61407,-996.75,245.247
655.195,-2693.922,-114.42716
-777.7405,-5859.6616,-164.88629
-1832.267,-3905.9055,-91.96188
-939.00323,-1087.2429,-134.96288
-1085.56,-73.78998,207.30693
-955.95447,546.3785,138.66968
-662.0484,1131.495,-596.3092
-824.48364,595.1623,-424.89886
-747.69293,487.15155,-123.263306
-1018.2413,4.0522175,-152.63226
-1043.4569,400.9135,-578.61957
-2918.5376,-1665.4541,148.4348
-4505.1963,-5421.6426,281.99005
-1452.6414,-3904.959,341.53403
28.775373,-1637.836,264.2906
1074.1277,-600.2847,239.74347
1051.7695,-320.58554,506.41522
962.5784,-254.84984,497.6399
747.0152,-499.62943,312.18964
847.63007,-570.1369,326.95087
821.8811,-701.3802,69.72922
766.5663,-2283.7942,-358.01343
-693.09686,-5868.139,-613.36426
-1859.1627,-4539.319,-645.51544
-1148.8427,-1248.4581,-299.95386
-1072.0652,-208.75449,169.36127
-809.20746,527.1733,97.12611
-725.01953,810.1986,-430.7256
-850.3226,426.39642,-370.68832
-778.6227,488.33707,-136.98573
-994.34344,156.86327,-187.3988
-1094.5574,253.81953,-453.0283
-2429.5725,-579.1247,-107.07834
-4496.822,-4910.469,423.23007
-2009.8903,-4316.806,618.4508
11.863537,-2120.848,378.10666
844.20825,-976.74316,353.117
869.5822,-401.18134,549.6643
855.3068,-326.4748,291.50305
757.254,-367.39902,210.71391
763.9282,-460.5691,440.82773
580.9367,-963.7666,283.2763
553.8587,-1896.997,-11.7588625
-241.44275,-4848.4434,23.909859
-2058.4995,-4732.26,114.06706
-1367.9344,-1592.4384,-123.75143
-1081.6198,-281.75864,-58.16051
-910.2917,446.15945,-1.2025988
-784.94257,662.5636,-142.48796
-605.20197,635.8849,-370.20367
-817.98035,346.52686,-178.01576
-899.2985,286.19702,-140.8852
-1072.2373,302.5958,-322.7167
-2229.54,-513.70264,-143.111
-4291.24,-4205.144,385.22128
-2233.2314,-4407.0366,481.85504
-68.94409,-2478.0862,283.14813
668.5498,-1055.7367,314.46896
926.3797,-557.6539,559.50806
1012.5603,-290.17615,432.91562
1054.1738,-368.50464,351.567
740.6746,-354.62436,426.45984
657.49493,-920.0653,247.29427
541.77405,-1376.8406,-121.87335
139.95992,-4439.625,-543.33154
-2427.228,-6105.803,-846.73004
-1663.0544,-2404.9897,-386.3537
-1128.3546,-583.907,44.04179
-1283.2637,267.8756,297.75223
-832.4589,1236.5443,-417.4607
-840.8258,1098.2524,-572.9403
-764.5286,451.74387,-162.37971
-892.14386,149.50266,-39.898285
-1237.0834,188.50243,-338.08438
-2336.7756,-718.49634,-189.58896
-4348.0483,-4152.1943,264.94614
-2545.287,-4377.952,42.93375
-201.72292,-2655.0146,128.08902
647.538,-1318.037,146.65776
964.926,-656.6845,394.22128
712.67834,-137.83894,412.8258
887.7798,-625.42786,284.0707
765.2892,-420.42245,329.44827
822.14124,-810.9468,335.05573
707.26276,-1051.1669,-59.214893
321.51587,-3845.376,-639.9369
-1748.8538,-5876.448,-848.4347
-2083.2908,-3270.6748,-521.69116
-1369.5421,-684.5242,-241.25658
-1023.43994,103.59103,-26.673952
-834.83624,616.895,-187.54982
-747.189,1122.4547,-489.97733
-831.78424,685.86206,-326.66565
-955.88574,395.87924,-170.88353
-1125.1215,373.46475,-387.65854
-1647.2872,47.931087,-318.63635
-4024.1394,-2679.247,135.75925
-3828.7083,-4798.429,266.92462
-973.7224,-2852.5437,350.1496
177.38829,-1603.7478,465.86133
1032.1519,-950.6694,614.8092
990.28235,-383.0521,585.34375
923.901,-457.08902,582.5152
681.2447,-591.3533,489.5204
630.27344,-991.9811,274.7658
372.17798,-1361.2728,-127.72379
-22.437332,-3486.0278,-873.91815
-1741.0686,-5501.178,-1125.4602
-1858.1985,-2960.3525,-699.39667
-1073.898,-826.1851,-247.59885
-1169.0907,-116.24098,247.52045
-1230.9744,754.58234,-40.97124
-847.6344,1675.2871,-562.2775
-1203.1458,821.938,-204.17668
-1250.4529,252.2306,-189.6734
-1318.66,74.94909,-460.0871
-2318.9736,-393.81268,-235.23674
-4590.7383,-2802.1768,542.5136
-3666.986,-3755.263,986.57745
-910.1665,-2433.823,611.29095
243.19838,-1652.3735,376.2287
836.3359,-995.75726,430.57993
814.6266,-540.0245,617.0302
921.3017,-853.61566,539.9023
894.8178,-974.31903,725.0674
707.87274,-955.3246,557.6122
368.2378,-1284.2141,106.42064
-294.49414,-3976.8906,-399.871
-2801.4006,-6804.703,-865.69354
-2894.4824,-3385.4766,-629.24426
-1778.2064,-147.01605,-374.53278
-1327.5491,753.48785,-182.25183
-887.66705,1423.2864,-266.55426
-881.57043,1227.4478,-268.2131
-895.2757,749.10126,-201.499
-942.4959,355.7289,-432.65656
-1315.4186,207.95886,-432.2539
-2060.5117,-251.19623,-377.91595
-4946.3115,-3313.6091,-11.451489
-3844.703,-4697.0645,390.4715
-721.29865,-2175.6196,575.41205
280.74847,-1182.4589,474.7568
905.58496,-680.683,499.60364
655.91644,-417.7525,590.0879
886.09625,-364.53738,403.0305
712.13715,-656.10095,524.5672
831.7683,-745.5306,447.66238
308.54175,-1183.542,34.395794
-71.86844,-2741.8083,-591.9311
-1922.6921,-5875.013,-1042.6189
-2586.103,-3963.7373,-631.5845
-1299.2739,-1153.4791,-330.4417
-852.0179,12.676297,-278.1697
-858.9996,500.17838,-351.51117
-943.0761,1056.8705,-481.21094
-835.06213,966.43726,-555.51984
-679.98413,631.4977,-368.6683
-1015.6922,376.49054,-273.69736
-1424.5021,320.20798,-431.00247
-3708.4424,-1429.6682,166.06206
-5252.7495,-5104.5137,1001.50006
-1635.8436,-3584.1067,728.65094
167.98286,-1584.5756,503.81122
1019.21954,-999.90045,370.70386
919.7547,-414.12585,612.209
989.5226,-481.71362,325.5605
782.9651,-577.6847,479.53366
866.10205,-526.24634,650.22015
447.35095,-1302.273,441.78992
457.56064,-2450.3289,-80.986465
-1347.7771,-6046.347,-447.7921
-2464.2905,-4758.8457,-679.73926
-1527.0415,-1191.2169,-444.412
-1310.2699,19.99654,-196.37788
-1201.6063,686.56024,133.58739
-840.2032,1210.747,-446.14835
-830.2448,900.1913,-405.5125
-1047.0544,480.05194,-132.07367
-1137.66,153.2969,-144.15794
-1256.784,164.80362,-478.98483
-3044.711,-1262.6815,180.68042
-4677.4146,-4071.9294,721.2733
-1932.8749,-3777.815,732.88635
184.87442,-1748.3602,725.02014
957.2137,-1218.1035,1026.2495
1074.7789,-534.98535,984.3031
931.3715,-343.18695,1001.4532
1131.505,-594.2628,808.7166
1051.3271,-1914.4181,274.93375
-59.039165,-2253.2935,-212.1294
-1097.6724,-4145.09,-1003.4218
-2891.3706,-5713.918,-733.7086
-2076.1301,-2685.948,-220.29253
-1213.561,-1003.8855,-318.03732
-1318.1392,252.6808,-285.0541
-1533.8904,516.5772,-359.3714
-1031.103,1159.0282,-458.7089
-990.58954,832.4729,-501.46017
-1058.5139,554.7562,-77.32608
-1288.022,126.47367,-429.35464
-2359.9358,-680.52216,75.2357
-4113.134,-4789.84,863.69275
-2249.2092,-4855.7817,801.1771
-149.05609,-2554.2117,629.1474
739.3326,-1644.008,346.04623
1136.4412,-846.7562,475.14328
994.2502,-180.36641,441.24033
965.23413,-494.31952,395.3391
905.2945,-405.37363,424.32513
721.6139,-988.2312,259.89655
697.8752,-1289.832,-38.248158
41.323025,-3984.7622,-321.90512
-2307.8801,-6421.689,-450.11188
-2160.9597,-3177.8447,-180.22305
-1618.5774,-748.20386,-57.15112
-1495.2761,201.10896,256.00577
-1165.6735,1126.3322,-258.21024
-792.2172,1369.298,-570.9312
-987.40125,679.7468,-133.36485
-859.6585,311.39136,-185.63893
-1165.2003,86.36042,-268.62387
-1461.5906,314.73615,-318.83328
-4196.352,-2228.5203,246.12596
-4486.331,-5212.44,892.5124
-900.11804,-2843.0164,606.69855
-31.057594,-1573.328,372.13892
816.0466,-715.84863,416.00763
746.59106,-323.40012,340.24677
969.734,-502.60767,504.98825
1053.654,-852.12805,520.5046
1006.848,-846.9301,499.1938
444.90506,-1079.6056,-18.208279
693.2111,-2096.6729,-376.6806
-1938.2009,-5765.449,-485.56934
-2852.4597,-4034.128,-455.33673
-1421.6882,-951.5534,-290.38327
-1056.6753,-81.14242,-84.46457
-853.88837,429.34906,30.593266
-819.66473,1011.3964,-463.29315
-811.3053,1028.7867,-559.45416
-1071.6351,594.10815,-251.79453
-1088.3301,399.75183,-168.31554
-1804.0513,-41.906357,-291.90347
-3393.5017,-3188.3271,162.54845
-2838.1768,-4538.384,381.15326
-810.20624,-2626.8684,432.463
260.51627,-1108.376,377.8769
698.18097,-697.69653,422.63535
787.9342,-233.52754,320.98688
1173.088,-164.66243,157.41809
1221.5259,-423.27194,442.80295
703.7132,-967.0475,435.1446
593.84143,-1556.8466,-38.047897
-290.42572,-5386.383,-414.1755
-2776.0886,-6102.6646,-597.2599
-2078.0266,-2173.1262,-472.03653
-1390.5875,-499.81195,-217.63617
-1480.1217,249.28363,138.28316
-1238.427,1123.4236,19.141634
-480.82242,1225.9873,-527.6072
-883.8535,530.06177,-334.3016
-1030.22,317.6961,-231.59634
-1187.6167,361.20367,-350.94623
-1479.1084,305.47968,-460.3457
-4146.163,-3018.5134,415.91666
-3908.628,-4945.627,550.91223
-883.60425,-3302.2285,350.45563
236.0094,-1339.711,317.85046
678.1708,-581.99115,356.9882
844.0515,-295.80704,527.0024
963.7463,-286.2694,438.80432
859.30493,-510.88092,504.5686
711.7771,-673.47,459.38416
523.8925,-899.481,-52.25921
81.71925,-3048.1086,-406.21503
-1505.8882,-6631.882,-546.3493
-2079.2173,-4081.312,-557.6659
-1409.2383,-908.95325,-181.1587
-1305.0284,112.46614,130.54622
-1183.7361,799.77966,103.74623
-806.72437,1117.0397,-517.2535
-952.83154,585.39557,-289.73767
-916.4797,366.1142,-58.173668
-1167.4653,165.3969,-173.8634
-1699.8115,205.12578,-380.13797
-3918.7292,-2951.8853,378.9717
-3702.1936,-5313.257,857.4073
-652.93195,-3147.2048,648.2002
399.46243,-1509.1293,413.77917
1120.4097,-820.3596,468.33777
900.0651,-184.62178,457.13437
866.77014,-286.39438,462.7039
845.9553,-398.51678,457.9998
1050.5137,-446.838,487.8265
566.3107,-1012.2587,340.22177
622.5589,-2639.9731,-223.70222
-1207.816,-6179.3027,-372.301
-2290.6777,-4559.86,-424.8536
-1375.6241,-1343.2653,-230.4509
-1279.049,-286.9431,3.3872583
-1122.5592,499.7474,-36.625725
-1063.3741,1177.3331,-332.6085
-722.1718,898.68585,-180.62303
-739.8216,513.77136,-430.7315
-1229.1221,244.04274,-339.10986
-1579.6747,72.689384,-564.2822
-3294.3464,-2287.3953,176.80255
-3642.2393,-4571.2515,-30.90605
-1420.4877,-3511.7798,-98.60701
97.98095,-1885.748,46.33252
833.4824,-1119.8466,109.14144
698.20496,-890.3466,355.90607
774.218,-476.07877,462.77548
797.6441,-380.057,393.81024
1018.2897,-323.62714,397.50574
734.9322,-821.5314,189.76875
725.2641,-1643.0521,-367.3851
-495.70813,-4618.707,-1080.0468
-2422.8774,-5009.76,-1300.5667
-1527.611,-1740.952,-571.2118
-1016.03394,-272.4752,-112.05216
-963.7696,300.2769,-38.704613
-939.10254,1020.3337,-417.88248
-586.25415,1241.2299,-572.33057
-846.17773,659.35376,-103.4088
-961.21783,227.1361,-468.248
-1813.795,114.809784,-255.04646
-4449.6357,-2990.1733,557.5284
-3468.7227,-4423.216,398.79214
-660.831,-2097.4683,259.9408
437.98856,-1779.1743,245.6337
1319.6942,-1117.9094,529.4844
950.8752,-636.92175,562.4521
872.0909,-434.08356,562.2396
989.64575,-606.4832,558.76416
997.06055,-896.3686,362.69366
347.70596,-1778.4338,-55.521168
-284.37857,-4553.5967,-748.9544
-2625.867,-6555.9204,-779.21625
-2613.2449,-2568.8118,-507.3465
-1457.7219,-71.02119,0.44834852
-1098.8131,593.2396,226.14816
-658.8183,1163.499,-112.9853
-642.3164,1084.175,-306.84143
-951.9455,336.08994,-28.116285
-819.74243,265.94794,-184.35379
-1575.2527,-13.463723,-469.4755
-2309.093,-724.78436,-173.4663
-4104.3115,-3462.0403,1146.7091
-3330.3657,-4521.9746,1735.2322
-457.55695,-2372.2517,907.0977
1086.7369,-1383.4652,453.0411
1487.4056,-738.06506,804.4961
1168.5583,-147.56387,826.62946
1011.861,-672.8817,286.2497
761.4955,-603.7436,607.62427
612.29034,-1436.2487,344.1497
454.7674,-1851.1743,-143.19536
-908.71027,-5324.633,-341.7585
-3008.573,-6069.2573,-224.06607
-1965.0583,-1759.2335,-180.39265
-1360.07,-234.70328,-9.910094
-1387.1398,384.43866,47.71568
-954.18445,1372.799,-332.5532
-894.87885,1223.3876,-406.18408
-988.65186,442.529,-96.87014
-1152.7952,267.8556,-307.4093
-1743.5231,231.89162,-585.84656
-3291.6318,-1694.8027,229.56433
-4600.215,-4562.145,765.2653
-1985.9604,-3888.5974,804.25854
-118.11496,-1838.8263,555.14966
914.4867,-1087.3271,478.21182
1088.3768,-555.314,654.0364
830.74945,-444.97504,671.15106
915.62213,-644.5857,583.6451
909.5608,-837.1701,597.0552
611.3434,-1387.8016,374.02863
347.83682,-2520.4165,-242.56873
-1347.3538,-5966.525,-692.15796
-2824.03,-4778.8486,-544.0888
-1712.2925,-1018.00244,-375.49606
-1070.2391,170.68752,-16.765491
-1033.0201,514.27637,-35.66365
-959.37854,1156.9584,-321.74875
-910.94855,946.7814,-341.56906
-923.7091,406.09396,-169.66022
-1243.5529,237.43501,-350.06607
-1812.5007,46.374355,-301.4813
-3661.1665,-2389.1409,324.40253
-4094.886,-4597.1665,777.4036
-1243.365,-3201.1074,575.66315
89.972305,-1610.5314,487.02295
978.69324,-1073.8224,569.344
1233.3373,-531.14343,866.4058
1203.111,-744.47614,702.11993
1000.3473,-776.17834,755.4657
834.0821,-1061.0121,391.25836
342.8797,-1739.632,-79.71866
-531.10583,-4259.028,-516.88354
-2507.3425,-5886.4067,-318.28833
-1966.2095,-2313.3477,-109.70854
-898.2707,-204.46321,280.52448
-935.5187,476.89426,150.82489
-1123.9423,1405.4391,-389.89197
-1250.3252,1077.1792,-301.00748
-1176.9728,454.06213,-114.51987
-1295.0697,486.56216,-454.30566
-1712.9874,-46.230045,15.383459
-2851.5137,-470.65845,371.16452
-4882.8047,-2746.198,1529.1077
-3261.3855,-3640.3887,1625.3035
-658.68414,-1963.6104,797.384
280.9961,-1518.9062,473.81876
1215.486,-947.3147,455.55743
1018.2311,-579.56647,629.744
1230.907,-450.9796,754.9523
962.6113,-814.6659,1100.5593
732.2992,-914.0704,996.9534
347.0813,-1507.4144,131.19528
-407.72516,-4505.2856,655.642
-3008.7993,-6377.229,782.20935
-2578.8772,-2333.7793,97.86892
-1537.5126,-577.4707,199.4251
-1302.4946,370.25317,-193.46452
-886.32074,1308.2986,-400.9636
-966.3094,1127.7029,-339.19888
-723.085,590.8995,-156.22252
-894.3753,351.11502,-134.86693
-1063.2947,212.7048,-321.0428
-1816.5662,-85.42712,-344.72662
-4940.8384,-3206.2947,643.0557
-3809.029,-4371.726,330.85056
-669.0231,-2179.1372,352.67874
389.76492,-1245.1134,265.22226
964.97296,-835.57,286.88715
826.66956,-712.93695,367.0106
1011.55176,-563.46063,366.3382
951.0078,-524.9499,445.29913
971.964,-870.7448,259.95145
541.1449,-1348.7114,-271.72363
551.5197,-3155.1082,-1193.7781
-1227.2257,-6428.3926,-1688.5994
-2184.7036,-3659.0115,-834.2284
-1473.1023,-751.79785,-125.775925
-1462.0203,-177.667,154.04547
-1161.1559,938.0114,-206.20633
-789.461,1213.6781,-292.02234
-884.294,493.5636,-140.15523
-984.03894,292.31247,-147.01224
-1409.4213,251.00787,-461.3988
-1712.142,200.66794,-507.7955
-4399.6797,-2841.9585,288.4344
-4374.4517,-5639.5,883.04156
-801.6752,-2809.6392,549.18555
378.69812,-1461.5021,346.12155
1137.3925,-815.71436,382.69235
905.353,-492.44626,554.4967
1012.8136,-460.5409,386.81427
1001.93445,-393.6571,546.10364
820.2506,-782.88464,619.7102
477.38992,-1430.2473,84.330055
18.177929,-4528.6636,-410.8616
-1964.1946,-6561.6396,-1220.613
-2204.7405,-2812.2192,-888.82947
-1440.7681,-660.7806,-305.36084
-965.8479,470.1432,-56.74294
-844.74426,1008.84534,-36.454624
-945.06976,786.6858,-91.2125
-749.75775,397.35052,50.661865
-759.9062,431.33127,-246.42796
-1256.9965,61.998272,-425.41077
-1505.2314,298.92477,-447.3413
-3479.2598,-1643.6603,-75.50986
-4771.8765,-4465.439,840.4478
-2097.6562,-3746.48,1154.0002
-70.65462,-1551.1556,951.2155
630.85913,-1063.5594,825.85455
1022.4355,-514.8823,710.0082
994.9363,-303.7492,619.4784
964.8152,-445.68027,788.561
719.1901,-643.6728,855.68097
152.69719,-1032.5413,685.3478
104.616,-2450.842,115.89465
-1010.1561,-5558.9272,30.170025
-2189.449,-4583.8286,-286.8413
-1302.0592,-1482.2902,-520.8846
-954.7321,-416.00656,-268.37402
-792.3153,336.80936,-70.25091
-823.3538,745.3563,-84.92241
-832.9841,870.23975,-418.8612
-785.09656,407.902,-298.86002
-844.50916,476.37833,-245.59225
-1210.0297,330.52832,-254.18521
-2604.7917,-651.34344,-120.86289
-4993.5,-5208.199,727.1274
-2064.9111,-5067.51,791.5162
-41.944527,-2172.6082,652.3669
947.2102,-1120.7871,265.3818
1276.4838,-405.01544,371.64722
1123.1754,-35.39023,361.26114
773.89514,-470.5019,491.50055
796.86206,-859.75385,492.6696
451.60492,-1264.4891,574.8476
448.8333,-1440.7478,30.291338
-646.6614,-4695.675,-34.157887
-2517.0962,-5519.5576,-374.0303
-1737.6564,-1994.1016,-332.30664
-1064.6389,-102.58107,-227.7624
-1159.7218,419.1923,157.92255
-725.9991,1241.7897,6.9246335
-628.1816,1080.4517,-358.57028
-633.2816,547.35095,-250.51451
-1137.9072,253.55388,-26.592466
-1230.8253,353.70615,-405.96213
-3039.4675,-1208.0393,-246.89084
-4692.86,-4651.155,315.51462
-1914.6365,-3534.0613,295.43314
-218.28558,-1756.1035,221.15215
581.5481,-1281.1083,111.128204
692.83856,-758.34424,414.83752
705.2095,-485.37106,581.3684
971.4451,-667.922,579.6804
928.49176,-565.1002,515.41754
512.076,-808.7973,397.9311
363.68,-1245.5742,-15.487024
147.65283,-3675.1199,-285.82916
-2063.7234,-6357.005,-677.7727
-2310.229,-3186.279,-394.35928
-1527.1444,-634.10034,-157.91957
-1395.703,268.87534,-134.87744
-1090.8759,929.39905,-191.09518
-838.52313,1146.1885,-326.69885
-849.0744,773.93085,-202.84082
-1048.7212,484.294,-344.91818
-1427.6615,221.94894,-569.6081
-2397.837,-419.88077,-447.95367
-4880.928,-4001.469,571.7289
-2877.8325,-4812.478,1085.2128
-259.73315,-2048.6165,754.07745
343.47385,-1356.5889,590.19165
884.2527,-673.0946,624.1537
704.9835,-301.98672,630.1555
798.72455,-278.81802,633.77454
718.8816,-461.6493,580.66846
545.4361,-663.38226,589.5435
284.06033,-1223.9865,180.03493
-10.612483,-3877.4832,-127.748146
-1662.4978,-6483.236,-123.6681
-1891.5195,-3510.1726,-95.563065
-1304.8733,-273.60886,-90.157005
-1172.0692,292.3366,154.22803
-1009.59485,774.2373,185.21356
-715.5383,875.38043,-273.97607
-807.246,492.166,-331.98062
-916.2288,290.3667,-180.8318
-1210.141,262.32352,-449.36478
-1253.6636,281.657,-640.4217
-3580.7646,-1935.3876,-89.27757
-4895.336,-5677.9976,1053.3677
-1473.5549,-3765.28,1112.0645
-0.7493958,-1534.2349,913.19684
787.1541,-1071.4861,707.3604
1028.7706,-333.9454,599.7903
993.0788,-142.99428,445.12692
961.6367,-532.53986,415.02505
888.5963,-762.8774,655.557
397.02136,-1196.2454,309.28113
175.0912,-2947.0225,-50.474163
-1379.8124,-5878.455,216.31071
-2205.4355,-4160.493,88.34845
-1203.9197,-570.6356,11.924994
-1058.3533,46.87423,5.425082
-800.36804,305.76306,-118.56348
-608.234,748.2776,-291.4856
-798.78296,775.1373,-326.55704
-825.2302,477.66837,-303.24332
-1203.8782,224.60143,-436.09146
-1371.8586,346.2856,-407.10764
-3328.8147,-1549.578,105.39576
-5007.2886,-5253.7,1178.454
-1504.5715,-3960.6846,926.3475
197.4842,-1601.9163,559.044
829.6523,-988.65936,477.75793
760.68445,-368.28223,392.11993
788.9664,-224.52164,321.89294
941.47,-306.82895,333.9868
1034.1709,-467.06622,362.97458
452.45218,-1107.7517,312.84326
447.3311,-2289.6145,102.177666
-464.96182,-5172.565,445.60086
-1951.7263,-5037.381,527.1699
-1482.5664,-1623.4747,363.05524
-1225.4006,-141.27052,174.69804
-1409.2178,328.98724,82.91306
-1022.18976,1224.4646,-515.6912
-752.84973,1184.0148,-496.68427
-987.5459,353.97104,-133.1586
-1348.0258,232.1944,-253.81154
-1480.995,-17.616642,-449.5394
-3029.3647,-1466.2267,334.93015
-4167.963,-4628.613,959.2698
-1375.9159,-4084.3398,801.2353
-48.146255,-1979.6316,630.044
666.60846,-854.4728,331.3513
748.59406,-397.70053,379.85205
786.99164,-321.41006,358.34915
739.635,-333.82626,406.51624
683.7641,-460.3569,513.1669
385.2532,-766.8961,436.11795
535.92,-1378.4504,-87.61887
-439.78903,-4864.1978,-406.1186
-2040.3859,-6014.4106,-827.8441
-1465.2645,-2241.8672,-456.50168
-1325.3972,-455.5483,-331.67526
-1360.4885,434.13086,-96.07251
-1253.9762,992.75696,-288.65366
-947.1277,1113.1262,-361.7679
-1068.5432,619.98944,-134.11507
-1097.5056,363.55792,-56.09186
-1407.5692,39.14724,-598.42523
-2304.7695,-648.3736,-430.95596
-5057.65,-4053.1584,-100.92002
-3110.2869,-5159.564,345.21817
-135.52689,-2303.6533,469.64905
916.5189,-1383.3873,372.845
1339.3223,-623.396,471.00104
958.6116,-412.11664,451.3998
753.9233,-392.07983,580.9441
593.5101,-636.45166,581.3951
262.85434,-832.7023,473.69754
-90.82397,-2054.1702,-93.642296
-1012.5474,-4881.2856,-579.12787
-1911.9948,-4871.3013,-1043.8566
-1090.5616,-1699.7386,-544.8567
-843.3425,-378.044,-423.987
-998.6667,364.9251,-272.7389
-1024.0363,917.06775,-207.28018
-946.4037,962.1329,-316.14703
-891.0143,628.8367,-333.9076
-1005.9553,637.0523,-308.40164
-1515.2506,348.39224,-432.251
-2685.6802,-1339.9556,-374.6039
-4501.582,-4925.0254,549.3806
-1891.4701,-4520.9775,576.38257
96.764824,-1820.3127,531.507
763.21674,-1134.0847,480.95895
912.4494,-599.89624,556.923
759.74084,-395.78262,648.8107
730.22974,-494.86285,633.14935
880.85236,-473.99332,607.8863
302.23666,-749.19,388.22015
258.82968,-1744.1127,-127.70415
-1065.447,-5548.3174,-291.41907
-2736.6467,-5926.681,-498.66983
-2089.949,-1818.9763,-110.52386
-1459.5846,-262.45474,27.685022
-1191.6385,1384.8053,-125.18146
-986.7139,1702.9916,-371.81433
-883.95953,1063.7764,-378.9577
-979.9821,474.9721,-443.66272
-1156.5798,177.6524,-502.63882
-1602.5192,-37.849396,-266.412
-2683.8384,-1686.2461,189.11664
-4085.084,-4199.6025,572.12134
-2001.8997,-3517.6096,596.82764
-333.62448,-1651.828,300.3353
402.12418,-953.5995,367.02094
534.9896,-744.2022,615.41034
750.6408,-434.62555,532.1611
609.70154,-309.55368,498.6743
628.2486,-336.78043,631.0868
519.8838,-957.37915,464.08124
566.8113,-1888.1683,163.5111
-975.2821,-5505.0547,-173.75635
-2573.8887,-4963.0293,-177.00125
-1309.8295,-1172.7997,98.56456
-1183.2662,-407.45013,151.74338
-1295.4177,607.5814,-52.54376
-1149.2428,958.0655,-207.69156
-803.8719,907.6045,-154.13608
-914.57635,419.92734,-140.46313
-1217.0122,409.94562,-339.7782
-1338.7156,205.04811,-631.8599
-2938.621,-1479.8984,14.402192
-4697.5317,-4709.2637,-10.141476
-1776.557,-4148.4863,-123.34225
-117.02755,-1755.1628,-27.545227
858.82666,-1010.1679,-33.31613
1254.6831,-888.6458,271.8235
1198.726,-625.87384,409.64377
943.93726,-591.74384,407.38425
877.7749,-807.61053,329.73737
452.55774,-1088.6896,-0.20244311
165.47859,-1931.8909,-1101.9617
-1164.8876,-4223.446,-2847.1116
-2426.8022,-4937.8013,-2797.9114
-2102.7744,-3009.5496,-1111.4938
-1755.0171,-462.378,-543.75946
-1161.7122,2084.4211,-494.53464
-1051.3396,2119.0508,-616.30383
-1172.1553,883.35583,-460.50284
-825.8971,692.22864,-717.01086
-1126.0576,-18.912493,-660.4585
-1409.9078,35.191204,-366.74524
-2800.6462,-719.4947,-318.79477
-5039.3115,-2822.1663,111.192986
-3836.2063,-3436.6372,764.4766
-1252.6472,-1948.93,803.71234
-47.24959,-1397.1276,943.89935
769.64874,-725.6481,909.893
846.57635,-370.05923,918.63477
684.2192,-618.65204,876.9317
650.8881,-639.91364,889.33514
477.42343,-939.9927,594.42505
267.08038,-879.8984,249.53696
-829.51556,-3758.3748,263.0013
-3618.092,-6571.9795,403.9834
-2271.4092,-2069.8574,278.59586
-1327.7928,-760.4994,105.07271
-1032.2468,266.03043,-218.15907
-1017.7784,1147.0742,-333.75586
-681.6203,1517.8851,-538.7336
-704.9908,912.41205,-290.66757
-722.6815,878.35406,-550.7769
-1309.0636,312.78085,-546.7789
-1948.7327,64.50335,-674.5379
-5331.9966,-3250.5015,-40.640507
-4381.6045,-5165.918,773.3677
-818.391,-2269.9026,670.1728
108.28216,-1281.7191,528.8611
878.1006,-825.4865,681.8063
606.4379,-506.41376,639.31793
710.6904,-718.87976,678.9073
783.442,-752.3003,720.80383
905.85077,-708.61035,594.44763
441.87363,-1168.462,177.48409
94.12055,-2961.1492,-354.26276
-1874.0709,-6394.5117,-930.0833
-2809.2947,-4381.8047,-807.4631
-1857.9966,-702.6474,-345.8946
-1313.5895,382.49564,-170.28902
-833.1862,1221.5056,-184.31665
-603.3742,1223.5981,-355.67337
-750.8258,554.3893,-301.44043
-717.8156,403.47278,-246.96742
-1076.804,261.71207,-437.55963
-1369.6055,224.70416,-497.24454
-3321.9475,-1168.9249,-164.46977
-4848.428,-4157.359,637.96
-2124.468,-3702.79,765.791
-215.43907,-1863.8219,705.39557
713.92554,-1021.74054,667.8353
886.6687,-613.6935,781.0882
901.8398,-113.64749,348.50174
720.54114,-600.43854,312.16013
844.5942,-749.9128,625.4522
586.761,-1100.5417,317.69534
431.91116,-2148.5042,-165.6366
-1568.9298,-6068.796,-680.0653
-3014.7903,-5187.247,-629.2529
-1621.6969,-1091.9615,-359.45862
-1225.1552,133.61525,-171.84485
-1140.5906,769.0337,-53.362186
-952.18085,1169.4862,-310.55643
-724.6077,963.61346,-434.07806
-862.8029,517.166,-198.63048
-1163.2194,145.79996,-187.79453
-1154.7338,322.45038,-486.5234
-2687.8506,-632.01416,-183.00983
-5054.276,-4317.336,686.4965
-2537.7087,-3820.3618,674.1011
-110.16698,-1664.4266,605.6053
631.6044,-1132.0342,603.9872
729.61194,-913.7234,695.9185
846.1776,-318.61105,590.4093
797.70984,-607.87823,562.41736
801.2283,-475.6231,713.0482
472.62662,-627.72424,487.81348
340.6906,-2022.5657,148.07716
-727.72565,-5971.618,-7.0325975
-2350.7844,-5734.7935,-141.54422
-1618.931,-1417.5557,-139.77232
-1207.6874,-111.157745,-330.373
-1087.429,749.6163,-237.44562
-1033.9247,878.8959,-191.63689
-801.6328,681.8731,-256.16608
-738.6632,199.75706,-159.47661
-853.85486,20.645699,-175.01585
-1015.20465,-43.869907,-157.12108
-1517.6226,-203.95471,-94.73676
-3382.6423,-2998.2402,682.06934
-3413.4773,-4383.1196,1369.7335
-818.68427,-2874.5417,869.2547
377.50272,-1159.3861,998.5061
1043.7623,-663.5582,732.821
1072.2974,-250.69478,644.77246
748.4893,-109.27514,439.9564
952.2706,-194.7998,427.02487
943.37463,-554.28156,459.23395
562.44006,-1248.548,96.13107
54.68228,-4113.1826,-240.58388
-1722.7191,-6246.0127,-317.12518
-1622.9144,-3232.8208,-109.84631
-1048.509,-714.4395,93.54839
-1342.9797,49.866016,392.44763
-1258.6427,883.3993,-63.8337
-947.748,1125.3394,-343.2728
-892.6215,580.9328,-158.01317
-831.90247,307.16794,-378.90912
-1299.1041,153.94583,-337.35983
-1825.0238,-335.07288,-361.805
-3473.543,-3141.24,253.91331
-3231.5083,-4985.1367,585.57947
-782.80676,-3073.492,533.03265
166.81499,-1684.6807,500.06146
727.39136,-1015.08374,330.60016
885.3091,-411.17203,492.0875
980.8582,-470.52457,542.3478
826.0801,-524.436,479.03427
981.02545,-491.35214,416.9844
583.3208,-1389.6873,167.64464
395.4679,-3199.26,-794.2852
-1381.6854,-6423.423,-1496.9181
-2256.9573,-3954.3655,-1009.55145
-1772.8704,-1281.0065,-17.972197
-1500.907,95.83691,219.63354
-1112.6552,1095.1755,230.65114
-845.35767,1037.8763,-180.9913
-745.9152,479.00192,-205.73647
-1007.4935,369.4543,-321.01065
-1266.7878,166.81714,-501.19357
-1448.6809,-128.8309,-540.02673
-2605.9424,-1761.2448,-181.56224
-3865.2815,-4204.181,562.11835
-2006.1553,-3941.7383,578.71497
-185.74785,-2017.1771,751.31964
465.21402,-1187.7483,676.5742
761.6133,-587.2592,629.7568
820.7967,-390.3358,472.4344
876.23474,-382.23172,659.4475
856.06757,-603.5455,600.57544
446.4017,-851.15967,455.6492
47.38905,-2512.5273,-76.31263
-1314.8795,-6079.47,-408.65744
-2477.24,-4745.2285,-568.0704
-1831.5529,-1350.8632,-421.57306
-1289.2144,-193.57675,-403.6029
-965.01624,768.8377,-238.86087
-1020.43744,1188.5765,-79.79427
-934.55817,909.3554,-183.24738
-883.59894,524.0588,-190.91393
-1122.4454,247.90926,-59.72448
-1421.6578,202.33867,-386.66574
-3124.6978,-1081.5946,-90.37484
-4993.7417,-4525.7925,806.04846
-2253.3916,-3772.9617,844.25397
22.562355,-1806.1339,678.7197
967.45856,-1294.1686,749.0156
1255.7058,-688.7567,697.8519
1078.4645,-357.0345,410.74905
758.7894,-690.88574,482.34506
789.3038,-619.2718,396.5404
395.7401,-1160.4368,202.84012
139.54924,-2449.4175,-209.24257
-1469.4645,-6225.532,-489.96588
-2700.8508,-5236.8013,-527.0981
-1853.4424,-1385.5588,-143.28125
-1510.9973,-143.19748,-279.1867
-1407.6788,609.99414,-37.734604
-1067.7814,1380.7214,-73.561905
-740.2499,1387.4736,-353.8292
-1021.7149,481.86563,-250.97845
-1296.5835,100.83334,-174.68083
-1529.1178,-152.33514,-550.7085
-3174.2793,-1913.9938,-43.1546
-4505.958,-5334.076,536.0009
-1516.5067,-3818.3242,416.1843
83.2166,-1631.9474,386.25674
1055.2131,-923.20544,305.4081
1136.5741,-592.56335,451.24277
878.75165,-574.83154,447.4962
781.3814,-666.99866,555.30725
1069.0302,-496.18237,410.21683
665.92084,-1019.083,178.46733
163.36331,-2953.2407,-330.3781
-1615.022,-6560.8804,-941.7465
-2364.4475,-4792.6694,-904.0435
-2147.4614,-1756.5165,-451.07242
-1923.5468,-69.6064,-359.2082
-1283.0797,1066.8818,-157.06299
-812.9639,1528.4795,-48.23135
-901.2027,897.9833,-56.45087
-927.839,600.0438,-162.31726
-1290.0966,282.96432,-166.23119
-1764.0096,159.12259,-392.294
-4084.8506,-2455.838,55.422215
-4439.066,-5381.6826,895.2159
-1274.5054,-3072.5005,886.3198
89.759315,-1533.1178,585.7059
944.5032,-1011.25854,677.4163
1005.2957,-689.865,607.15765
1047.763,-503.81107,155.66803
914.45154,-729.8138,405.97766
985.7247,-661.7399,533.8916
565.3692,-1042.1527,222.53604
313.4029,-2459.2014,180.53264
-1500.1176,-6216.6455,38.395813
-2526.216,-4711.7935,-120.714226
-1829.3882,-1285.6615,-62.620895
-1297.4329,-140.98924,-123.18902
-948.72064,794.8544,-244.62146
-748.9949,1702.1555,-417.7221
-989.25836,851.4955,-380.60666
-803.8301,473.3957,-342.2062
-1473.0029,352.27502,-466.9734
-1861.6498,229.74104,-500.77567
-4553.582,-2637.9883,-40.394997
-4845.228,-5728.93,802.71466
-817.534,-2737.8987,649.12756
411.11993,-1408.8737,582.8732
1350.6217,-643.31146,696.0253
1192.181,-409.675,542.44336
1046.4254,-642.0751,416.3101
605.5125,-751.7062,546.1373
842.5275,-722.09503,430.61377
389.75723,-1363.67,38.81097
241.78241,-3456.7827,-342.25705
-2063.1511,-6818.197,-734.0425
-2387.1936,-3376.8462,-365.7739
-1292.5037,-676.59705,-145.37076
-1591.4205,33.102097,-51.215263
-1037.1958,1207.6014,-144.39735
-802.80286,1106.7593,-271.08008
-985.7175,448.66248,-12.530771
-973.28094,387.26666,3.629442
-1237.3531,380.29663,-79.877945
-1777.1005,66.286194,-41.109867
-4371.888,-3047.18,1090.6971
-4010.8545,-4690.24,1228.889
-845.513,-2095.1548,660.8138
228.14726,-1255.209,306.06042
1212.5054,-741.5995,180.21667
867.25195,-963.9699,491.50253
1186.5309,-594.1728,771.4875
1177.3806,-669.4167,679.88275
1037.4617,-428.02948,608.18555
406.4364,-983.7192,183.72827
564.1445,-1976.1469,-37.6879
-1788.4633,-5688.3994,131.05566
-2767.5798,-4539.919,131.29105
-1343.845,-1342.2314,-15.437445
-1173.7692,-504.47098,-120.618484
-1084.2546,245.61668,-33.07423
-1043.2139,820.6513,-318.68536
-693.4038,1063.8229,-591.4982
-810.3295,687.67676,-334.7931
-1099.578,395.87143,-215.47716
-1458.8383,620.1393,-521.23645
-3398.5063,-2162.416,324.4711
-3998.9082,-5471.352,1165.9302
-956.8361,-3349.9421,828.2179
281.37393,-1493.8448,608.0325
1013.7202,-887.51355,426.76514
1188.9028,-275.82254,600.5424
997.2252,-112.790054,555.21655
1120.9432,-174.69322,526.96204
1026.3383,-621.01715,506.96204
816.9747,-1328.3163,183.34384
-57.309853,-4465.3657,-312.2691
-2622.7615,-6530.0977,-950.96265
-2127.5522,-2835.6912,-642.2045
-1608.1211,-428.90808,-380.0755
-1096.2139,383.75394,-79.49838
-868.93555,1074.3351,37.91517
-805.5707,1058.5763,-277.3436
-755.50916,722.06067,-163.90712
-945.03735,387.93146,-103.610344
-1308.7128,412.88025,-491.88492
-2398.9824,-555.1037,-341.7391
-4220.2056,-3760.047,558.55664
-3121.3423,-4472.132,695.00165
-634.547,-2337.5625,605.06854
348.71243,-1089.9138,419.85266
777.4579,-774.25006,540.7812
898.8414,-237.03456,455.87048
1008.08215,-502.16608,479.11716
913.23395,-520.07825,659.97504
883.85394,-839.10803,574.18915
609.2373,-1393.11,176.67729
-0.025210457,-4191.9487,-130.55663
-1703.0098,-5983.623,-393.96902
-1868.5651,-2911.9788,-309.7655
-1160.3555,-482.28452,-206.97949
-1049.2484,108.906265,-130.20573
-920.84753,783.75684,-162.01993
-848.7485,997.57715,-383.2387
-812.824,652.38715,-247.7494
-1013.39154,402.60947,-261.8963
-1560.6477,286.63684,-485.58963
-2600.0786,-913.43896,56.936565
-4244.3145,-4305.9526,1143.3164
-2398.513,-4373.903,1131.4017
-254.01164,-2153.2615,728.76526
500.7292,-1202.2394,526.032
1053.3546,-473.7742,473.68723
1132.5648,-295.40158,414.7931
1194.8751,-551.3024,357.60068
1112.5269,-581.4528,389.06534
769.8847,-1222.261,123.50346
295.17358,-2931.902,-259.73438
-1331.3308,-5941.1724,-556.7688
-2369.3635,-4596.2827,-729.63916
-1706.181,-1293.6562,-324.0375
-1416.5168,61.389954,-155.0758
-1403.733,862.738,122.04746
-935.0943,1271.962,-236.6078
-845.8621,807.26465,-320.12173
-990.65125,507.76218,16.431364
-1171.8204,146.3923,-196.30406
-1883.582,-332.43158,-230.87698
-4338.088,-3872.9614,839.4461
-3301.0703,-4765.0913,898.42786
-508.6359,-2511.728,516.1046
720.67035,-1381.0782,329.0487
1390.4064,-703.5339,420.97137
1136.6115,-419.50882,504.41177
1112.4623,-478.47052,293.2283
883.86664,-318.7469,372.89487
865.25305,-743.23694,258.41412
1028.0299,-1257.7307,-78.39649
573.67914,-4708.7593,-962.5263
-2101.467,-7271.406,-1497.4182
-2537.4749,-3039.2498,-720.33997
-1951.19,-512.0355,-213.99513
-1595.0015,322.33575,-106.04247
-1161.937,817.3307,154.03656
-647.1872,1102.892,-36.642105
-889.32104,774.20215,-94.84585
-1100.4131,242.31638,-206.1775
-1407.522,161.05273,-377.7608
-1811.496,-571.03986,-127.512344
-3265.1274,-3196.2673,428.6811
-3218.0808,-4775.7935,665.23987
-791.2023,-3238.102,453.1082
336.8758,-1445.3667,367.75854
891.8512,-964.54913,435.4298
1101.0669,-429.3687,397.45407
902.205,-531.30023,617.6296
894.7403,-336.8462,751.2388
946.343,-648.039,671.78204
681.8648,-1672.7377,198.28427
-351.45663,-4596.046,-334.42776
-1874.4967,-5984.9136,-860.60706
-1739.6843,-2755.23,-672.50116
-1259.7515,-350.81253,-554.318
-1087.8783,369.1856,-228.9015
-876.03046,823.7135,-32.47476
-751.2196,825.3346,-330.7436
-918.41187,690.2665,-330.3393
-1212.4796,342.0514,-282.86465
-1454.076,344.19437,-598.1811
-2854.3418,-984.60114,-130.31172
-4440.943,-4573.9834,805.8446
-2409.0647,-4560.005,792.54626
-129.52554,-2325.8267,619.19507
708.9322,-1215.7721,399.6713
964.4861,-722.1819,456.25674
885.1077,-160.46054,454.16785
1030.4441,-295.18506,383.2029
965.3993,-506.44092,619.42474
773.2796,-1123.2197,526.9891
468.76917,-2501.6675,312.4306
-516.664,-5146.5464,638.7274
-2003.194,-4942.043,408.16354
-1415.4803,-1691.9265,38.586117
-1369.2515,-398.31558,-82.74481
-1253.4641,405.40277,108.206154
-770.7941,846.36945,-393.12756
-667.2436,753.61896,-492.75464
-884.50415,288.4858,-279.5795
-1017.8155,120.73587,-50.553062
-1386.252,160.45676,-442.41467
-2564.2617,-2006.8794,636.0367
-3020.9707,-4859.81,1388.859
-755.70667,-3509.2,1109.8662
102.55354,-1909.721,966.93414
784.7208,-713.4208,332.2497
764.174,-144.00726,291.27966
1021.25977,-183.66223,291.90768
840.2531,-444.88577,389.6881
1157.8357,-460.15155,234.5719
515.89355,-1119.4017,169.76604
976.7492,-2854.6604,-98.1144
-1013.4049,-5791.1294,-47.9252
-1726.3737,-3399.3572,-61.813408
-1019.6899,-815.2127,-61.16257
-1168.6725,-167.26065,-151.9596
-928.308,519.3742,-82.88627
-712.35333,795.0467,-338.7713
-782.32367,568.9895,-363.13342
-959.9929,331.1452,-331.17673
-1183.4928,259.74472,-355.28027
-1841.6207,-719.8784,-49.680122
-2877.237,-3817.9482,1137.6694
