# PAMAP2 dataset (wrist-mounted sensor)

acc_x[mg],acc_y[mg],acc_z[mg]
-784.8951,1201.679,307.13303
-197.77437,884.66986,416.7202
-256.57147,1497.7253,279.51212
-182.53279,1702.1776,332.31143
-261.55124,1264.131,385.91165
-186.82985,740.5849,460.86224
-265.74408,705.4112,490.81104
-351.09372,847.2423,494.33145
-744.76227,1168.4083,439.45673
-1015.5883,1049.6063,284.3855
-968.6003,659.00665,211.737
-814.1418,531.067,252.44429
-708.5258,389.7219,77.685
-460.2992,-28.07184,-9.072446
-585.8999,-145.99046,19.87517
-683.5554,317.8225,34.15998
-1847.5109,1280.1577,191.40242
-2242.5657,1498.0809,52.05286
-1164.242,2034.4889,186.51675
-316.4689,1300.7103,-75.76495
228.09311,378.91934,-207.19571
419.4303,391.87885,-109.604774
474.36774,620.5338,-117.47217
520.00287,538.80023,-28.997477
289.9767,893.69745,43.47341
-232.77162,2385.5938,66.1864
-2093.758,3668.2651,-373.47516
-1948.7177,1931.7357,-402.9117
-1201.9219,789.39154,-244.56068
-911.29443,422.71793,-222.8783
-676.4973,-125.05493,-166.65714
-679.6364,-583.20825,-344.40375
-688.8865,-867.80963,-356.42407
-852.8988,-509.83365,-126.96749
-917.36633,309.18423,-36.831394
-1959.2842,1967.9753,147.28288
-1584.1771,2847.0015,130.94218
-635.25494,1684.8325,3.9480124
-90.98554,1045.8948,3.86472
258.30096,897.17755,-52.498764
637.42706,532.4111,-90.77955
813.60034,147.07288,-24.500854
703.295,321.46884,9.083826
531.56775,647.0357,12.906255
156.1666,2514.167,-67.86653
-937.156,3666.6807,-280.15604
-1244.6139,2558.4763,-141.06725
-1070.8044,1543.2845,-88.83312
-1027.5264,823.4741,-47.011696
-844.12787,94.23547,-124.73791
-857.7989,-469.44046,-139.02368
-919.0025,-795.23047,-306.0748
-986.9694,-753.63416,-210.54768
-1128.487,95.1676,-83.848114
-1713.3778,1530.2158,98.89308
-1636.7532,2862.0735,224.9143
-1016.3174,2449.3145,121.615005
-391.93317,1543.0756,86.95196
-62.730145,1193.6625,64.75084
302.55353,926.57605,-13.198199
655.28986,484.0415,-62.09135
936.12714,289.23398,-15.742784
823.5891,456.93427,6.2310433
675.13586,835.4769,-65.53201
12.464708,2815.5117,-272.6538
-1356.6376,3928.3098,-370.2887
-1618.5605,2601.252,-234.93002
-1486.4677,1397.1134,-124.555374
-1220.1334,725.81335,-88.561424
-874.2177,182.86061,-158.71255
-820.7225,-354.55045,-213.64235
-862.583,-745.3614,-356.0847
-924.5429,-895.30493,-319.6755
-970.28925,-287.5921,-117.544945
-1377.3384,639.971,120.90563
-2038.081,2551.2646,440.97507
-1463.199,2904.9539,391.6462
-692.18884,1674.7903,238.46722
-263.03552,1082.0037,85.08234
-13.4154415,1130.0593,-10.983
333.57437,888.625,-67.31858
633.61554,557.77185,-100.71303
850.0965,459.79303,-94.89306
759.15875,608.526,-79.347984
494.11465,1477.5862,-237.46066
-508.6387,3307.7058,-554.21796
-1351.9131,3442.7896,-468.80356
-1390.6436,1943.4042,-308.418
-1250.4587,1022.32904,-176.60432
-818.19696,548.3728,-105.13407
-594.83826,84.9007,-170.39178
-779.3856,-327.29456,-298.6149
-952.50055,-739.4564,-448.52786
-1068.4445,-641.6993,-249.7789
-1046.0057,-139.7515,-87.827126
-1567.7618,718.27344,199.79889
-2058.9504,2474.1487,567.32263
-1452.7372,2825.9746,403.4151
-650.5078,1698.0148,241.05235
-233.18636,1197.0377,76.37752
171.88611,1214.5392,-8.4148035
502.22522,909.873,-108.437836
870.5489,443.80334,-153.77267
964.134,446.68585,-78.56914
760.17004,735.9576,-5.633709
150.74146,1997.2452,-202.1226
-895.2999,3538.3677,-373.12003
-1307.3164,2883.5925,-283.1572
-1368.7089,1922.6302,-216.29057
-1292.8975,972.6313,-270.61642
-819.90753,284.21677,-234.55263
-670.06116,-159.54546,-285.38086
-832.4811,-522.2485,-291.10568
-1007.56586,-671.5273,-359.58334
-1004.28357,-494.29617,-166.52997
-1050.871,215.8738,-18.075851
-1641.5975,1760.0743,182.1283
-1418.535,3057.4539,277.2538
-739.2805,2343.2268,269.15195
-350.2741,1441.9973,131.20435
8.721315,1088.5239,23.923573
304.63208,981.7243,-46.71365
589.49347,629.3306,-85.29845
823.9211,355.47137,-81.97764
813.7261,460.96405,-27.813854
478.78806,1408.06,-103.01264
-328.57397,3292.3774,-465.55725
-1428.641,3608.2478,-393.751
-1430.865,1994.9763,-188.59091
-1232.9885,933.4084,-182.00458
-1096.6552,316.6956,-193.5666
-828.8344,-175.49245,-262.66904
-833.0967,-596.79297,-144.84874
-900.3236,-858.7894,-246.81589
-921.0449,-672.1303,-132.1724
-842.0205,74.73807,57.489525
-1480.8348,2019.265,377.27194
-1424.5381,2821.0364,488.21893
-636.92346,2162.4812,319.80853
-301.69653,1706.6432,314.7238
-119.5695,1114.0302,179.69833
93.05149,683.5795,38.77495
321.4188,503.99185,1.5644939
476.40073,379.87332,22.30213
610.2889,269.68515,39.950253
416.0659,799.75726,129.9502
37.055668,2139.5073,198.84415
-1374.381,3473.1665,-90.665565
-1683.874,2368.8523,-153.12965
-1194.5254,1127.4581,29.880611
-1042.025,624.4346,-89.32721
-774.67224,134.9694,-129.88846
-832.6703,-171.11964,-159.22035
-772.5318,-632.6424,-278.171
-848.87915,-792.0096,-309.70062
-846.56757,-319.23163,-94.87485
-1310.4126,1079.0057,90.1877
-1666.2418,2295.7437,403.23993
-1126.3702,2356.2957,282.02167
-509.58752,1649.744,229.38367
-188.80113,1105.9996,193.53223
15.309466,867.2413,91.88443
282.90598,663.7521,47.556625
504.5358,382.11118,23.300465
671.259,328.02557,41.52103
626.2146,507.40448,83.42204
400.00665,1588.3103,120.772095
-751.06714,3323.5327,-176.30179
-1628.4281,2961.5022,-208.23122
-1181.668,1483.8124,9.98224
-1069.3657,745.0838,-11.043501
-774.7763,260.1264,-75.519646
-744.21844,-77.58998,-144.9515
-810.4782,-446.424,-291.9389
-1048.1812,-768.1928,-371.67548
-939.2324,-434.4047,-205.13887
-1388.4023,769.68665,-5.666067
-1666.0989,2494.1912,121.10223
-824.09894,2343.7524,153.37288
-416.32312,1669.1888,107.112366
13.469552,1275.0704,-6.2138743
307.3546,991.3212,-36.63382
601.4675,706.2167,-67.640236
777.9877,355.0129,7.504535
681.5708,459.16986,22.190527
573.6587,861.0713,7.606641
62.012352,2571.9543,-203.161
-957.1904,3527.147,-377.91284
-1102.0033,2318.4956,-217.23119
-1050.6351,1207.4078,-76.49505
-920.5712,559.8743,-81.534134
-805.6423,31.600107,-152.73871
-895.0789,-405.21185,-255.29044
-1155.4126,-681.49194,-342.53275
-1120.3146,-418.2039,-188.39563
-949.85394,271.51297,-1.9571754
-1273.3895,1889.9976,420.4326
-1081.8634,2969.8423,488.80118
-506.05402,2182.4604,283.65146
-113.4826,1461.9694,258.30182
157.9165,958.9957,77.8457
499.73508,747.64386,-23.065485
793.07263,406.39795,-38.942963
948.60736,317.34415,11.903794
782.017,564.5148,86.87602
461.73193,2074.044,216.20157
-792.7996,3847.7063,-42.173798
-1407.5752,2615.9553,-100.82949
-905.5003,1349.6055,-44.68787
-894.65283,891.7596,-124.46422
-633.36694,183.97458,-212.58632
-740.9973,-360.05402,-266.6377
-932.9753,-653.7261,-331.72122
-1167.7036,-528.1004,-262.4488
-1236.4653,267.22604,-169.08272
-1875.8337,2316.9148,117.39447
-1239.5135,2924.3018,290.01694
-389.99448,1767.0773,258.7999
121.44395,1229.7599,164.83134
307.49326,1017.5747,118.352516
603.0511,584.0683,46.185944
730.56683,137.4847,55.702255
680.7009,354.87186,73.776566
487.5887,616.653,151.36931
224.27144,2178.795,189.49205
-989.4691,3729.497,-45.34485
-1031.062,2117.2576,-43.592983
-722.2342,1451.435,57.695526
-906.6906,1062.0422,-43.221874
-689.1274,360.63852,-152.30244
-645.913,-63.940952,-195.75797
-845.88837,-287.67548,-180.43651
-1005.83545,-453.0858,-238.4091
-974.7263,-362.80743,-85.15601
-1196.404,575.99994,70.25705
-1388.2002,1897.009,389.40054
-996.0202,2545.6853,447.16702
-582.6525,1951.1229,282.67056
-307.52307,1290.3424,135.25887
-107.21779,1141.5083,80.94395
185.85835,879.99365,18.351357
569.10486,406.99936,-62.402676
809.96375,391.23788,-58.236824
768.5744,601.5087,-41.336796
533.2727,1413.3672,106.78346
-381.9243,3036.6855,-0.7853578
-1093.6443,2935.7786,90.32594
-1163.762,2101.9065,227.72006
-1246.89,1194.2584,27.656597
-987.7768,421.7855,-84.476616
-825.4797,53.038074,-169.45784
-759.4213,-294.20044,-275.9844
-873.0869,-530.35754,-301.38757
-872.92725,-374.2592,-163.47137
-940.14014,10.304468,13.973092
-1330.6337,1080.8892,286.37476
-1421.8684,2354.7078,498.35574
-1003.6218,2225.9883,367.51697
-594.5378,1405.862,202.76791
-330.77502,1269.9109,183.6611
-14.025823,1144.8314,116.853325
357.50992,643.16815,72.15942
627.44336,304.89407,-19.59102
730.8816,304.67917,25.48738
632.4293,407.0458,-7.4283876
360.93048,1436.4011,126.47329
-567.2705,3260.776,33.260155
-1031.8499,2959.0278,-59.665676
-1176.6277,2280.9248,78.311
-1182.4857,1140.7902,-64.38017
-958.8783,353.8998,-125.39952
-814.5511,6.872927,-196.11674
-853.9854,-147.58093,-188.75702
-949.7932,-342.83496,-257.04654
-1025.9788,-498.12906,-205.38902
-884.4548,-234.41167,-78.172
-1184.0857,708.1032,288.87372
-1718.0394,2805.82,719.38885
-1218.3265,2661.3743,507.8638
-475.1972,1659.4453,426.75824
-108.85627,1312.1761,288.66882
188.64276,873.8022,119.89084
497.26294,604.80963,15.933612
710.6872,364.1737,-8.588219
716.4038,377.84216,-30.309578
559.0653,801.4048,171.67259
71.57967,2342.6736,267.5666
-1125.9379,3423.6455,100.408676
-1323.2405,2388.5566,257.43597
-1119.536,1401.5612,170.99579
-1122.091,782.83496,-10.112091
-813.64166,246.62231,-163.14613
-821.3481,-120.88383,-269.47437
-947.6784,-418.7612,-380.6559
-1033.8354,-590.7213,-421.82477
-884.32025,-348.98172,-172.90503
-1135.3711,518.90076,46.300354
-1672.0094,2356.2886,330.62543
-1116.1776,2878.5361,368.60678
-440.25763,1815.837,312.59915
-162.48117,1078.4432,118.96174
120.30374,954.7278,45.404526
414.3588,797.21814,-39.81415
656.92664,389.37653,-100.48262
744.83136,456.4752,-88.40981
674.01086,654.3905,-19.62047
329.82303,1799.562,47.87105
-673.5848,3186.9731,-168.31369
-1172.1797,2861.1814,-121.12456
-1054.3074,2052.8093,34.362797
-1056.7858,1214.8099,-64.1786
-787.7499,376.32803,-71.51307
-692.15967,157.40482,-129.57362
-795.87335,16.298925,-161.53711
-1001.99915,-210.51419,-233.52856
-973.234,-497.58972,-218.18687
-934.9686,-319.90164,-62.926983
-977.7541,531.63293,145.73433
-1359.2936,2375.0183,579.15356
-926.41766,2857.8337,463.3822
-470.0176,1962.5343,359.03195
-23.454481,1239.5387,342.18143
60.29443,793.2734,220.64474
364.2061,528.89496,136.08078
369.73257,283.97153,128.87207
646.30963,336.61383,132.9999
292.44916,625.4073,198.58931
398.9876,1482.6735,469.57812
-518.19824,3202.6533,62.1335
-1482.5612,2848.9038,-86.42524
-992.9051,1609.8384,51.74904
-1084.7644,1087.3105,-39.687786
-759.9623,324.53506,-131.9345
-822.6319,39.076103,-150.58177
-930.4104,-325.80515,-176.27715
-989.4976,-575.4165,-309.41983
-933.2765,-525.71765,-155.79018
-917.4779,324.6246,-37.324184
-1253.0964,1890.6527,270.61603
-1161.2198,2600.336,200.7667
-511.62332,2295.6372,67.00159
-176.45602,1586.4565,125.29374
71.88957,791.5491,-24.77726
361.16412,671.13696,-33.028667
612.14935,459.46024,-30.814074
813.87286,277.2407,36.50278
727.3403,414.28436,62.2139
508.10452,1556.0686,141.43541
-754.5906,3601.7466,-142.77332
-1563.6644,3009.1243,-139.20827
-999.10364,1426.8519,99.84095
-1144.1335,884.5132,2.9536357
-823.9353,162.26077,-116.33431
-965.43744,-202.06776,-200.19148
-886.1311,-827.4756,-410.75348
-1039.4465,-747.6229,-372.04108
-751.77277,-550.5592,-188.78127
-1442.2234,1092.1687,171.23198
-1693.7034,2937.7625,345.60242
-813.1195,2609.7102,223.17506
-300.29788,1698.2275,212.43198
-11.570441,1007.7613,81.44191
200.25198,856.0102,58.725624
408.05295,692.52655,40.8074
639.4188,392.4225,34.558434
689.47705,407.62808,70.80047
582.8688,824.88196,104.339836
73.04681,2585.2646,-137.42262
-754.0525,3612.523,-529.10065
-961.63654,2722.8145,-312.66348
-1085.7765,1865.4012,-165.98514
-1072.6349,702.78375,-208.88289
-877.1292,10.398149,-312.07687
-1047.5139,-376.6666,-543.25116
-1446.2952,-747.9826,-720.5114
-1296.4392,-820.7462,-525.1071
-1062.4893,-207.28557,-136.16331
-1713.9668,1660.446,206.73576
-1292.7316,3123.687,355.5026
-685.2565,2718.455,328.59766
-350.50128,1710.013,196.5499
-97.679924,1197.6031,105.12948
232.01398,1088.0292,129.016
481.49304,740.5689,39.39286
692.79565,326.7654,5.2351294
681.5255,354.37234,17.3176
466.41226,821.2299,36.853184
-288.72342,2759.2869,-127.80946
-1316.9514,3682.9868,-327.0986
-1388.8418,2303.045,-118.548546
-1370.9534,1330.0236,-52.371
-1365.2701,644.12286,-62.31568
-1043.5969,21.99312,-145.50896
-892.8631,-418.71613,-173.22173
-957.4916,-691.4367,-272.00305
-975.153,-806.93524,-262.93515
-1034.0496,-45.30843,-43.39833
-1447.6796,1230.8453,132.17976
-1516.331,2347.9795,361.1952
-1098.5786,2563.2512,361.3501
-640.15247,1941.4957,270.22333
-327.84036,1349.0146,146.68446
-22.127638,1115.0519,92.84092
321.8063,800.9001,-21.893469
670.42346,466.42276,-115.55415
885.08136,451.1998,-89.68297
809.27374,490.0837,-50.726727
155.71213,1709.2922,-0.36529022
-950.31915,3572.6553,-198.1392
-1779.5304,3261.4602,-200.54982
-1728.1833,1732.4896,-203.75183
-1393.8254,699.0742,-263.2071
-983.41943,194.4703,-223.76039
-808.2534,-180.88701,-290.69638
-868.9484,-496.02145,-332.85797
-961.33307,-646.31,-328.8729
-908.1087,-397.436,-97.38852
-1081.9319,487.24734,171.14442
-1456.2383,2023.9796,546.1516
-1196.4413,2581.2332,473.10452
-660.17993,1966.0895,321.9067
-92.71924,1383.5869,220.74744
270.94568,891.95233,63.95596
472.17883,621.24133,-9.088491
623.51685,286.39026,-58.116943
658.06055,242.59569,-13.828291
475.66013,403.64133,80.47646
199.97064,1613.2546,115.3817
-623.7094,3139.9338,-171.98994
-1214.9017,2815.2798,-165.77596
-1037.6173,1766.8616,-51.027824
-934.3483,888.349,-101.19399
-771.8417,305.74957,-97.50722
-717.08105,-159.39969,-143.53009
-762.3125,-629.16223,-243.71555
-911.72546,-848.5148,-321.0719
-855.6033,-512.5337,-87.337105
-1233.7036,483.89923,113.09385
-1784.9841,2063.9487,399.95795
-1415.258,2542.1472,396.663
-857.51337,1748.9774,209.81801
-520.6197,1232.8494,90.10431
-171.43355,1201.2219,1.5280828
195.47446,876.8695,-80.73789
473.13855,555.55054,-127.11049
680.25214,371.8485,-138.57611
754.3243,363.97104,-22.391853
498.21,775.31836,138.19182
-30.49546,2273.5017,223.6197
-1202.1328,3271.1587,23.679304
-1425.0892,2176.138,-28.531952
-1142.3145,1277.3125,-48.120766
-1016.09314,824.1555,-114.60448
-814.11804,253.06636,-191.44746
-671.66736,-303.1613,-281.75247
-783.743,-543.29614,-341.79263
-930.7453,-537.5744,-305.93872
-952.8734,-313.17355,-117.850716
-1394.9137,739.1277,204.75078
-1609.0973,2202.224,658.1339
-1084.8889,2271.4048,595.104
-720.12665,1453.2632,409.75745
-320.01437,1256.0916,291.29807
36.620876,976.2433,201.3764
389.18152,580.322,89.433044
583.3589,272.06247,65.87718
737.8425,179.21513,52.113087
502.60535,408.07306,176.95274
153.28253,1612.4991,302.0716
-816.6664,3310.936,238.93446
-1205.7278,2879.2402,157.77159
-1080.9531,1688.3092,87.90587
-1015.78253,968.32495,40.54774
-810.19214,372.97348,-55.35804
-688.4186,-150.05193,-187.29512
-807.7915,-460.48843,-286.50546
-821.78973,-545.14886,-233.18149
-839.43896,-226.72427,-100.03739
-903.4254,386.12027,5.70654
-1417.4673,2054.1191,195.84848
-1071.5691,3126.3503,299.60196
-533.333,1922.7513,168.38893
-130.84657,1012.41144,165.72606
59.884632,884.1212,153.29994
402.34253,632.72064,37.43464
466.00098,340.69446,49.661274
711.7999,292.4729,66.362915
386.4168,451.0663,179.59026
150.51617,1262.3662,504.8112
-482.82162,3076.996,-48.511402
-1628.4403,2765.7173,-219.00655
-838.1537,1597.2651,44.806973
-1043.3854,1181.9344,-124.87651
-735.30273,452.33554,-175.89917
-725.23,95.08628,-223.03938
-710.2263,-168.31871,-144.58809
-863.0172,-500.73666,-185.81036
-779.23486,-558.06396,-113.07574
-690.2268,-227.01538,-166.90106
-1602.5724,1493.1393,117.59336
-1856.383,2795.703,131.36229
-833.8287,1926.283,-22.766708
-482.67368,1523.4695,12.5768175
-40.130577,968.73834,-132.7756
153.24506,776.05536,-119.71234
587.4073,486.7855,-143.84782
723.0534,580.24347,-86.80183
784.65125,538.0787,-99.50754
467.523,1324.6514,-193.25331
-252.90591,2720.5432,-621.53955
-1215.711,2879.7388,-635.1772
-1115.0233,2161.9062,-396.10706
-1214.9829,1252.7684,-293.39487
-1005.9182,478.73102,-284.31894
-902.1214,-15.954114,-185.95078
-792.97797,-223.64883,-113.1829
-973.62787,-327.3057,-77.5658
-967.82544,-360.4821,-127.520584
-898.4488,-208.25256,32.553616
-840.16907,804.23315,-163.28296
-1421.0006,2440.422,362.92612
-902.2,2184.612,351.4347
-417.92538,2069.795,-48.67087
11.926223,1474.4447,14.3522835
117.535355,846.3846,-29.387066
431.35934,497.07626,-69.564964
552.5463,371.3676,-70.736015
806.9957,355.96948,-2.8498647
634.5248,552.1486,66.90961
359.9729,2055.1567,51.208485
-1205.7869,3688.3372,-164.99988
-1507.9967,2395.2466,-96.95823
-1131.713,1085.249,81.98045
-982.62946,612.37384,-26.616013
-729.96936,246.99022,-76.73805
-721.81,-106.69632,-124.292435
-745.96594,-626.00104,-229.30376
-846.4338,-740.7004,-257.25485
-832.0586,-476.97037,-104.843575
-1318.3038,950.86584,-18.631153
-1678.8875,2283.728,396.27008
-1118.3317,2095.4802,269.68765
-660.176,2026.2769,10.098129
-187.54718,1283.0543,60.98612
-75.28809,816.3024,33.319107
352.05377,583.8318,-43.284557
455.41837,509.25806,10.951067
819.44775,267.8757,57.14571
362.86682,578.75244,172.65321
296.23154,1672.1896,171.14578
-1026.6232,3276.8508,-328.9716
-1676.1488,2775.1536,-304.28122
-1000.00726,1449.5391,-135.49678
-1111.1672,741.7236,-191.25569
-717.471,102.68742,-243.94975
-695.3044,-206.187,-232.36096
-762.6597,-574.3315,-381.2074
-1142.3026,-783.9332,-370.21542
-990.3446,-231.58086,-301.4362
-1246.6036,1077.9834,-186.29659
-1531.1257,2307.0251,390.50638
-886.56244,2451.9197,255.01924
-424.27783,1789.2529,65.91679
-40.62012,1015.51514,90.65733
153.12411,777.3211,66.212616
442.44696,652.2823,20.417551
538.4446,333.96255,77.13834
651.2124,235.66873,71.99546
414.39725,570.57837,158.64148
220.20071,2094.488,96.68926
-1061.489,3650.865,-299.79337
-1334.3824,2569.0195,-216.46223
-1017.15155,1227.5472,-208.20366
-970.7482,601.97986,-210.03152
-876.0453,65.905334,-246.76767
-911.7001,-403.35263,-315.0652
-855.45605,-773.4603,-361.46042
-900.26044,-582.65015,-206.48172
-914.8732,-81.76763,-76.70569
-1692.6147,2085.129,341.79434
-1611.4386,3257.3855,345.9328
-579.45825,1579.1827,175.56697
-94.86103,1069.0648,212.59619
140.24373,835.3676,90.0933
327.82434,585.8337,60.044468
623.8088,192.11952,59.89134
613.127,355.24918,111.61614
546.0404,591.3609,170.16331
91.23887,2112.096,189.05876
-943.5968,3311.1536,-69.26963
-1276.006,2347.231,-76.65644
-955.5682,1181.6354,-87.55119
-910.64526,654.8725,-117.13717
-744.9421,159.08098,-158.2068
-787.0561,-236.21729,-199.13052
-923.2312,-563.149,-304.67117
-962.43524,-456.547,-221.7446
-879.095,96.33433,-17.073627
-1260.2456,1610.7914,406.0244
-1088.0852,2388.6157,589.6619
-724.1402,1851.7191,399.0117
-368.12967,1523.499,341.33682
-59.485928,1193.7837,173.14775
381.52307,735.4823,95.34684
659.1041,482.60236,33.70647
870.87585,209.49738,56.35975
672.89404,310.80463,83.05309
546.853,1245.498,301.3583
-607.07635,3581.432,187.07085
-1479.2107,2981.935,26.711283
-930.1001,1456.9082,83.119514
-910.6772,1050.6348,-36.625957
-758.4394,582.65314,-160.66464
-744.7275,-1.4569148,-240.22588
-807.9606,-367.385,-307.1506
-971.4545,-538.1498,-366.63995
-913.16156,-409.9079,-198.69331
-1033.2954,421.35587,45.149525
-1520.5437,2183.4888,426.69687
-1056.1857,2647.721,467.04333
-580.81384,1830.6084,302.11804
-239.63063,1212.5787,167.52173
-93.38442,1078.1724,56.47327
272.90027,680.4591,-28.726982
537.7512,365.6633,-73.570625
841.41284,134.24258,-74.060715
798.7818,316.1222,-78.242134
751.27545,1040.555,75.15896
-379.46405,3620.1558,-175.14503
-1337.4998,3423.9678,-200.1567
-941.02454,1787.3425,69.21083
-1079.2996,1191.935,-45.161457
-859.36176,463.1869,-135.86794
-711.2055,-22.587975,-221.71466
-783.6685,-154.13025,-253.3808
-939.54706,-397.2829,-320.11957
-987.85364,-416.216,-236.77002
-998.4869,-32.6273,-51.479298
-1585.7021,1660.3779,384.8478
-1343.7645,2990.2703,465.79062
-620.8627,2001.8073,286.65744
-216.51665,1310.8407,166.24579
-13.59957,1247.0599,-44.265625
289.9643,879.7576,-107.70553
553.6931,476.06412,-94.83368
716.8647,255.76659,55.98568
674.80646,415.93927,121.287384
410.6456,881.43506,255.8781
133.7931,2419.461,154.32646
-1161.7528,3410.5203,-61.44822
-1123.026,2187.5723,121.64441
-851.0557,1366.8561,-31.376904
-823.9276,683.3395,-148.95201
-685.4906,212.56372,-229.09361
-938.54065,-247.28781,-292.09222
-925.99713,-695.60645,-485.27478
-933.289,-682.3085,-424.09967
-593.35345,-329.08536,-204.95143
-1233.1323,1321.4407,-81.0561
-1381.8116,4203.9033,-164.49728
-369.71243,2594.8252,-66.111984
17.530409,999.4815,-150.18518
160.32762,1068.1526,0.17696457
267.70108,649.945,-18.316296
435.02292,301.8723,46.008465
470.9295,245.29652,192.35472
525.74695,213.67296,169.96117
513.8505,728.83496,135.28914
3.7756326,2664.6226,-301.47665
-855.54156,3353.7437,-617.10535
-916.60114,1947.3383,-491.32407
-771.5523,1147.4714,-266.74548
-695.4817,645.78625,-146.0309
-507.85022,-86.59007,-121.03032
-583.1952,-607.50903,-224.01334
-757.0433,-895.61444,-370.8271
-864.0301,-548.1859,-152.06282
-1254.1489,219.85028,30.770782
-2485.9885,2158.8535,178.0844
-1733.4823,2806.4438,312.22705
-854.72473,1703.289,204.52034
-289.43597,1093.7727,-35.149036
90.86153,979.45026,-95.18719
423.34918,767.8513,-155.55806
562.40247,499.48758,-46.240562
823.1551,226.0854,19.32639
698.13434,229.9936,46.279694
667.3501,709.0875,-127.200066
-657.232,3142.428,-789.0408
-1953.4154,3645.075,-950.7691
-1061.6841,1408.6476,-424.62717
-1030.9529,803.2291,-224.81079
-705.41296,198.92992,-70.22857
-557.15515,-214.93634,-143.37915
-508.66245,-809.57324,-209.3264
-711.6907,-933.1593,-333.85492
-840.60223,-671.3829,-186.26971
-1284.1782,-183.26299,-96.4858
-2687.5452,1155.8011,29.70766
-2748.2356,2478.9285,254.88564
-1427.2617,2125.1929,168.98152
-915.7365,1153.6464,86.31104
-343.96017,856.2173,49.47893
33.907993,1031.5797,29.885817
500.94745,672.4021,-11.785177
581.7288,592.604,68.348206
616.63666,745.05304,97.623726
306.51883,1227.046,147.51709
-463.5821,2308.2905,45.16415
-1883.3373,3182.4365,-50.44658
-2039.9714,2207.1003,-32.992504
-1606.5638,1026.9384,-51.34474
-1222.4086,375.9405,-83.19545
-918.5052,-337.4435,-231.75966
-819.0809,-1068.523,-453.90793
-818.36755,-1302.8226,-462.54156
-892.0823,-736.5462,-162.94484
-1196.6378,-157.2077,-38.486576
-2103.8013,1510.4949,217.05644
-2039.4324,3069.5015,379.0364
-1227.6655,2346.0051,123.21006
-540.7469,1116.3652,107.33407
-38.275818,698.7077,15.793369
322.1057,979.54395,-70.54063
610.1236,707.34705,36.023525
813.69824,374.44388,66.8644
729.83466,448.76834,96.88405
518.884,976.7226,-12.719008
-379.4383,3024.8264,-446.4047
-1587.3668,3766.2073,-651.91785
-1522.3695,2335.074,-467.7441
-1302.887,1149.3219,-313.6929
-999.0855,331.30753,-259.26962
-862.8899,-71.37581,-315.50952
-946.18054,-497.37418,-433.2193
-1040.6396,-741.9823,-499.17545
-913.9471,-750.8373,-312.7703
-821.45715,-299.19922,-67.21629
-1338.8297,733.71,215.96248
-2095.7651,3170.8315,523.4517
-1146.2628,3060.3726,474.4614
-376.8955,1470.9683,353.258
37.950314,980.2588,227.00964
222.6556,855.63934,212.77972
538.89905,615.7049,115.78988
778.12225,325.85345,157.06131
872.95935,571.0852,267.24115
487.71994,1416.3907,321.8332
-161.85962,2821.1648,116.127495
-1068.3024,3233.6086,55.43839
-1524.9886,2325.7625,-141.51038
-1313.3552,1297.1609,-199.01274
-992.92114,832.9343,-158.36044
-750.03784,14.258289,-285.34204
-1027.8646,-370.8318,-410.06482
-1256.867,-987.6945,-613.5966
-1169.4896,-844.9165,-358.80176
-1144.8384,-270.89932,-32.763485
-1827.4652,2246.3252,461.63126
-1577.1829,3556.401,664.5741
-526.234,2012.3236,510.19366
-129.23436,1364.9663,413.0236
168.50781,950.87494,327.20422
329.51584,666.72186,249.9158
511.84003,304.80228,141.60889
544.94476,425.96997,158.42226
574.3288,678.8654,160.62355
420.94476,1357.8986,157.31021
-335.65802,3217.581,2.5860212
-1434.0526,3742.1416,-45.26578
-1322.4738,1910.2026,-79.170044
-1252.7247,934.15533,-32.710266
-1154.3589,234.80168,-158.23946
-1186.4954,-296.90903,-282.8787
-1210.8864,-794.16266,-458.90204
-1062.6146,-862.5844,-262.504
-843.9262,-417.89328,-1.723533
-1100.3684,1139.8046,295.1584
-1323.117,3212.444,571.4892
-733.1641,2627.3953,541.56635
-225.42041,1619.8232,490.64642
8.864862,1231.338,363.29208
237.49359,920.7671,222.30983
422.29395,562.2314,92.20587
586.0312,279.89743,5.9548173
626.6801,379.16257,69.675545
674.5723,808.0511,235.72383
255.59212,2239.1958,509.62357
-629.96893,3347.4788,418.76337
-1054.5842,2263.2686,271.5316
-970.47345,1381.2668,139.79451
-902.25476,567.178,-81.066185
-830.1819,-100.97111,-305.12466
-855.6318,-593.42633,-434.79965
-884.68915,-651.6366,-493.88754
-841.7297,-482.79623,-303.98132
-1139.0245,581.01416,143.03098
-1708.6537,2430.7917,660.8366
-1196.5305,2790.5044,646.1231
-416.41534,1886.2977,452.6463
-126.1592,1150.7245,295.35153
159.4265,877.83203,132.87212
376.87866,712.4111,92.6755
572.52576,272.22974,29.23545
759.24384,183.04976,53.20668
661.4263,453.64468,126.63222
369.7851,2240.0564,158.16458
-676.0094,3648.799,-176.80853
-983.3226,2352.4026,-9.8949585
-778.8792,1367.4187,36.154476
-812.2403,793.47833,-40.485607
-635.3893,37.132088,-165.42314
-832.0847,-338.4769,-217.62227
-935.6964,-902.7168,-420.33887
-1097.1685,-932.7682,-358.98627
-1087.9882,-399.115,-222.62532
-2306.2468,2028.9164,69.47047
-1974.8247,3827.5327,235.8528
-740.82544,2222.1821,177.45619
-264.71405,1353.7524,98.31452
145.11703,901.95734,32.695404
402.48325,937.48096,-12.404148
766.65216,496.0145,-57.662117
954.94336,440.60703,-30.215729
988.28046,487.83972,104.77135
576.882,1510.1718,149.67546
-566.0825,3555.882,-143.83455
-1671.6536,3675.7847,-136.17958
-1541.2404,1286.8069,-236.10587
-1213.9457,219.44534,-255.7869
-959.88275,-412.22046,-259.06354
-751.1184,-533.58,-62.078243
-663.91174,-713.06934,-237.20367
-879.71857,-760.1774,-309.20105
-925.6574,-388.4483,-159.90155
-1742.5985,1158.7826,64.87584
-2152.56,3097.0747,350.60284
-1142.6957,2318.6743,365.2683
-624.20135,1327.8741,343.4312
-272.8773,831.15027,143.2704
-78.166245,745.7506,111.349915
263.59967,625.00085,22.364983
475.23254,539.201,86.94285
642.4192,578.1658,202.01369
-109.26906,1080.8417,671.2751
95.671326,1355.7893,346.198
-1602.6516,3561.6548,47.055122
-1652.4254,2491.0308,-88.256256
-1108.1582,1021.6649,-276.57565
-953.8644,566.3106,-178.46541
-566.37866,-132.26869,-379.76657
-760.34546,-565.0443,-400.60275
-872.31885,-986.9256,-653.34393
-1050.7382,-1019.3457,-492.0808
-1015.86285,-514.3341,-213.67918
-1996.1537,656.188,-28.110052
-2492.863,2958.0742,118.53571
-1596.6001,2683.7664,97.13982
-873.8907,1308.9268,-53.65737
-283.64157,1443.9949,19.99156
239.43018,953.6823,-45.187317
641.96387,645.25085,-111.947975
910.5065,424.86215,-86.64056
911.04346,538.64233,24.17989
632.7027,877.9269,35.322304
20.20527,2375.726,-83.500114
-1334.0826,3671.4692,-322.88925
-1519.5931,2272.0898,-276.06226
-1292.7404,1282.5712,-237.70093
-1083.5122,851.1554,-241.51256
-752.4882,-166.93796,-431.04327
-828.34784,-966.9801,-599.9276
-966.3781,-1088.4906,-631.03613
-1174.308,-430.8569,-174.69183
-1039.4598,401.4376,306.38028
-1410.0798,1067.9867,555.0818
-1712.7256,2145.6204,897.9516
-1399.7094,2176.1775,738.11707
-719.875,1339.9435,479.9675
-390.05356,1248.7515,357.98373
38.444412,1026.0051,233.85536
322.8197,788.71594,62.68705
678.84106,450.68402,-49.927624
685.65454,620.2371,9.008993
647.48126,840.97986,145.74075
12.692734,2107.5486,297.9977
-950.5574,3296.464,165.66008
-1372.8257,2441.5552,73.89159
-1203.5682,1355.4344,-74.79032
-1072.0256,725.6078,-124.9066
-649.8434,75.20539,-227.18303
-759.33405,-362.8548,-265.94824
-858.4986,-742.214,-425.63867
-1011.6549,-644.43616,-448.65
-813.2242,-430.59338,-165.14781
-1712.8307,1032.8733,645.2098
-2036.2242,2943.13,1076.0879
-976.5957,2161.7466,884.0466
-525.7324,1453.2542,561.3504
-82.34795,1231.3108,364.3656
303.574,1080.3201,157.16328
693.7226,773.0924,-56.395306
988.59534,480.44507,22.220114
755.0385,315.1851,276.68387
576.2846,275.24036,175.92601
158.68187,1786.2076,391.1648
-633.80804,3582.4255,293.1417
-922.3867,2600.8987,242.42892
-605.5267,1120.6833,223.55042
-643.37506,456.4388,-9.66968
-522.30634,-50.192036,-62.69678
-646.1669,-291.5181,-246.11562
-811.327,-615.5106,-423.05582
-901.82007,-376.8689,-338.83508
-998.9376,-22.414242,19.501413
-2114.26,2202.7043,660.4551
-1621.2996,3299.735,729.9935
-569.4524,1929.307,477.91782
-167.33531,1305.0636,352.01614
215.28137,943.64886,165.3807
458.8147,751.51184,112.56555
673.4446,431.60822,49.984016
875.38025,332.0096,146.02733
885.0161,558.09155,275.38983
493.9193,1463.7308,370.38385
-255.62425,3195.0208,231.79404
-1190.5105,3233.9575,268.2169
-1271.5911,1368.0627,-49.925003
-777.3931,251.77502,-238.30495
-741.1531,62.513363,-224.12756
-497.38455,-430.0626,-151.93579
-606.5708,-411.81573,-156.65497
-646.76074,-644.52637,-315.2713
-1372.6226,370.13815,-341.99084
-1924.0055,2221.5215,263.52805
-1318.5377,2363.8442,406.53796
-485.11063,2052.347,541.1781
-453.20703,1938.8217,606.9669
-236.35104,1107.8374,-76.16131
593.27295,640.5129,-140.31871
519.13544,462.38254,-6.0438843
866.9379,263.11633,8.964397
797.3939,203.11053,-32.134983
686.2057,1007.96515,145.58244
-317.27512,3504.0435,-92.19095
-1277.6179,2951.3074,-226.35486
-1002.1071,1489.8754,53.497734
-963.5076,1100.417,8.414202
-798.0007,536.0685,-120.84128
-584.46814,104.95434,-82.77616
-767.03217,-397.70697,-124.331955
-1011.34845,-722.66327,-349.1994
-1049.1578,-577.68146,-269.2113
-1044.5216,278.5231,-221.51823
-1774.4404,2561.2815,92.83949
-1144.2957,3031.071,119.07372
-376.61658,1948.2906,-3.5044801
56.151382,1292.1831,8.933776
362.52786,790.62164,-55.663277
685.5023,665.68933,-28.274544
853.7801,178.44371,6.538502
884.9732,256.9045,90.59976
678.45197,336.1585,123.35941
255.67627,2361.9749,18.524418
-1356.9446,4121.55,-523.4878
-1290.3274,2252.3455,-317.4845
-841.6867,1140.4017,-88.71828
-881.2398,745.23694,-112.53241
-596.4199,78.04405,-160.89842
-779.7475,-358.16183,-258.30396
-966.62885,-744.92206,-340.45905
-995.7084,-585.07916,-273.733
-863.98303,-318.77356,-78.83619
-1677.1699,2021.9694,198.30946
-1404.8033,2987.623,283.82117
-530.21075,2239.1543,246.9555
-135.47614,1660.2861,268.38043
215.71849,1195.6392,191.87892
457.28204,860.4944,163.12003
612.8783,499.25916,88.40056
768.08997,215.88934,116.64515
650.17883,258.4781,133.46739
551.05426,468.0613,294.22714
-129.96619,2673.0918,574.1915
-1266.8813,3503.0076,269.8387
-874.0014,1694.2686,291.15347
-713.58026,1250.2274,218.88501
-721.8454,676.955,46.13041
-599.8678,97.50215,-121.63615
-705.00214,-323.3591,-170.48262
-863.50714,-574.6764,-326.96982
-992.0676,-620.3396,-490.85672
-1102.5396,-104.96923,-249.48169
-1666.482,1499.6064,239.23833
-1557.4987,2714.758,499.79852
-906.19965,2259.5708,390.55487
-421.0005,1545.0553,266.3205
-42.97854,959.82214,111.03358
251.53694,766.6278,49.62759
534.2687,543.38684,-13.582821
707.9218,286.69577,21.805672
717.2136,290.07654,57.989407
516.77936,945.8244,236.87706
-215.6732,2960.6052,101.748535
-1331.1189,3619.329,-239.42288
-1412.5947,1868.8553,-82.74335
-1088.4584,881.7967,-82.028984
-976.6842,367.36887,-178.92389
-707.63605,-157.44608,-120.575516
-652.725,-568.4551,-161.57953
-659.87537,-858.04193,-260.49896
-794.8593,-516.6643,-200.52385
-687.385,-131.31541,31.768023
-2040.714,2016.7125,390.51776
-1985.2882,3104.396,421.5715
-765.43256,1912.31,333.90613
-392.6762,1237.7792,233.04153
16.485512,667.82446,41.877724
344.33673,623.0437,43.32299
629.2195,409.84677,-30.83269
809.8856,241.42812,17.91095
782.441,311.8846,7.844365
422.368,1650.761,258.27713
-1015.0465,3877.724,-178.9675
-1645.0446,2771.6997,-229.7094
-1072.1245,1268.3151,-31.849478
-1089.7991,1023.1625,-82.215706
-788.93286,221.85292,-104.670494
-696.5465,-219.28868,-179.37431
-734.53125,-755.31915,-278.93042
-921.0979,-732.2082,-308.71814
-921.14606,-489.75375,-200.34433
-1267.5553,494.53842,18.5033
-2031.8326,2516.5972,208.1246
-1232.8817,2816.2974,100.38081
-564.84564,1787.7963,113.91116
-191.10976,1327.3435,23.678755
69.66774,991.67645,16.915253
408.30362,687.0078,-34.04417
672.851,396.8387,8.324888
862.1301,486.4622,21.730137
696.4882,573.5479,72.21561
638.27704,1366.7284,0.22829358
-455.92706,3153.9346,-360.39694
-1525.4047,3170.5425,-468.06436
-830.1443,1598.4816,-137.58807
-970.14746,993.7349,-80.77137
-844.79987,359.26685,-187.98471
-867.89154,71.945496,-178.03725
-950.90283,-277.57538,-154.4798
-1107.0026,-556.8113,-318.25232
-831.3892,-450.15515,-207.96828
-775.34235,511.728,-13.195838
-1287.9867,2752.242,160.49025
-737.99945,2887.4631,146.94589
-87.110596,2021.2826,148.42245
29.506395,1430.5626,33.565018
212.03517,789.2001,-78.453735
390.7756,601.9202,-82.63254
522.4253,352.14407,-111.82237
602.77637,94.36227,-69.295296
617.1007,178.6047,-53.9045
663.3283,867.73694,8.163272
-29.915045,3163.248,-247.33395
-880.38635,3221.12,-298.05453
-462.78137,1464.5029,87.174065
-732.734,1169.5112,169.50166
-655.65015,575.05505,40.18526
-691.62646,126.36281,10.571091
-787.1891,-451.8982,-155.04669
-862.096,-450.1445,-307.56296
-668.2926,-425.32892,-266.0398
-1064.392,196.48596,-8.802643
-1975.3129,2394.7441,399.07184
-1231.5123,3372.5947,637.2972
-448.3341,1659.7938,363.91995
-83.68144,1171.6598,217.89214
263.95648,1107.0231,239.648
422.1354,681.44916,100.93952
619.6234,230.15358,28.005064
677.98,-12.870765,2.8475237
657.40497,381.79968,116.37806
309.31876,1886.5438,177.81839
-257.08133,2885.046,-88.59747
-582.3275,2502.931,-148.12057
-708.3608,1798.4808,50.081474
-843.45386,1374.4755,-68.71417
-719.7312,387.03622,-168.01085
-719.55725,-125.91966,-109.23358
-776.2976,-521.8547,-156.49274
-831.10706,-447.07895,-264.94424
-737.56757,-398.90115,-200.905
-1302.4836,955.8506,290.59155
-1788.5085,3072.0168,566.56146
-882.6429,2546.4226,462.85052
-264.59576,1664.1372,399.71588
22.411476,1248.0741,245.02982
337.38266,802.0692,162.2712
464.24677,589.3685,-9.47746
710.1968,138.50262,-163.29597
842.7846,32.873394,-172.08054
841.66095,241.81703,-8.378217
520.92755,1814.0846,77.171005
13.315635,3620.091,-263.92432
-424.28378,2911.7266,112.099205
-469.6449,1711.4304,101.85777
-733.35187,1062.8951,22.710443
-671.7604,257.41577,-63.99804
-752.4385,64.91049,-24.962633
-1208.732,-289.1504,-133.8876
-1599.9988,-138.46074,-378.7763
-1170.4991,-267.4578,-261.28427
-1349.3511,823.5062,346.8312
-1716.4819,3428.3416,892.1873
-452.52823,2578.9683,618.2463
191.40393,1673.9778,605.6126
441.0288,1212.4498,299.22836
685.3095,566.6765,63.713295
791.2523,208.17377,-87.40832
783.2794,165.6735,-16.554087
700.75665,363.3582,71.16143
633.5282,1201.7477,535.1614
-422.81216,3942.2522,973.8061
-1640.3634,3111.4705,577.0012
-1336.5808,1083.5251,599.27997
-1047.3813,956.0777,354.11063
-688.6617,157.20058,2.569508
-558.7484,-138.83514,-241.40358
-616.76965,-303.85342,-448.23376
-782.43164,-558.1572,-630.66797
-978.2943,-218.28802,-392.5337
-1158.7526,197.37573,-140.12798
-1799.6819,2064.4475,622.90955
-1996.657,3226.5818,509.3197
-781.31696,2072.6733,382.00824
89.47728,1416.7078,388.72037
498.60544,944.295,213.57518
604.62415,602.01385,225.25223
759.14056,281.647,123.8275
774.04767,270.1553,112.62469
555.2546,871.5767,379.7317
-555.7289,3348.4392,310.0562
-2172.7002,3749.6223,-105.31201
-1347.2502,1427.8743,77.5544
-1043.363,748.21735,18.697569
-880.5766,464.32672,-180.70357
-681.6315,106.314514,-366.69702
-969.88104,-279.92502,-357.47845
-1120.0122,-846.36804,-498.38504
-1043.3344,-614.68774,-401.1516
-886.03937,85.346375,-243.5069
-1488.6968,2241.8645,345.64304
-1268.6064,3571.9478,499.9382
-368.14557,2160.7456,235.80304
114.14592,984.3729,175.31433
415.92123,576.79443,140.7525
531.20386,583.17914,73.93765
654.4281,190.71864,76.51439
668.3621,191.37743,91.38159
590.8603,383.46042,133.42871
206.38548,2111.8516,-125.022484
-1019.3107,3855.9238,-458.2962
-1280.5055,2493.9775,-341.82913
-952.3212,1235.3331,-163.62468
-1021.1148,741.3332,-192.47346
-577.41614,106.66081,-357.34793
-447.0694,-277.07565,-303.77032
-551.92267,-555.495,-272.1454
-1020.60455,-356.70288,-350.749
-1058.883,148.94174,-87.32056
-1440.2816,1219.533,392.0636
-1497.1997,2652.0203,434.38763
-654.0975,2387.8718,80.8848
-103.97438,1539.6095,-76.39844
297.62354,1365.4869,-172.67137
515.36774,850.3145,-154.58682
570.1823,517.80975,-165.09114
733.4164,77.72104,-133.98361
686.4019,188.61665,-53.267235
661.8484,415.26526,113.08475
-43.14897,2652.8447,66.70036
-1375.5962,3837.0618,-365.15097
-953.0029,1414.4977,-185.79155
-714.6035,765.3655,98.45215
-637.96265,724.59344,-4.1675
-430.5929,361.4949,-63.545765
-477.791,-154.13593,-111.75732
-511.76093,-456.9446,-169.65071
-670.02936,-348.63596,-211.06313
-536.2353,-274.3375,-157.533
-1382.7175,973.1082,236.6023
-2516.3694,2697.434,635.617
-1253.0558,2254.3345,387.48203
-530.7777,1570.8066,308.2029
72.23475,890.9339,92.42223
297.93607,583.5952,52.358303
605.964,451.38138,-43.862427
798.4714,129.03201,-75.37087
799.04156,300.84674,-4.2526236
498.7221,622.67224,229.98239
6.3040814,2725.8987,344.19022
-1701.583,3939.5974,41.61875
-1412.3025,1848.0817,417.45157
-1187.6183,1396.2563,387.67807
-1405.8477,630.23737,-2.4627204
-1070.3264,53.244537,-69.33142
-950.5,-319.2475,-141.00179
-730.80475,-674.8449,-294.82956
-639.5086,-704.1531,-247.10388
-596.06177,-282.98895,-108.16997
-1392.9521,1531.3247,126.31293
-1546.7609,3142.7659,280.6289
-594.36206,2208.0315,325.71768
-312.35733,1603.6365,355.6514
-188.55342,1147.9509,130.27782
25.007196,950.3837,114.362434
238.20363,576.94684,24.136192
469.03928,332.35092,23.337862
768.6218,147.01395,7.2307568
752.5686,349.2794,38.17909
575.61346,1221.7389,144.54027
-272.03516,3458.2744,50.93352
-886.17474,3039.4326,23.601091
-834.9022,1884.0122,251.43976
-1142.6361,1293.7081,136.70721
-1031.4175,590.6142,-75.85303
-816.81866,-118.44872,-157.59483
-838.1651,-291.93637,-131.07184
-889.4858,-459.01343,-291.45782
-830.3487,-357.5718,-247.1744
-836.9468,27.29711,-2.1313963
-1439.9432,2225.1226,568.9702
-1200.6243,3166.6797,641.9676
-361.34637,1960.0829,440.0652
19.745722,1376.3082,377.91687
253.63359,1062.697,193.36685
416.0841,624.71436,56.476486
644.93524,208.20174,-105.13343
729.69965,66.857956,-71.668045
678.73895,202.39993,-22.983719
525.58984,841.9587,230.62619
-148.72816,3053.2666,268.03494
-888.2175,3291.914,149.81552
-643.95447,1905.1982,375.14572
-777.2714,1360.092,180.78073
-710.6484,527.19745,47.4671
-615.35834,100.35622,-68.08119
-743.8438,-204.13023,-157.22394
-850.3594,-435.6441,-336.90973
-792.91095,-438.29337,-314.65778
-855.9679,70.95209,-56.8846
-1220.1199,1707.2382,383.89572
-1173.2378,2699.5945,515.76013
-558.3186,2190.1272,481.79456
-252.20204,1423.0848,333.85727
-84.43002,1029.1063,194.04373
98.73373,796.27905,147.77885
341.06113,499.08713,68.42729
589.58997,110.9942,10.002158
823.5704,233.10739,18.97401
654.82764,649.464,276.8455
155.33073,2972.0906,192.14786
-788.73615,3462.0696,-167.10446
-761.58057,1913.7086,99.63792
-1061.5669,1589.3378,-140.10971
-1203.0654,500.24597,-278.16595
-745.32623,-135.48926,-273.13663
-721.3171,-408.52463,-72.648224
-821.8027,-555.1147,-100.616844
-914.5108,-545.6666,-87.533264
-917.44904,-180.45128,20.504822
-1751.9698,1504.3816,322.82782
-1978.4662,3240.563,433.08868
-1016.32184,2202.949,273.94812
-471.28323,1520.7606,192.96635
-103.58841,1086.1124,55.710846
217.78319,746.02374,-47.127575
550.32166,378.06046,-113.11752
793.4187,181.36848,-120.51167
1076.4084,112.08352,-97.13551
903.01636,395.54645,38.71363
512.14264,2020.6493,-16.11642
-838.932,4491.8647,-376.65192
-1445.7197,3143.1086,-174.23236
-1285.3539,1493.3314,-147.8956
-1105.2943,665.3186,-136.58182
-809.1615,217.9077,-191.78552
-764.73346,-299.04422,-290.39444
-1118.3088,-505.59775,-468.4996
-1107.2582,-528.2896,-245.60355
-897.9072,-319.8457,-39.45328
-1055.1996,426.5951,171.44229
-1730.2297,2717.551,588.7808
-1310.3577,3130.3015,627.6434
-559.3205,1649.2183,436.3469
-233.75885,1223.555,318.5111
96.58574,1148.6587,235.43457
399.33356,729.827,76.25643
594.9967,400.89993,-34.170708
836.0528,185.2318,-39.445175
829.6403,221.28813,-44.515526
719.46375,682.0457,-15.46612
-200.3236,3336.8452,-120.80134
-1582.4388,4422.8535,-261.97458
-1401.7875,1739.2198,-96.65745
-1295.1237,816.9037,66.23395
-1272.9707,351.21954,65.727135
-981.8162,-281.622,-35.362446
-876.6501,-636.5149,-52.281063
-811.56055,-652.8604,15.593917
-731.2989,-386.484,36.855225
-930.7186,119.06179,178.31407
-2088.4683,2682.143,549.2282
-1479.3593,3137.4092,367.91144
-436.4574,1628.9419,257.38788
-48.077694,1256.7218,145.73549
286.62943,950.59674,5.9172034
558.7883,690.95264,-117.8016
801.11,231.30724,-239.06035
838.2216,280.9459,-178.46774
668.3031,522.60504,-40.638527
197.98654,1667.3567,27.309872
-920.5454,3778.8862,-157.7157
-1254.7002,3130.2456,-31.618069
-1101.6105,1785.2002,-17.45579
-1085.3368,1023.3341,-80.073784
-946.938,289.15225,-214.69606
-902.44,-192.73067,-336.4068
-965.62756,-416.50876,-358.6442
-1019.13104,-394.19254,-192.81519
-958.9388,-237.21382,12.774807
-941.0813,277.71573,99.84837
-1197.4667,1815.7695,147.19763
-1061.6233,2951.4438,239.31284
-447.59937,2015.1156,200.84378
-175.61,1473.5387,124.93289
20.529537,1219.8159,9.688445
226.53365,843.0468,-62.507263
506.20316,388.94388,-32.283577
776.44257,206.69038,86.06922
593.43896,435.85788,128.86595
123.654915,1002.93524,634.72125
422.2451,3043.4915,65.24034
-2227.4585,3293.1833,-160.58037
-1150.0491,1537.3955,103.15979
-1119.3665,1118.243,-130.53351
-944.5984,514.2127,-229.6929
-757.96326,78.7569,-324.4998
-784.9697,-456.09622,-317.51935
-825.224,-731.0002,-396.95413
-867.15784,-574.18744,-299.0792
-766.2145,-148.70018,-177.1626
-1555.3491,1524.02,70.38926
-1801.3159,2951.254,336.26193
-840.5722,2213.7876,151.64226
-327.51254,1454.9948,187.86789
8.646095,762.91504,187.51222
187.62944,688.6472,94.2586
475.95642,434.6319,44.703632
607.40356,292.691,84.42923
585.0184,298.58167,95.6411
455.50198,970.3153,119.68404
-149.05887,2954.811,-223.96399
-1262.1615,3424.9177,-388.0718
-1116.4268,2080.558,-160.80684
-1113.0516,1246.8704,-111.758835
-915.4964,430.87036,-254.79579
-797.0461,-114.14692,-228.26743
-892.9214,-380.08502,-189.85909
-944.8987,-675.71277,-423.5311
-934.218,-627.3129,-361.46033
-845.4876,-55.43601,-147.8394
-1131.3867,1849.6058,233.9804
-1210.36,3079.1277,418.42496
-505.66574,2477.487,230.76884
-126.01725,1609.6874,305.82587
98.23263,835.32056,214.1307
275.9491,501.5903,179.77122
474.94824,318.54633,179.48422
538.8443,279.19336,175.59346
723.72296,90.64161,68.40569
672.2764,803.01843,240.41653
-9.338533,3463.1082,-115.96699
-1035.9158,3746.8523,-344.6281
-944.18756,1649.5394,-255.35506
-1031.1743,954.5036,-294.65298
-902.1786,261.52945,-341.39938
-802.451,-212.41827,-263.11142
-838.15607,-680.1345,-162.43225
-906.8837,-670.24,-224.05016
-780.688,-693.6077,-231.37834
-1188.7084,717.8009,228.56892
-1825.3037,3326.2979,560.15
-924.54376,2544.5056,450.74268
-356.2511,1452.4884,501.9534
-98.28391,1145.7947,319.99365
151.86877,765.9023,221.88994
401.145,583.3578,101.3683
548.8377,317.53027,132.50905
731.2377,434.0765,118.55302
427.47885,502.55792,372.23215
324.3029,1870.2275,361.22278
-717.5825,3517.1208,13.119809
-1298.8712,2736.2234,-29.843044
-911.9507,1195.4922,-141.3533
-828.00214,852.3229,-112.01545
-562.5973,336.47592,-227.71588
-628.9582,-54.152992,-226.3932
-767.5775,-460.20105,-292.79553
-1045.2677,-408.44345,-368.83237
-1069.5709,-265.92145,-206.59755
-1341.2644,909.30536,101.72146
-1507.1296,2330.3535,442.77847
-1038.909,2533.3552,420.2667
-382.9962,1520.9087,103.48155
10.032663,1199.3925,38.89571
400.3461,888.52374,-20.201193
619.7972,633.7451,34.724373
777.7878,200.84283,229.55229
604.51587,166.89316,285.0412
476.72018,438.8515,132.64598
-320.82767,3014.545,102.452065
-1403.5826,3316.7507,-351.964
-862.6728,1246.4297,-94.85647
-660.05676,1204.5244,99.52968
-671.7499,774.35504,-23.756445
-512.37415,76.77401,-122.94313
-687.88605,-515.7056,-237.05882
-695.80194,-716.6886,-387.2817
-833.77673,-266.9146,-236.02315
-817.87836,162.14818,-48.32326
-1849.8446,2101.336,292.29092
-1492.0206,2943.9673,366.14172
-682.2392,1868.0552,302.5431
-243.93652,1085.0211,192.9288
11.557872,792.1024,97.98241
374.58347,637.17444,63.829956
502.06168,408.88382,-12.932182
723.49054,245.35448,69.167564
468.71948,481.23102,187.26534
323.40497,1207.5549,550.6551
54.44126,3121.6987,146.0035
-1774.2971,3181.7578,-175.56093
-995.74133,1385.4817,20.4248
-1032.3943,905.7555,-53.367348
-816.8932,473.80722,-138.52
-651.4535,153.70868,-179.71162
-721.2569,-249.80693,-102.10297
-884.0583,-542.6186,-246.10884
-979.98425,-441.78506,-207.70506
-904.6045,223.53831,-128.5706
-1369.043,1957.832,274.1443
-1258.1509,2531.4524,492.0173
-653.3184,2001.641,234.93213
-242.31067,1373.5907,193.2967
31.691517,762.731,80.65744
315.90262,560.15173,-9.631731
551.9563,344.08585,-34.63684
757.32074,138.29378,25.412626
720.85724,262.2028,86.71931
573.54114,1314.5925,191.67365
-465.18176,3822.8494,-172.44142
-1499.4994,3192.2625,-346.62708
-950.79614,1128.2847,5.1083884
-987.3884,948.7311,-22.85055
-747.9564,443.4536,-125.122055
-752.2753,-28.938868,-160.51215
-891.12866,-507.4588,-158.65327
-979.9873,-641.84534,-322.2478
-875.79474,-425.83228,-231.83606
-943.18146,666.866,96.84576
-1386.2147,2841.8718,365.1553
-853.2231,2747.9062,350.8491
-399.3405,1645.7202,301.38556
-93.11926,1248.5116,203.5924
85.81118,838.48083,74.08378
468.2085,491.05215,-74.74197
734.4646,264.9608,-112.273865
1048.5476,88.94688,-148.00185
979.76215,183.38919,-106.53123
727.74866,1574.607,73.49906
-517.0549,4078.5566,-193.5902
-1651.1517,3173.488,-188.69267
-1044.6786,1160.36,58.7542
-1134.6321,935.0207,18.70468
-967.7628,212.75807,-174.28258
-995.37836,-311.26862,-220.53922
-946.55774,-869.78296,-210.07579
-992.1908,-879.5576,-287.9022
-743.4791,-823.99335,-88.50051
-1663.5758,1166.4443,180.87587
-2128.0303,3749.0303,406.78574
-898.03705,2685.8916,213.40486
-237.85248,1432.4884,160.60783
95.775444,972.49396,21.016094
251.40535,664.28925,-40.042957
512.47015,493.36627,-148.28145
689.89154,229.21432,-26.383123
748.0856,313.79214,-25.671303
629.66187,573.23883,44.335773
-28.90785,2754.298,-672.0709
-1138.9828,4202.833,-1010.51624
-1151.7883,2393.3389,-541.5465
-1095.2609,1240.1686,-395.9258
-1106.7875,571.0142,-386.8293
-1049.697,-263.49142,-336.47104
-993.08704,-623.5607,-147.85945
-1055.966,-553.6603,-133.5723
-833.56,-181.43909,-185.09392
-601.1688,193.34291,-18.213663
-540.3002,1276.0264,294.7566
-1035.2031,2528.3704,635.625
-521.1628,2384.1409,411.43344
-60.15036,1853.8246,327.2707
60.385277,1278.3522,132.45004
293.83582,604.42975,28.728828
592.50433,350.8973,-78.28669
780.97644,80.68466,-32.73735
822.2907,278.18436,-20.90352
635.861,721.5424,-28.047075
499.89243,2060.3313,-450.46542
-486.0395,3993.1357,-923.9345
-1056.3702,3006.287,-491.89624
-994.3059,1641.1807,-373.70163
-1199.8817,1009.89465,-420.00443
-1000.79205,108.539894,-405.363
-962.8782,-427.60944,-261.9118
-1103.115,-622.90656,-210.59502
-1162.6135,-463.66403,-242.03836
-1019.9467,-129.80345,-4.9804883
-1091.2544,789.8038,184.11414
-1341.8811,2389.603,439.4236
-998.5408,3104.9148,348.37112
-285.0818,2116.2993,330.81903
-99.41087,1278.9171,192.0834
168.63957,837.15155,96.25194
443.04987,488.1953,-75.97259
788.42224,152.69711,-93.72139
956.3598,233.04988,-8.652062
781.5937,607.1773,44.463173
319.47638,2136.1218,-413.84122
-630.4398,3749.589,-776.7594
-1053.219,2915.9104,-495.40152
-1123.0021,1755.8646,-342.70123
-1206.501,979.5092,-395.74255
-868.39154,171.84184,-342.76837
-854.2884,-268.43475,-249.87062
-1069.9254,-483.1147,-132.54865
-1171.5902,-474.92865,-232.51556
-967.6175,-230.7775,-162.82881
-833.3775,401.04724,133.52988
-1119.8165,2177.2139,380.31665
-932.5098,3152.5662,354.95245
-339.4663,2194.08,297.45114
-126.03381,1492.3981,303.92435
27.684908,767.9595,97.7427
372.0286,352.37665,-105.53435
747.8905,363.65808,-88.98616
922.47906,491.4912,-46.51124
993.4425,542.00854,-36.76297
661.9328,2457.138,-147.37195
-901.66626,4190.111,-438.12402
-1514.45,2341.1433,-192.85852
-1090.415,1054.916,-144.098
-1072.3876,612.9227,-160.932
-793.36597,-83.72857,-143.1337
-885.0544,-375.17532,-184.10222
-839.6111,-790.3801,-251.00432
-944.51807,-513.20953,-155.90611
-752.47644,-323.86978,-82.36161
-1539.6469,1276.4703,303.5185
-2111.3887,3352.693,686.7178
-930.15344,2449.8235,295.25528
-339.558,1567.7426,315.7949
-104.215515,964.8334,234.81183
74.557076,691.67395,104.20823
457.5765,389.42578,-73.85403
688.6269,390.92264,-84.33862
918.57526,388.1797,-128.75755
891.5154,1047.4335,-67.98328
460.57938,2857.8694,-246.18103
-1133.1558,4029.2678,-403.2559
-1594.59,2556.1514,-118.41235
-1316.1562,1139.3173,-119.0786
-1299.0621,730.07886,-116.77024
-1133.1246,-36.06392,-163.51283
-1345.2445,-360.7297,-262.67596
-1221.0732,-836.74207,-365.50735
-1016.5642,-490.42072,-105.677666
-533.7134,-504.42615,21.705685
-1339.9033,2012.9124,775.622
-1312.3373,3821.2517,919.69324
-324.89844,2007.3348,507.39212
195.45184,1266.0337,421.4004
441.41632,705.97314,155.36284
668.4001,725.97473,77.067955
878.3652,112.299194,-22.456459
822.02386,126.18649,2.6363251
674.65607,482.2382,132.81894
155.3606,2885.6724,380.48874
-1142.9653,4066.7307,131.72517
-1229.8649,1762.9558,131.38116
-727.14514,916.94727,118.14889
-884.832,834.2294,-14.274848
-758.3828,84.16731,-142.56557
-802.47296,-614.02893,-256.17917
-924.5497,-859.98193,-272.20953
-1035.7161,-419.6833,114.609474
-1039.221,69.53327,282.19452
-1949.1119,1834.9865,973.98535
-1568.5483,2283.624,814.00867
-414.10596,2024.018,520.1385
-244.74254,1970.0916,360.63052
33.914978,1148.7062,71.13016
258.36346,544.9077,-111.96867
542.0298,522.90533,-148.04506
691.91046,303.29907,-127.73048
861.74036,241.18834,-126.78924
681.3724,675.97504,-138.29404
55.422848,2877.5925,65.60529
-1871.286,4529.962,-49.205097
-1880.5364,1503.5536,-120.78399
-1256.2389,409.3905,220.17552
-1094.492,689.4944,140.2813
-744.1041,60.6822,-15.159696
-749.13806,-210.43591,-81.041664
-802.31866,-645.96,-333.52228
-826.82,-634.4737,-351.15244
-819.3487,-528.108,-289.66055
-1447.5214,740.12695,126.21074
-2334.7012,3426.6887,923.3618
-1350.9697,2872.2385,476.34607
-508.4398,1329.8871,429.1566
-75.05881,933.63904,246.18855
159.46799,480.78317,-35.294014
424.8018,395.29263,-176.30022
599.95856,301.68625,-40.93038
785.96985,416.62842,5.1960225
512.6092,912.8422,335.21954
32.934795,2668.3828,212.62402
-1267.6389,3291.33,-280.78818
-1380.9248,1942.3557,110.93467
-1069.2732,1470.3688,50.31697
-950.27155,719.88464,-109.17966
-745.58154,38.734417,-162.93817
-814.2381,-188.04202,-84.36851
-835.76624,-420.11255,-185.47311
-895.3887,-508.6781,-242.92506
-672.99146,-232.17741,-154.38618
-892.8126,501.22507,110.47841
-1604.739,2342.9453,588.477
-1083.6031,2766.987,302.33923
-502.83575,1809.749,224.06331
-131.60623,1060.228,251.30281
102.94106,702.4719,94.83885
396.70468,557.66205,87.020386
550.0178,245.19276,64.20982
674.3224,222.14488,90.12087
531.52454,583.2416,180.4255
134.37453,2290.2334,265.0107
-1230.9835,3679.8755,-161.28369
-1350.5198,1985.0253,-98.008026
-965.89764,987.15936,-9.321579
-992.49634,819.7944,-102.720345
-667.8891,208.22371,-171.7569
-620.2602,-472.42935,-269.17087
-640.0366,-831.83813,-336.31485
-760.781,-510.5445,-277.33466
-701.95374,-322.24292,-121.481674
-1540.5911,1161.4177,463.30255
-1989.714,2971.0,731.24774
-1017.0536,1968.5803,488.29303
-460.14328,1354.3306,438.71667
-139.22972,1049.8834,247.96968
157.29094,716.7955,134.31732
475.84842,480.86508,60.55663
580.51984,363.88834,91.43592
603.22437,393.2265,148.70367
584.41724,882.0717,236.30785
179.99852,2528.543,293.98145
-1005.84454,3551.943,-117.81805
-1312.5322,1997.0955,-212.80748
-1022.7779,1278.7216,-43.542007
-827.9365,1025.7863,-91.001175
-762.0382,285.16385,-210.77036
-880.31415,-237.90251,-258.45435
-1110.1221,-524.36414,-398.8375
-1198.6025,-486.24435,-355.3433
-905.35895,-89.043564,-37.32683
-921.0922,1366.0043,203.28294
-939.6516,3308.6516,439.5803
-206.50609,2714.431,265.14404
195.29684,1431.5181,284.97653
334.19302,1025.6058,169.81296
418.14954,711.1933,72.43378
566.0123,227.6636,-87.20721
685.07874,96.527435,29.093489
766.50305,187.14368,58.82367
684.38385,1244.4279,329.569
-275.44366,3932.8867,20.183243
-1202.869,3043.3271,-122.69476
-870.54004,1402.0153,115.35767
-819.48706,994.3237,-48.14106
-618.6051,463.8704,-127.80205
-540.015,-145.44098,-196.81761
-797.08575,-670.7961,-386.92856
-868.58215,-891.898,-537.05585
-865.2321,-488.56033,-310.90182
-1305.98,215.54137,-91.91111
-2318.7305,3055.3745,581.98944
-1544.7563,3176.615,452.53937
-347.92667,1588.7001,374.6994
6.613183,1474.3932,287.20667
402.4994,953.1224,137.32066
622.68475,765.75494,63.69324
974.23755,253.02827,10.593795
931.1912,347.16644,87.50906
781.4074,380.56625,119.43327
324.18256,2263.4004,187.8613
-510.01633,4058.895,-3.6185298
-900.12274,3226.8523,231.52284
-921.25806,1990.2855,155.84297
-862.6293,792.8594,10.139524
-775.07837,277.1226,-264.21085
-1035.3087,76.15648,-409.397
-1487.7795,-327.53787,-552.395
-1393.8837,-440.3031,-590.58704
-890.06055,-445.73236,-244.35387
-1051.0149,482.2515,419.5335
-1460.8192,2936.2712,1591.8792
-758.2215,2995.1104,1520.1803
29.481218,1766.604,1119.1519
109.35672,1375.3854,818.43774
236.59985,896.782,523.5026
300.33957,586.4711,219.63654
604.4361,301.24442,103.39269
749.32587,93.855446,-54.16537
872.6238,214.61601,69.87207
507.5169,1344.8411,649.14905
-148.55214,3357.7732,1376.8136
-1591.0759,4092.0303,469.49274
-1489.5099,1365.6646,88.554344
-1367.3461,697.40906,315.64758
-1218.1593,-232.202,21.592915
-877.4857,598.0769,293.24518
-1000.3552,-750.74286,-488.66736
-756.9009,-1315.2146,-629.2555
-787.4894,-583.5535,-220.65805
-1089.4729,932.1137,383.92297
-1926.4493,3483.3535,1100.6265
-1002.5953,1911.0636,787.0086
-140.11719,1523.2998,347.83096
310.65808,1402.8275,289.15662
518.2052,828.48193,83.65525
812.7307,212.02509,-84.872826
809.2953,12.7962885,-77.32969
697.8465,383.15814,33.01009
482.83627,1754.4712,227.33023
-330.4473,3765.7058,2.3587732
-1343.4276,3086.126,4.688831
-1111.5308,1839.2765,149.56007
-975.693,969.5625,-64.587265
-912.6234,433.834,-161.64714
-1088.21,-150.23013,-286.26132
-1122.935,-638.3433,-343.4565
-876.1226,-759.70105,-325.0943
-814.6154,-529.8265,-96.3479
-990.84875,17.451113,94.372635
-2083.9028,2760.3472,875.73596
-1759.7217,3152.1997,734.3175
-804.85016,1708.1818,561.2409
-513.4768,1576.7302,422.23996
63.310486,1008.69507,38.112244
566.31854,932.623,-120.22717
1030.8385,689.8839,-222.90672
1098.0839,482.88968,-193.081
927.04065,693.88165,-59.868805
728.6816,1423.0863,118.199585
-320.4836,3898.3228,163.00998
-1892.042,3468.2468,98.20547
-1122.4707,883.50854,40.599167
-1113.2365,1163.741,1.5909404
-915.2477,814.05176,39.843746
-1070.4255,-125.843925,-537.1903
-920.6262,-1317.6296,-926.663
-922.68115,-853.64453,-516.53723
-650.3152,-214.79837,-165.97829
-1326.7959,1312.7172,763.4641
-2126.9143,3391.2683,1899.8672
-1184.973,1249.8472,1063.0211
-412.58224,595.44904,726.3713
-190.93002,944.173,405.64056
300.15872,980.59564,248.73521
541.3976,653.9657,144.15332
745.1033,327.59338,69.6285
748.4922,308.0835,101.68337
470.5111,1299.6034,421.98444
-316.25244,3042.265,465.47165
-1465.8452,2967.3267,110.60551
-1370.1069,1817.7782,201.44685
-1033.2571,1001.8559,20.104733
-1144.4098,298.85294,-107.57631
-880.1891,-117.962265,-145.73872
-900.62164,-623.72375,-199.88425
-912.11316,-1007.33234,-396.61002
-883.49725,-615.7748,-205.98335
-1083.0881,573.4424,68.226425
-2034.4728,3024.618,484.8331
-1173.3275,3025.4084,92.071266
-420.23972,1860.421,97.18657
-144.6992,1325.6361,3.5638444
160.24095,873.24884,-157.60127
509.20276,544.5729,-161.21559
876.8159,231.03175,-25.287695
1237.2518,220.22041,240.16934
1005.6234,411.30576,338.43597
355.1467,2519.6152,120.26077
-762.4146,4243.1787,-345.4997
-1618.5719,2624.7087,-284.47617
-1304.7539,1103.1338,-345.87338
-949.1881,569.55096,-343.06955
-894.3067,161.1082,-337.3863
-791.09784,-870.4442,-244.26054
-829.85974,-1352.6599,-282.2952
-1096.0328,-976.7696,-128.83464
-1751.356,260.9744,136.15108
-2230.64,2638.7676,231.26257
-1535.0083,2952.964,312.2313
-697.7188,1772.3947,326.17377
-341.04227,1353.2893,182.62988
-35.333504,1070.3324,28.611586
250.2248,730.26556,-43.16182
552.44196,430.15204,-107.72989
523.6338,468.65228,-51.4326
583.98157,599.11786,14.452843
187.63127,1040.3044,331.75134
199.01103,1985.7546,81.294945
-1335.6199,3441.502,-352.8323
-1418.8716,2292.6272,-196.7187
-1042.6562,1297.2098,-200.61118
-983.4454,831.22363,-178.64153
-670.32404,168.18007,-243.7728
-760.0198,-390.30087,-223.67482
-962.5776,-668.27936,-298.5096
-1031.9816,-686.6031,-328.3312
-1010.1441,-364.35568,-144.49042
-1316.0057,746.21893,106.43771
-1613.616,2466.0078,342.96838
-1053.27,2370.8281,281.7539
-532.21185,1808.7422,230.60434
-339.956,1507.2598,163.36224
-63.231926,817.09,-3.954426
369.41025,592.14734,-31.483175
767.8658,478.69696,35.625076
1060.2174,347.2746,92.40639
923.8988,670.9181,115.080505
519.8096,2003.6796,172.43987
-479.93732,3771.1355,-95.30594
-1505.5139,3077.4248,12.73904
-1389.5872,1417.8573,-92.052315
-1429.952,636.37805,-301.0413
-1017.78467,29.488028,-309.22736
-833.61005,-677.20233,-142.47183
-712.22015,-1072.7631,-230.72829
-963.45374,-867.1036,-193.9534
-1115.4938,-591.7032,-28.883377
-2182.1943,1515.5531,418.8278
-2500.799,2903.9563,498.45218
-1187.7512,1765.4541,334.76453
-609.06213,1782.062,309.63525
-295.27927,1301.2389,197.93494
-117.676895,935.4108,40.866398
281.1652,605.023,-31.729681
462.34772,520.7117,-17.27387
669.2718,320.6038,48.907177
576.813,551.26776,82.42632
455.86172,1230.3347,92.89821
-648.4926,3340.0627,-138.23288
-1730.3806,3515.243,-276.03235
-1467.7131,1496.6324,-177.2298
-1233.5359,558.5079,-157.1432
-945.0173,265.2809,-185.8325
-739.8217,-228.64122,-231.04294
-871.7715,-507.66504,-308.14096
-989.24365,-734.4907,-419.85526
-890.4408,-468.38074,-217.51277
-1054.5709,345.1845,35.17094
-1792.5858,2721.2922,298.00696
-1187.9203,2971.7659,281.59167
-422.21613,1841.5892,256.0182
-68.54472,1301.9058,141.99522
334.96548,870.71326,66.42872
557.3038,614.5757,9.120567
778.6277,354.88022,-32.590923
872.42883,190.4973,74.997055
769.1186,237.4246,110.05511
492.77118,1400.2416,138.64908
-414.1419,3947.442,-219.88678
-1161.8063,3193.086,-248.70647
-748.4649,1367.7228,-82.34877
-780.11646,981.9491,-83.10949
-739.5034,361.43854,-197.35768
-809.5584,-176.23047,-264.30646
-922.0711,-454.32196,-316.6345
-1004.7758,-605.27026,-377.2239
-734.5583,-401.06186,-145.73705
-1003.4,559.50037,151.2393
-1614.1832,3299.0413,585.3026
-902.8681,2965.6191,456.4918
-227.4225,1677.995,399.32806
131.29329,1337.3914,350.81073
264.88852,824.8436,190.89899
489.98807,411.41965,113.69263
663.42725,128.3373,77.733826
802.59467,186.99078,159.91966
606.4012,519.7041,235.32584
468.3024,1609.344,317.49332
-168.4702,3427.4038,381.00375
-935.54425,2695.8936,231.36945
-743.57117,1479.6321,189.55293
-841.78845,1106.6774,-84.27875
-768.88605,173.92932,-256.28177
-847.8859,-575.2087,-395.39285
-968.87885,-890.4345,-323.88092
-989.23236,-509.43085,-228.46056
-1238.7032,283.38934,144.75124
-1941.2784,3079.9717,524.0309
-912.1663,2795.2678,414.4125
-225.9727,1433.6669,415.75705
162.96724,1288.7528,208.22482
382.22595,910.5596,152.14388
590.07666,684.0944,16.924356
742.09076,230.92876,42.145325
810.2871,231.16235,30.223438
655.6274,501.8298,198.73999
258.2932,2476.6738,259.71652
-763.4892,3889.227,-4.4619474
-1264.9159,2398.533,-16.453783
-949.0399,1069.698,26.023539
-915.21936,823.20325,-32.022766
-813.24524,219.54303,-109.471115
-932.0163,-319.2124,-326.7737
-1033.1942,-714.6725,-481.01956
-916.23737,-535.86694,-465.6898
-772.72833,-178.52504,105.52056
-1604.787,2520.6763,696.03064
-1066.4137,3634.3843,753.9176
-50.670357,1873.923,600.4284
107.05975,1481.1685,374.835
352.25793,816.98413,214.3228
521.5591,416.39288,-4.034953
750.5117,157.74463,-144.4698
852.6819,44.732246,-153.43979
996.2323,-133.25449,-240.6734
867.7369,989.13776,-28.657417
470.4566,3724.198,-468.31293
-493.663,3939.6733,-506.46405
-619.77466,1677.1437,-148.70161
-680.38885,973.4955,-192.75893
-685.8252,322.50568,-259.77267
-838.1733,-241.38818,-293.7808
-1011.8644,-557.95056,-276.95697
-1176.0026,-420.0569,-234.38976
-897.4026,-23.752678,-209.9723
-1320.5522,1303.1619,103.348816
-1665.9445,3342.0107,328.13498
-700.7703,2972.1306,111.4379
-191.41846,1676.7799,137.87825
85.0322,965.9666,-0.72330046
345.96143,536.43176,-1.4617903
623.3663,364.9903,-105.19582
595.42816,367.14847,-84.97542
763.25385,444.61288,-135.24863
626.06055,1104.9779,-55.89421
310.91055,2670.2998,-239.08931
-667.9122,3401.7324,-360.74597
-1216.083,2180.6091,-204.19171
-920.8834,992.85693,-158.50479
-828.3652,654.2599,-189.64662
-729.5115,-53.06341,-145.32431
-982.5893,-287.4654,-78.53028
-1051.552,-695.8739,-219.62375
-968.3656,-372.8276,-176.55206
-687.6451,-99.6213,40.152824
-1379.1655,2126.9597,479.39523
-1483.0201,3086.1382,542.8473
-550.50507,1815.9949,239.36491
-134.35097,1530.0022,313.1993
60.86644,1261.1915,93.733864
301.51227,859.52,32.53417
574.0531,317.65445,-80.840034
757.8131,487.0254,-17.980677
905.70636,744.18243,12.282246
650.7768,1788.7101,0.53665495
-129.86725,3096.0903,-281.939
-1175.9269,3070.5215,-202.54655
-1326.049,1594.0701,-281.04608
-1133.0875,692.24475,-391.00262
-964.75836,316.38538,-394.21997
-838.37177,-184.03156,-288.17917
-781.49536,-786.3808,-301.56827
-809.60114,-797.1337,-198.3623
-655.3767,-542.44666,-145.71375
-1331.9666,658.5974,162.97064
-2328.9475,3325.4373,288.22394
-1058.491,2988.897,221.4466
-441.7071,1718.8259,329.48956
-159.93459,1140.5767,76.53768
113.967384,793.03894,19.46795
368.91882,670.50946,-100.81125
600.5568,301.29205,-132.51428
868.06665,195.72647,-155.1498
967.0704,261.2499,-71.75271
713.13916,1719.72,-86.30426
-342.9118,3896.5718,-544.69135
-1206.1031,3055.2578,-329.33496
-1065.7422,1632.9424,-80.74497
-1037.4412,824.4422,-73.62864
-713.986,302.66022,-83.76153
-577.6624,-19.3699,-97.07467
-802.2037,-420.77237,-254.33595
-964.5194,-933.85986,-444.7859
-939.0771,-522.4491,-294.01144
-1261.0796,516.974,76.53563
-1831.8462,2863.2837,519.5218
-997.2326,2749.952,507.76593
-530.4104,1943.9783,388.09662
-80.75891,1272.1571,135.49915
377.49744,768.6937,49.756348
644.03455,723.2451,-70.63584
1020.2636,328.25122,-149.22382
1285.3203,186.4379,-110.129906
951.7088,740.0047,133.35362
478.69904,2423.133,-35.772377
-363.8447,3778.334,-446.58588
-1118.1537,2747.5186,-255.23308
-1002.1854,1519.6018,-157.34528
-769.8864,701.9875,-172.0773
-804.86847,233.57329,-243.99498
-780.6317,-145.08269,-171.58559
-919.4086,-283.61765,-29.220203
-820.26605,-563.7088,-147.22496
-750.37604,-236.16245,-164.44391
-623.65643,188.91417,18.061113
-1297.7583,2416.14,374.35605
-1519.173,3418.4429,204.73268
-397.4058,2433.262,105.16012
-110.64432,1640.9537,180.91853
70.19184,887.61346,4.4622297
300.10345,450.43527,-5.110917
547.47034,271.9675,-68.53438
702.14215,200.81169,-15.603547
740.2137,331.10684,-35.699085
672.1236,1108.0521,46.242203
5.73008,3091.4263,-436.12668
-885.4491,3281.8372,-492.13852
-827.36176,1744.0294,-161.41441
-761.2813,1076.0199,-117.63576
-736.2428,548.9911,-196.94542
-630.4826,41.639072,-262.16785
-951.5204,-385.24823,-270.97662
-958.5593,-680.9216,-311.52548
-886.3137,-457.753,-202.89311
-879.6615,293.1769,-22.422457
-1845.0957,2934.2874,611.4571
-1189.9658,2820.2397,522.57837
-348.98483,1634.2617,289.55048
67.56741,1202.381,214.7443
368.99368,854.29425,26.487276
561.54913,670.1793,-54.2564
800.34735,234.0297,-111.38782
907.30176,261.28604,11.489594
675.8338,535.5015,184.97375
377.01743,2110.6658,66.31218
-291.41324,3530.458,-250.7443
-969.0671,2904.4116,-136.0215
-789.673,1551.2177,26.443266
-794.7065,1003.482,41.558666
-745.765,333.337,-115.07714
-911.10297,-216.84717,-203.023
-888.7995,-953.95294,-543.0849
-763.0736,-854.77106,-511.03323
-505.5513,-487.80603,-239.08415
-1566.288,2114.3245,307.81552
-1688.6921,3421.7407,306.4387
-375.21872,2115.1892,367.71472
-173.07155,1897.7539,248.65936
377.9323,1164.777,-40.03904
321.19687,1076.8367,-70.00783
610.8728,788.1442,-107.74463
705.6188,585.20215,69.94087
718.6587,452.1211,-51.082508
438.2994,389.091,-88.94675
178.72859,1162.7104,-404.6668
-1087.0093,3123.8457,-1296.3579
-1490.6353,2871.755,-1056.8262
-644.77814,1270.4607,-446.1365
-730.32135,1067.5022,-301.7624
-584.1465,376.21417,-293.09564
-639.4966,-179.9531,-277.52316
-781.6301,-576.836,-185.8522
-1020.34314,-729.5198,-348.01132
-1028.1176,-355.19653,-313.2034
-1010.3771,584.55994,-196.47766
-1376.1302,2114.6997,240.47882
-1081.8771,2826.847,149.23624
-392.66556,2228.1194,-52.641552
-79.42071,1266.263,33.485493
132.7428,724.5758,4.478584
324.4229,552.33105,16.622025
468.06372,256.5885,-23.484465
605.82294,39.792206,41.072773
567.5103,163.73102,-6.756723
587.8673,1133.5598,1.6615912
-532.1373,3904.113,-383.45798
-1230.8328,3125.9673,-392.00436
-730.7247,1291.9331,-78.72708
-966.4561,769.57446,-131.56757
-742.28845,89.62279,-158.08801
-828.327,-301.1622,-246.78363
-737.4253,-659.2265,-294.10938
-817.878,-456.77966,-225.93115
-657.8062,-315.1678,-50.203346
-1219.0558,820.8506,75.53331
-2132.6995,3295.5837,307.20892
-1032.9043,2651.0925,160.49358
-492.39987,1621.3516,85.89268
-14.789516,1092.9569,-106.490654
505.12354,602.7899,-84.08932
653.4233,560.18506,-97.10998
902.76794,124.82718,-25.07468
914.8777,139.67729,-8.241185
870.43445,453.94455,157.40152
243.62831,3160.1716,109.35212
-519.21735,3561.3042,-251.53206
-907.6142,2483.2056,-45.55668
-927.02277,1533.9823,-253.80539
-899.4212,590.81226,-325.6993
-921.59216,-13.441021,-473.5385
-1138.355,-437.56357,-366.78998
-1056.343,-605.4317,-331.7265
-938.418,-422.0465,-129.65797
-615.1866,-204.22174,-19.763819
-1856.2393,2052.834,289.8044
-1799.5217,4574.9614,208.5418
-300.0189,2231.2554,171.42546
41.699444,1207.9172,157.89023
485.95328,588.85095,83.218666
452.06726,699.0846,-6.193628
658.9245,-14.396911,-162.56839
627.87915,104.863655,-143.82416
734.53937,235.31137,46.155647
294.64142,2650.9575,94.53026
-907.9755,4148.772,-265.47794
-1212.4841,2493.1902,9.413643
-912.52,1175.5587,-9.039589
-1053.4652,588.42883,-64.19643
-768.70264,-12.03249,-167.16098
-825.30084,-344.09882,-140.20682
-758.3798,-748.5664,-278.91348
-906.09393,-588.0977,-430.93173
-665.0514,-243.24013,-188.47148
-1339.8365,1523.4138,-127.239456
-1431.4615,3471.519,-136.34737
-235.36407,2466.2273,-103.26942
-23.27134,1309.9781,-202.27856
410.01675,693.7302,-279.2784
571.7721,567.1422,-317.1658
713.3492,330.99246,-248.0768
755.7797,123.35066,-248.1021
753.8875,548.1308,-182.6377
714.88617,1500.0651,-615.3079
312.7695,3323.8982,-1466.6925
-537.3479,3239.883,-1443.5688
-997.98114,1768.0096,-1101.7388
-902.6344,741.7511,-661.1172
-755.1329,256.7904,-389.20416
-952.04706,-411.5848,-253.7323
-1111.994,-592.52814,-101.324036
-1188.7393,-656.1137,-181.06657
-872.0145,362.7796,-404.41467
-674.6531,2426.5886,-440.5841
-383.882,2815.6885,-361.60776
-39.22049,2115.1362,-260.43295
203.32329,1327.5465,-319.54428
322.939,1098.2257,-374.77063
413.05017,518.35046,-212.5273
484.95776,127.09379,-99.67978
675.63434,-32.97611,-0.22199814
606.8288,104.060326,29.332071
742.4585,1099.4312,-141.38141
757.47784,3339.168,-819.72845
151.39734,3019.265,-960.3155
-258.89578,2118.905,-844.5038
-658.0483,1345.2358,-603.38495
-555.2349,529.49384,-332.68933
-573.643,234.87311,-152.12169
-608.58435,-168.54254,-76.343315
-788.27435,-88.95636,-78.0232
-847.4115,-190.68687,-108.578285
-860.3871,360.2085,-20.452524
-828.6296,828.59406,-95.50814
-1005.2519,3193.8127,-185.34912
-300.79068,3272.9907,-116.472374
278.36862,1829.5446,-40.155975
369.52942,1421.5986,-64.43753
524.97644,658.13184,-73.82929
649.187,245.39636,-166.44232
686.37,187.1508,-116.08279
751.32477,391.93927,-82.80471
813.33887,218.38742,-95.31888
1016.0077,1242.2251,-164.47903
497.8378,3359.8267,-358.96875
-378.90134,2792.9573,-259.98712
-426.4849,1309.0962,46.062447
-501.3235,910.46985,40.08345
-516.6084,546.68915,-22.487444
-614.8403,67.90711,-67.665215
-822.6605,-582.0687,-87.55485
-633.35376,-468.30838,-215.87732
-538.8029,-201.44508,-140.69266
-853.4701,1017.07446,238.69873
-1760.8838,3089.6353,688.20624
-990.4087,2392.689,444.9899
-358.58044,1920.199,462.45197
-122.467285,1637.1891,300.57037
162.01425,904.07916,118.194466
541.334,431.0038,3.757839
714.3088,338.72568,-16.99939
774.3353,272.23242,62.539913
662.3817,557.7624,138.17809
558.81085,1543.1178,161.47368
36.066746,3172.6604,67.201584
-706.09625,2702.5972,-78.61133
-602.66754,1590.5846,59.31827
-487.17484,989.83545,-35.25876
-425.0739,655.55286,-136.71747
-492.58453,58.3779,-294.14697
-805.1039,-154.01436,-312.50485
-1075.7694,-339.9162,-401.6011
-1099.5084,-69.88694,-213.14075
-973.25946,515.49445,64.42686
-1330.2561,2285.4778,680.0482
-924.0079,3048.395,850.8741
-277.77957,1864.8105,598.0401
48.587227,1376.3838,394.86505
209.85487,1190.7098,94.8974
421.71518,658.7607,-70.0984
636.90924,376.98926,-105.43868
809.6645,195.82959,-30.62858
877.08734,349.75635,82.502815
989.3794,806.75195,217.42947
778.8759,2620.3076,494.39212
-276.7843,3755.9697,613.9019
-782.582,1849.7079,466.93616
-721.65875,1060.5657,327.60745
-728.5667,648.4324,51.33184
-826.2053,-1.9804273,-139.25246
-932.2355,-633.2084,-389.46118
-922.4006,-884.7484,-482.79272
-943.33984,-371.85376,-230.21535
-1270.6389,460.0805,207.1002
-2294.203,3412.3792,1128.2468
-1261.3075,3382.8594,828.41986
-291.951,1644.9282,484.33914
145.35995,1063.7394,171.33484
436.983,956.45874,36.05046
567.4595,729.3175,-132.64307
688.1055,505.0045,-192.77051
737.95197,598.37866,-61.857887
790.6534,651.7117,10.161365
616.78955,1502.4346,108.705086
-409.49957,3667.1958,10.018606
-1716.4083,3817.724,-103.24733
