# PAMAP2 dataset (wrist-mounted sensor)

acc_x[mg],acc_y[mg],acc_z[mg]
809.26886,592.63983,110.494774
1100.5845,-453.30396,185.95541
1281.9893,4435.6436,-911.83264
-1644.5764,7614.658,-1078.1309
-1079.5612,2390.967,-447.053
-906.1549,460.91946,-750.16876
-1283.2833,108.54052,-480.308
-1319.9895,-489.764,-398.6299
-1710.7498,-569.55286,-615.2855
-1195.0466,-877.73535,-415.74185
-1746.3794,-67.84167,-149.35767
-1648.0182,-229.01843,-285.1175
-3424.5474,4883.561,-605.1759
-1901.4539,6529.779,174.99088
270.22943,2064.0557,124.33473
580.17865,642.55133,-58.993717
841.0277,231.37723,-170.09697
981.5775,25.646914,50.58254
1369.322,276.75262,-290.25677
1589.5952,-498.80652,110.59276
879.0995,584.01526,-177.95515
1488.8027,-708.40265,386.5685
418.3506,4761.7886,-768.791
-4156.4062,9307.329,-2089.861
-468.49765,956.7368,-258.3039
-1612.2751,633.79486,-1094.7633
-2009.5758,-626.094,-380.51562
-1466.3826,-572.488,-906.41394
-1427.3224,-1262.9668,-551.60516
-1460.4637,-375.1927,-190.33244
-1192.5898,277.52524,-20.85844
-1676.0178,2167.073,157.65065
-2543.6284,6170.612,431.2512
-163.07996,3973.8694,37.759987
843.52826,326.5654,-258.9224
1078.4532,357.2127,-305.35107
688.0111,-196.40857,105.11784
940.336,-34.76674,-173.2134
857.6863,-231.9667,72.68779
1064.0092,-58.26289,-0.28360856
856.4053,-302.8077,135.07153
1668.4446,2374.708,-177.57584
-2233.7644,10135.768,-2405.7764
-1321.049,2583.25,-528.04614
-865.98206,818.16974,-649.00464
-2408.3682,-460.0235,-565.1181
-1194.6436,-1806.3951,-360.93613
-1390.5522,-2004.6499,-162.82732
-1930.9067,-267.8249,-34.289593
-1827.9976,-388.25977,-549.741
-3709.2546,2666.3086,-451.28424
-3511.1816,7633.431,-15.344526
141.23462,3037.2944,109.24959
359.10202,736.4192,-128.57733
1010.16547,482.4098,-148.84023
1062.6337,-43.61925,-3.296038
1155.0577,423.97122,37.759407
1359.5953,-249.39153,352.35513
1222.1951,604.5087,581.9409
1017.7375,-723.07086,235.61557
998.85706,4239.1772,-843.8072
-3607.4705,9175.556,-1662.308
-1355.8241,740.9277,-296.9638
-911.62067,942.42914,-594.2837
-1325.6339,-456.74036,-241.505
-955.5727,-146.54039,-297.98575
-1411.1069,-923.0246,-510.16895
-1442.1505,-1004.94025,-700.84235
-1839.6582,-395.544,-265.65317
-2028.4309,897.3899,-298.36475
-3736.81,5943.895,-81.537125
-1062.0175,5819.707,410.7852
695.5887,727.0266,96.17989
635.2626,752.36084,-88.782234
970.9056,-219.64081,-123.49108
981.91364,-208.82216,-40.085907
945.0908,-99.49637,-62.180573
1107.4702,-426.7666,264.67438
598.97894,244.20909,22.835796
1586.5883,-73.84499,388.8143
-1183.8088,7876.972,-2077.1853
-4008.6184,7007.9473,-1409.2554
-777.65796,-353.8234,1.3310109
-2261.4055,1207.7712,-842.4402
-1351.3417,-1693.1812,-169.80594
-1553.1565,-658.37036,-909.53357
-965.41675,-1603.5247,-176.64806
-1409.6266,-127.37232,-213.4157
-1221.6367,-1139.9011,-59.666027
-2989.3237,2322.373,-426.09784
-3642.6772,6748.9316,749.70953
-568.00195,3653.5107,423.09146
801.102,727.60065,-163.28954
963.62396,779.2314,-221.68114
1246.5712,-160.53513,156.44409
1237.1814,445.28784,-70.00051
1341.1,-450.24518,226.70537
707.60004,666.6528,-90.79545
960.4869,-593.5041,190.745
363.37585,4279.829,-638.6193
-3327.4746,9386.88,-1697.7301
-2028.446,2265.8335,-272.64856
-1773.5693,948.67816,-616.6538
-2057.182,-231.00609,-147.15053
-1323.9473,-1063.0671,-421.7123
-1464.449,-948.28625,-491.66934
-925.92017,-1094.079,-18.461185
-1499.9608,69.38833,-74.09159
-1026.5364,-832.13293,-361.49728
-3394.1267,3496.277,-383.23154
-3161.8743,8109.7344,-65.82325
585.0314,2253.5554,-18.010033
334.89444,548.171,72.787254
905.87177,-153.07967,121.60379
881.8247,-407.8712,119.60585
998.3767,-255.00179,286.83954
1075.0801,-577.4844,453.9802
1000.6807,52.00046,130.07478
1057.6731,-538.53436,124.657616
1211.3684,2907.3562,-370.75815
-2914.842,9741.342,-2009.818
-1366.741,2104.868,-495.07913
-1148.1735,417.93402,-479.96033
-1563.2253,-322.85895,-143.75859
-945.0817,-824.76013,-474.3145
-1329.0443,-1139.7548,-553.9102
-1203.0573,-1229.2026,-400.7911
-2017.2391,-104.47247,54.765068
-2282.1838,792.79346,-714.2738
-4160.6084,6333.7163,-270.77188
-1082.8098,5205.5186,547.9127
743.35297,1082.2604,-178.67793
1097.8618,738.46106,-152.35449
1255.686,-3.6640494,-0.96772575
1290.0216,98.66732,214.56439
1039.9595,42.373775,128.02682
1070.9346,-219.79233,229.02324
464.85986,103.74881,31.986195
1635.4647,782.7566,73.95792
-3493.0505,9789.7295,-2556.1587
-2638.1604,3677.24,-957.78467
-401.219,148.23778,-450.73615
-1933.3557,386.627,-523.8874
-829.92505,-1046.983,-292.7968
-1437.2312,-730.6176,-646.6352
-946.6458,-1465.3892,-476.51947
-1585.8207,-437.11487,-409.67673
-1456.867,-516.477,-239.31046
-2783.6,2098.8228,-447.61053
-3547.3774,6342.759,-1628.0946
-992.87695,4597.225,-315.7384
827.5069,635.9228,-245.76352
955.78955,1132.8087,-756.1613
1274.3453,-491.04626,-133.18546
1616.508,153.1762,-145.81439
2072.9658,-428.91635,563.05084
242.49478,707.6462,366.6461
1724.8593,-254.01315,579.2747
-778.33527,7073.9756,-3263.4087
-4119.74,7270.2197,-2344.3567
-246.6253,125.9824,-361.45572
-2517.9724,992.424,-1021.98456
-1349.6693,-1833.7664,9.131157
-1506.5332,-1145.0698,-727.562
-1196.4347,-2413.6965,-139.81808
-2162.2705,-666.04224,-342.99323
-2197.624,-407.1857,-46.959034
-4734.098,2770.6428,-1398.1971
-5804.1343,7151.7505,-1098.2664
-937.5067,4325.845,-164.91692
1504.3135,571.9115,-962.531
1198.9293,866.1353,-163.5309
2025.5569,-822.70447,54.796543
1407.8918,732.70715,115.08909
1411.4697,-671.93585,266.1542
248.89893,810.8686,-145.07689
1550.5621,-1158.3093,80.84174
-1208.6174,7382.803,-2912.0728
-4560.6084,9263.435,-3330.1824
-1881.7031,876.21875,-1129.1674
-2932.887,605.62726,-798.38043
-2327.8613,-1245.3431,-73.824554
-1736.9108,-2528.8113,14.113104
-1192.038,-2407.7864,125.952736
-2110.9434,357.74286,-233.33492
-1910.344,-297.8717,-353.74133
-3401.3196,656.4925,-1170.1322
-5442.9116,6132.9414,-1548.0756
-1974.3384,5848.056,-1161.7017
504.939,1419.7427,-483.51807
837.7982,763.3826,-143.39124
1232.5347,362.45264,-132.76114
1240.8279,159.29054,179.49881
1342.1104,369.54874,115.47623
1449.893,-294.67947,437.7163
1035.3936,508.09808,-23.785385
1472.071,-931.2069,184.5851
-315.22296,6604.319,-1645.1544
-5583.4043,9412.558,-2863.9932
-1012.67145,18.747074,-484.47443
-2208.956,1202.9207,-842.4838
-1244.642,-933.40045,74.64787
-1659.3096,-787.7896,-465.18237
-1207.7776,-2719.447,-759.76587
-1935.6709,-862.6225,-348.7767
-1992.9624,-318.56683,-273.06677
-3152.6567,1703.3995,-1722.5497
-4120.278,7696.1436,-1121.8403
-531.09424,4388.3306,-496.1869
799.9318,688.34326,-179.021
581.28094,706.2291,-177.76457
851.0225,-292.48657,-62.782963
1356.9185,797.512,-94.7194
1587.5933,-242.11052,299.62817
1287.4857,581.98694,4.3193984
655.7845,-368.146,175.61127
1360.0342,2388.9458,-1038.442
-3776.0286,10133.208,-3122.2695
-2480.3013,2568.554,-844.1953
-1135.5312,47.93756,-596.42676
-2504.9204,97.25781,69.757545
-962.4476,-2351.2732,536.9566
-1482.3661,-1871.6259,272.8378
-1161.504,-465.23947,136.2133
-1756.9988,-442.5933,-348.26587
-3101.2742,748.6431,-1096.8751
-4813.0986,8029.9517,-937.68146
-355.9485,3651.7795,-127.19227
397.27463,1031.7562,-362.905
1096.5826,190.22038,-76.25055
672.63617,173.32077,-251.29333
1197.9004,-278.26096,-80.05632
975.9709,557.5756,-167.72035
1540.4808,263.02792,465.64972
387.4921,323.8416,-149.99925
1933.5417,346.2908,27.745255
-2059.1519,6792.1226,-4262.602
-3766.5652,5818.331,-2411.2583
-26.978315,-84.54896,-824.07104
-1575.8848,250.39473,-1114.4396
-1348.6569,-592.23584,321.6039
-1016.14764,-2227.5732,428.08566
-1212.7936,-894.59143,168.94388
-1777.068,4.0369606,-430.31366
-1810.4192,-816.8195,-426.47305
-3501.0132,3699.2332,-1835.3221
-2655.299,7137.2524,-1625.198
426.13477,2405.3171,-556.42664
631.8233,871.194,-441.88248
1080.8203,22.252142,-96.28147
756.4294,214.22574,-73.412186
1037.5835,-95.383255,106.37064
1057.4175,175.24062,-4.6479445
1283.6814,-389.40237,310.7039
581.4609,517.5674,-152.80524
1907.596,-257.87912,436.38974
-1619.4865,8769.595,-2035.3494
-3323.2542,5912.805,-1362.4963
-41.05463,-249.22346,-199.04822
-2141.6665,836.44574,-786.1065
-1146.2983,-1494.4753,117.49871
-1326.1794,-852.111,-785.93945
-896.2485,-1689.122,-173.25708
-1700.6567,-440.72964,-403.1595
-1702.469,-814.2682,-258.4477
-4097.169,3023.5625,-1747.4202
-3866.7363,6867.0205,-3405.7783
-259.1156,4254.0317,-1534.375
1533.3699,-50.527065,-1048.8083
804.1325,315.1344,-470.31815
1568.009,-621.07153,-276.22168
1633.4716,119.0625,-156.90236
1891.9973,-250.50438,146.84183
168.59323,357.54004,586.24963
1755.8917,-216.25685,-388.80063
-669.79895,6664.034,-4527.2163
-3195.802,5743.4526,-3586.8828
-277.69028,-10.546473,-1157.2816
-1656.4645,148.67363,-820.5706
-1014.3575,-551.7168,-60.7981
-1617.3531,-651.8299,-253.39194
-1265.2118,-1457.5482,-222.45183
-1683.5367,-909.7307,-527.37604
-1516.0724,-428.84674,-145.75415
-2777.1536,1230.535,-757.7872
-4405.8843,7352.4907,-1400.2104
-571.3161,4376.13,-626.79266
759.28613,695.215,-324.88016
1079.0137,325.7213,-28.973263
831.3753,94.70994,26.404587
1161.2249,185.99074,90.363495
1315.8772,-146.12419,135.64822
1237.5494,58.41658,150.6236
587.13947,-61.15065,82.738914
1338.752,1377.055,-572.17426
-2286.9849,9173.859,-2695.6875
-2653.1497,3761.9001,-1522.5765
-561.57404,227.22617,-436.04825
-2004.0953,436.30887,-443.82474
-874.98334,-992.3914,-181.7082
-1576.2676,-1126.0967,-397.57892
-1023.90045,-1588.9952,-199.687
-2031.4254,-183.6565,-146.18513
-1540.4209,-407.5911,-277.91245
-4050.9238,5024.6523,-915.705
-2054.8826,6351.431,-511.0666
966.5783,1484.9526,-339.89026
1103.43,455.60565,-91.612114
1141.0178,316.73233,200.2261
1348.5325,192.8064,508.69348
1032.683,334.7726,461.94003
1064.3959,-166.93886,282.5357
360.48477,148.29478,-15.730711
1162.9274,341.11346,-53.201538
-2064.1482,7517.7085,-2153.5076
-2786.8464,4335.6045,-1484.4055
175.7181,563.44495,-229.99802
-1589.113,894.49396,-155.22446
-921.82513,-571.53253,25.389872
-1809.1847,-584.982,-656.26227
-1047.0385,-2285.7861,-450.1368
-1762.4883,-735.78687,-15.927397
-1110.3689,-689.58234,-129.60364
-2732.1191,2853.011,-935.82697
-3202.6748,6603.2017,-851.07074
136.44778,3134.6091,-408.25653
586.6603,649.75684,-136.9499
965.7668,593.73627,-70.548454
1082.4072,245.05873,141.45729
967.3028,432.53995,196.18236
1140.3541,-144.01488,300.17096
662.45874,422.8389,96.176186
1070.1776,-179.5006,57.94893
46.568993,5019.843,-2472.6562
-3302.2004,7249.9917,-3142.8538
-1359.469,1158.8142,-1053.4861
-2330.792,989.9215,-609.70667
-1872.5245,-542.9132,-304.69608
-1385.1844,-1078.8645,-506.06387
-891.2091,-2325.247,-315.3932
-869.2038,-1231.0815,-166.6963
-1522.64,-457.27783,-508.41055
-1386.6798,105.86806,-315.1676
-4535.0874,4389.7705,-1654.4138
-3194.6484,5804.1855,-695.11395
-221.3393,1730.7316,4.907278
620.00995,1185.3914,-459.18832
1086.2444,276.67026,383.29395
1342.2126,805.7961,298.90268
1577.174,157.38744,492.30246
1250.2831,726.7059,206.22377
644.52454,149.72151,292.76105
885.21704,2260.9946,-1390.5718
-3601.3174,7066.781,-2755.7898
-2522.4636,2873.0918,-1602.972
-1500.888,1001.5951,-1222.1268
-1584.8636,86.34198,-595.0855
-1105.1658,-889.20526,-361.63968
-1433.0734,-1772.721,-672.31384
-1056.5127,-2354.5496,-547.3053
-1798.1862,-887.4076,-509.08762
-1796.1052,-679.1044,-69.09087
-4353.7666,1986.3505,-587.94244
-6262.2305,3162.0713,-691.91736
-2249.61,3668.3022,-18.561073
188.24564,987.33997,-117.35956
387.2087,1408.7968,260.33353
1461.6332,503.9507,364.0792
1552.8225,1027.8842,595.6706
1627.2008,470.3935,491.22653
708.7096,1052.5034,0.29437354
904.3155,-228.12437,-135.9251
-288.1698,5119.6147,-1334.8503
-2933.686,8855.179,-2694.1033
-3991.951,3970.6006,-1995.9672
-3970.9543,1050.8157,-1120.4873
-2800.7202,-471.4561,-413.0035
-1803.8363,-1186.5386,-413.79758
-760.3596,-2000.9712,47.1232
-1159.6117,-1223.4833,290.8738
-1385.2919,-444.19092,-411.22934
-1535.6998,-592.474,-312.52225
-4265.8804,4465.694,-1046.2128
-2898.7715,6804.8315,-882.621
6.21195,1991.9335,64.84154
280.466,959.8663,113.94482
733.3655,391.9764,410.55124
904.5079,201.96559,204.29028
1365.255,163.18971,149.85532
1344.0697,129.38127,110.772766
1210.5176,572.0255,-119.672874
955.50085,-142.24445,-346.30533
573.8312,4855.19,-878.42303
-2079.9927,8382.146,-1663.3805
-2026.343,1693.698,-676.2612
-1587.7876,1342.094,-430.342
-1607.0626,-415.65793,-297.7966
-1491.0798,-553.37897,-646.28503
-1142.74,-1652.6387,-668.3183
-1151.1188,-637.5706,-561.7611
-1558.7726,-426.56076,276.70706
-2844.5737,1033.6405,-995.3665
-4614.7305,7328.9272,-212.45383
-430.07114,4525.1562,113.54723
666.942,522.7337,-256.11444
1221.2488,790.33344,-201.9225
1395.8219,-186.2951,-133.04453
1349.8439,449.76703,-27.898611
1167.5756,-511.9008,150.27856
1088.5391,471.75928,235.48546
855.24713,-785.0841,186.59935
1065.948,3536.266,-843.0322
-3022.0767,8979.477,-2155.2263
-1396.0554,1628.7151,-760.5654
-449.53445,539.16516,-575.2973
-1302.2352,264.77878,-307.53064
-1193.7983,-453.37283,-462.10324
-1732.5416,-824.12463,-623.1583
-1303.8525,-1585.3793,-556.43915
-1835.4238,-84.1557,-9.201673
-1815.0231,184.38123,-255.48935
-3737.827,6059.212,-986.1411
-1244.9686,6182.478,-150.92516
469.98294,1083.393,47.30097
792.3797,797.36383,-378.4238
993.61194,-23.784939,-34.275208
1094.4043,46.620884,-57.459583
1269.463,-18.242935,-143.38963
1388.0465,-326.2481,-27.619415
642.8807,415.01727,378.8489
1393.3475,-123.3396,267.4814
-104.15526,7129.0093,-2047.8854
-2925.493,7012.596,-1199.6093
-43.89999,367.0775,-711.8142
-1973.4558,1340.5251,-823.1871
-1532.7253,-1127.9075,-888.81573
-1995.1428,-689.0069,-1134.8021
-1487.4148,-1315.8656,-133.44115
-1717.9315,185.71663,312.7504
-1652.7458,-665.623,-231.91753
-3180.8713,4081.5945,-91.60903
-2120.4573,7068.7695,340.98373
297.78375,2262.0798,251.08148
595.29224,742.74585,-155.91974
1203.0978,54.233387,-512.731
915.6075,-371.201,-40.18667
1273.7654,-300.4954,-443.21936
1296.8341,-378.19574,16.377708
881.80304,-1.3976587,-276.0718
1426.3273,-358.1035,390.10986
623.8356,3933.6907,-516.29175
-3382.4075,9216.368,-1911.2362
-705.13275,1145.1809,27.828266
-635.5863,883.62506,-441.23282
-1616.3866,-129.07942,-45.821957
-1343.3229,-853.8017,-468.52884
-1502.2233,-1113.8439,-690.0646
-1213.6812,-957.6975,-222.72478
-1469.6577,-202.44986,24.464397
-1850.0995,493.1092,-175.31805
-4344.7583,6149.7954,-41.646076
-1678.247,5315.218,35.550697
1004.05396,791.5917,240.97675
849.315,958.8599,135.36533
1471.9431,-296.07413,854.0728
1357.7086,372.49747,397.5922
1375.3666,-887.3645,184.06837
851.3359,391.86624,-270.40988
1360.8872,-807.01154,-51.835987
-41.36603,4563.391,-1131.9624
-3937.8037,8460.82,-1559.9259
-740.556,1363.2783,-236.79216
-1461.5907,905.23193,-54.32054
-1432.0295,-222.46094,-57.011402
-1361.5299,-626.1585,-285.21573
-1475.3317,-971.93463,-176.8417
-1053.5082,-683.5395,152.93538
-1384.0465,-288.03217,-4.875109
-1162.6798,-557.6808,-53.409805
-3431.0994,4352.536,-28.734098
-1949.4159,5889.7993,295.17572
216.82211,1847.6025,314.54755
448.38663,891.8038,-45.975353
967.7603,80.07231,200.98647
1270.1257,201.38455,341.8425
1392.2839,150.25253,228.93059
1322.6932,-355.1545,32.947006
515.0638,445.0542,-78.344154
1357.3279,-125.370705,-205.06026
-1808.922,7772.1655,-2201.6614
-3840.4512,6001.5854,-1669.3234
-118.63872,-33.622364,-214.21278
-2075.802,1204.9462,-287.7802
-864.473,-1154.3834,64.74044
-1596.9102,-696.2991,-755.25446
-611.1115,-2448.3584,-354.12708
-1646.9808,-488.58664,-138.96257
-869.4758,-1125.5067,-78.35547
-3434.9062,2420.8955,-951.447
-4270.2256,7733.551,-761.70703
188.00565,3545.1326,-355.97385
952.9295,460.2175,-164.70598
842.74054,612.3554,-47.035744
1311.2126,-594.1088,1.9322662
1631.8094,172.82118,-223.58228
1293.649,-532.75275,203.33907
491.19177,570.21576,-195.12666
1082.2831,-700.50903,416.9316
-150.52725,6206.089,-2148.293
-3502.2227,8175.0625,-2867.577
42.85031,680.6516,-919.1301
-1347.1106,538.5612,-1090.3721
-1006.1934,-627.6021,-340.5654
-1298.4591,-450.69693,-480.7587
-1532.1108,-1679.2064,-855.8617
-1529.8236,-1225.7007,-669.32056
-2235.1953,-390.68582,-268.21594
-2657.552,667.75934,-896.8124
-4791.6597,7462.518,-1271.6002
-839.3822,5963.8765,-726.17346
633.5309,593.8731,49.204903
1005.43756,594.44196,-60.287357
1292.0361,-591.0412,228.62411
1228.7644,252.06859,148.21326
1267.4675,-476.77994,528.0641
971.0302,315.57004,297.3016
888.2636,-722.6208,20.701208
1145.7458,3651.6023,-1153.66
-1949.4501,9320.86,-2861.066
-1959.5814,2150.494,-1474.2858
-1229.4857,453.78378,-624.1952
-1348.6642,-220.30716,-700.16895
-1268.0659,-592.717,-314.18164
-1338.376,-904.23413,-521.9765
-973.0881,-946.55255,-340.96426
-1656.0416,-144.23839,-385.3384
-1580.1392,-314.603,-419.76233
-3248.1287,4865.7993,-1543.9281
-1351.2166,6471.1436,-1346.7755
449.68393,1306.0492,-434.29785
915.0884,627.494,-289.4011
1349.0397,-10.177207,-50.597794
1213.2083,308.73383,129.99187
1187.5171,-107.33721,380.52722
1086.6599,112.27936,405.42322
534.74915,107.62205,241.27254
1370.3734,1020.5969,-258.15723
-1505.7258,8210.265,-2354.2024
-2261.5994,4408.8306,-1652.8732
-391.32065,-29.98768,-556.23315
-1475.4435,437.73145,-547.4418
-705.1543,-806.50836,-177.26218
-1513.935,-549.1462,-554.5977
-1170.6045,-1657.85,-379.99786
-2083.9453,-397.7912,-375.57513
-1869.3624,-392.6172,-9.333863
-3567.0703,2036.1516,-1129.4806
-4219.4644,7202.2153,-1662.3427
-690.657,3878.5332,47.156235
959.7851,516.54126,-499.98358
1000.59705,786.0249,-332.8605
1437.8835,-462.16537,153.88058
1298.294,161.63147,-34.31787
1526.9697,-660.10956,236.70639
549.9579,548.3184,-178.02388
1415.5276,-698.99243,397.82922
-5.7783523,4834.048,-1594.6313
-5065.7495,9111.685,-2928.2903
-354.40543,944.2825,-152.40652
-1637.5347,747.4569,-935.9744
-1620.0685,-1067.3932,95.46867
-1413.0227,-1438.2188,-782.036
-1302.4366,-2640.689,-304.56198
-1939.1821,-1014.29425,118.96803
-2219.2112,-629.2803,-506.0729
-4321.4746,2118.4497,-1185.9259
-5550.198,7475.9478,-858.94543
-876.5218,2765.8674,34.16594
140.74641,1600.5581,-492.6327
1307.9954,876.2328,-564.1663
867.4254,635.4747,-207.12788
2038.8557,204.20491,-320.20322
1515.02,234.13628,-174.32092
1326.7455,150.77599,71.48485
135.27086,363.61682,-166.19017
1885.3986,809.7257,-192.8856
-3582.3025,9912.534,-2387.5225
-4484.289,4240.345,-1480.3966
-1252.9221,224.22482,-160.71417
-2465.0479,381.97495,-492.35886
-1005.4652,-1304.8206,92.9606
-1327.1777,-1376.7102,-724.63306
-791.99774,-2178.5513,24.947798
-1903.2428,-688.8362,-440.82718
-2375.1458,-577.7649,-59.209267
-5366.673,5737.266,-748.2631
-2904.7253,6604.166,-373.11288
408.71994,1927.3898,-358.76788
1291.0508,498.8353,-449.59576
1145.4587,560.906,-76.56435
1137.0114,255.90282,-168.91914
1378.885,-39.4705,-368.28235
1373.3639,-268.8292,-2.3005986
864.1603,559.227,-170.2152
1133.3193,-495.65277,339.68646
95.42299,5351.856,-1255.3804
-4820.2075,8966.774,-2353.8074
-889.2135,415.15182,-33.877033
-1762.1417,1047.6301,-846.7104
-1460.1779,-1262.8287,14.046405
-1364.661,-954.78937,-735.9818
-1324.8007,-2781.2021,-470.85526
-1852.1576,-711.5393,-50.608067
-2467.891,-654.70996,-294.5708
-4064.6162,3786.8428,-1434.986
-3925.6025,6981.185,-104.98334
78.20613,3036.5696,-522.22473
967.64703,656.2809,-434.10037
1160.5948,690.1528,102.08056
1184.0891,-130.05133,188.07062
1512.6716,521.5764,220.3225
1493.3611,-482.43204,441.19434
912.30035,797.608,332.26672
1310.3163,-734.1215,110.97918
-1145.9576,7440.247,-2398.0586
-4421.1475,7368.7236,-2099.8406
-405.65836,-239.22714,-915.42865
-1777.558,1081.1758,-482.18924
-722.0792,-820.4006,-165.64223
-1883.3164,-469.7062,-523.175
-1569.9799,-2760.8315,-885.062
-2754.8616,-1504.2297,-268.84326
-2265.543,-321.88187,-372.85962
-3684.7495,3637.1135,-936.2574
-5332.9116,7595.2935,-130.1082
270.12146,2618.9277,-703.62976
263.70563,120.86184,-35.831226
786.6113,875.9911,-3.6479545
1251.0164,846.41766,193.29228
1873.0166,663.92114,179.23206
2031.6615,182.25763,267.64758
917.3228,653.1823,161.37393
1106.5039,538.6912,-421.9877
-1600.698,7336.271,-1867.1239
-3999.008,5759.451,-1896.4274
-2077.7786,337.07254,-663.5857
-2318.935,908.47736,-284.0773
-1219.1808,-763.0398,-185.23282
-1558.6758,-766.7886,-266.6721
-794.1679,-2511.9683,-321.5113
-1871.5135,-912.2157,-326.63562
-1925.9736,-853.40625,-398.77
-4045.793,3932.07,-1244.8856
-3295.8,8016.059,-556.0209
53.90564,2910.6,-144.52902
813.6452,277.89,-187.21503
1177.7155,-114.28858,96.30759
1278.3263,-216.06299,-25.622086
1392.8358,57.051033,130.87358
1410.9631,-363.84885,440.97678
899.7764,432.2846,55.118217
1359.7429,-570.67957,163.10774
-410.32053,7033.142,-2033.5157
-4628.3516,8361.073,-2133.7444
-940.9878,87.762764,-125.14152
-2215.0974,996.47736,-1028.3463
-1100.5209,-1793.6757,-242.25815
-1294.8784,-1265.9257,-613.1772
-1070.7063,-2460.1604,225.50978
-1990.9283,-400.44843,-442.70563
-2052.9912,-1099.2286,-571.12354
-4473.5503,4655.797,-1405.3408
-3329.957,7028.6265,-226.49939
-8.104297,2490.5447,-528.4803
1196.292,661.4311,-329.50537
1003.5234,498.97525,124.59571
1467.6042,225.52452,274.38217
1226.9812,386.75797,26.966913
1478.2595,-251.84093,239.85933
387.8037,466.43326,-77.21176
1643.7623,367.2671,-122.69264
-2219.799,8140.248,-2720.515
-3685.8906,4983.26,-1667.2825
-329.11237,299.0858,-442.6144
-1690.3202,650.478,-606.6733
-407.49945,-628.4804,-204.4824
-1227.8218,-599.85376,-741.054
-840.6111,-1375.8291,-887.8563
-2090.056,-711.16516,-758.95654
-2121.591,-481.35654,-181.61023
-2903.7795,1215.1832,-773.69714
-4168.4644,7094.9,-1125.028
-989.7303,5553.9214,-36.53323
820.9159,548.9799,-271.7238
955.80237,866.427,-300.83655
1422.9111,-775.5294,-47.62306
1673.1793,234.48701,-154.70291
1592.8143,-596.15765,225.85175
697.4376,458.35837,70.666534
1244.3805,-674.1898,212.97693
1030.5748,4556.8247,-364.8935
-3477.8386,9759.148,-1562.523
-1333.5925,1464.4597,-48.420425
-1445.4187,629.33344,-590.17816
-1346.7782,-985.96234,-355.32544
-1156.7172,-1189.0117,-660.76373
-1315.165,-1983.3937,-409.61667
-1654.6642,-1362.4115,-698.7
-2496.0715,-189.07196,-380.35507
-2605.2454,259.65826,-702.1086
-6242.4805,5898.551,-226.91551
-3361.978,5843.333,583.635
1061.8181,792.7193,-140.05496
789.1059,1270.0082,-23.043268
1463.775,-582.98944,115.86367
1484.3436,590.133,-52.423634
2145.5618,-609.4296,309.75757
844.9712,252.66833,8.192895
1730.0647,-1773.217,380.06622
-2565.4312,6995.5947,-1079.6139
-7141.7188,8426.295,-2326.5933
-951.2648,-893.66235,-165.29239
-1955.0248,1201.0662,-54.04903
-1009.1831,-975.90466,-89.81218
-2166.0198,-799.3818,-971.3994
-1386.6879,-3199.652,-712.91736
-2453.5254,-1061.056,-213.00212
-2209.7278,-908.5574,-793.3589
-4193.4272,2370.1497,-109.01509
-4592.003,8114.245,-189.06534
-46.926437,3227.578,104.97291
473.07294,734.90173,79.9157
961.14996,730.2372,65.07146
1123.711,39.585007,-48.16665
1489.4594,544.5861,82.20244
1348.3981,-237.1975,110.27537
873.9479,337.4404,180.72766
643.17993,-488.39212,-178.63249
1155.4825,3181.5798,-95.29447
-3301.216,8917.173,-1124.929
-2038.3223,2316.0508,-411.18832
-699.022,846.0224,117.308815
-2029.7927,159.20357,-268.35025
-860.8544,-975.5094,-389.82315
-1538.0409,-1139.438,-952.47186
-1320.748,-1161.039,-450.35873
-1938.9564,-16.66119,-169.15518
-1693.7452,-369.24365,-330.52277
-4076.1707,4432.491,-1298.4695
-2745.8372,6501.9014,-115.80484
427.0312,2203.478,-59.67541
879.6052,990.4493,-102.39548
1543.774,374.3078,550.2572
1666.3867,-103.73081,548.7581
1175.427,50.02707,379.82285
1061.9175,-183.31563,62.51996
438.5715,351.50528,149.10986
1374.9835,580.01227,-410.53094
-2523.1094,8801.618,-2873.984
-2931.746,4563.6206,-1654.5951
-1290.4523,611.308,-1017.3288
-2274.669,341.61606,-542.01227
-1120.1584,-1027.1519,-569.9605
-1833.7053,-916.9399,-772.83234
-970.5442,-2018.853,-724.15704
-2046.6256,-590.67834,-76.74594
-1960.7654,-804.3789,-315.5053
-5064.018,4453.6235,-948.18274
-2916.8796,7365.6304,-653.7884
121.61612,1950.0579,-72.51475
708.761,987.0763,-181.13869
1315.6781,414.57968,-49.6461
1717.2388,451.4232,-119.42888
1965.6818,52.57556,202.40877
1786.6747,399.99738,61.786514
686.3178,56.009857,86.51504
1137.3971,1484.9829,-831.4798
-4760.717,9782.126,-3123.3228
-3563.491,4047.1138,-1346.1533
-1501.2257,488.22437,-694.81976
-2466.6018,199.62053,-269.3416
-1375.2227,-1045.7052,-186.24493
-1884.8314,-1618.7577,-336.38358
-948.47125,-2848.629,-289.5249
-2620.057,-472.9045,-109.587265
-2465.5232,-306.2131,-868.66437
-4845.526,6460.9365,-1163.2944
-2262.3447,6352.5547,-681.75977
581.27954,1520.1742,-338.3046
690.22064,458.80527,-51.921223
774.9327,177.7389,-28.121054
1131.7733,84.68417,50.24463
1220.9296,248.89848,-9.674682
1696.3547,-267.03815,161.68352
883.93756,301.26544,-124.24158
1452.583,-48.152214,224.93784
-618.51263,6689.9585,-1855.0836
-3786.1777,7054.1367,-2012.9719
-468.774,560.54407,-500.2684
-1728.4663,884.3136,-924.7504
-1247.8402,-844.47565,-372.85367
-1766.2538,-825.8833,-832.4546
-1337.8059,-1895.1713,-782.3418
-1793.4371,-390.68942,-293.80942
-1839.2715,148.78003,-327.067
-3502.899,4396.7393,-786.18646
-2593.86,6970.5957,-447.76083
174.60501,2523.194,-294.29187
838.708,272.6026,-342.60318
821.3699,239.12862,-295.19943
955.0496,-147.51355,-334.18146
1474.5756,204.43898,-391.9922
1542.1758,-274.8836,-109.217125
1064.4661,458.33167,-537.0329
1313.1808,-781.11584,-82.73025
-104.44351,6743.62,-1821.6729
-4654.847,8866.715,-2288.4788
-1040.5222,54.126976,-131.48933
-2107.9697,1054.9192,-588.4956
-1330.8118,-1506.6705,16.281425
-1287.7969,-859.3979,-327.4962
-1161.6582,-2751.8936,187.61142
-2023.7349,-201.85567,58.728325
-1996.7101,-967.2851,-392.43054
-4169.574,1665.1467,-1434.7975
-5179.538,8112.534,-1568.4153
-553.0168,3870.6597,-668.73883
1348.967,217.77151,-527.64166
1009.8861,596.5914,19.435575
1242.6498,-393.52563,67.77484
1359.7834,717.8263,294.6682
1381.6956,-396.69296,475.22885
749.84015,1067.3561,655.8529
1193.1619,-980.2668,49.3514
-48.267735,5548.0054,-489.47116
-3852.4192,9529.42,-1968.1215
-1883.8083,347.18777,-1280.992
-1076.9291,757.498,-738.00543
-1404.5912,-88.63773,-430.80643
-1376.4706,-723.05585,-471.6918
-1612.0913,-1391.2395,-360.5576
-1553.8599,-1285.8909,97.18007
-2217.1626,-206.42441,6.500175
-1841.6416,-580.2366,-342.51898
-5013.4595,4578.3657,-1361.4023
-2740.3435,7421.224,-973.9418
193.23344,1930.9652,-382.7973
543.03705,470.04056,-809.06256
1315.2738,-21.324154,-356.91626
1323.893,249.50371,-553.5253
1666.0115,-93.11038,-287.84927
1247.3915,222.2526,-298.8765
805.5584,239.81508,-359.8001
908.81116,-109.283646,-692.3258
-581.41473,5149.6113,-2286.2673
-3395.3875,6389.1045,-1846.5469
-1059.0247,529.0368,-575.95953
-1898.5709,867.6595,-357.3384
-1386.9862,-549.66986,-111.55103
-2313.2507,-362.01807,-523.8786
-1166.4429,-2240.8638,-269.79172
-1789.4658,-1116.3208,-34.892986
-1597.1805,-909.4161,-173.7753
-3775.734,1395.9282,-1653.287
-5180.611,8639.282,-1386.221
-631.3744,3656.8608,-918.0833
1335.1278,744.94574,-287.41376
1573.5149,540.2852,-93.35392
1406.942,273.18774,381.23163
1302.3408,334.86737,58.742134
1334.1989,-226.96283,274.29623
488.309,411.59167,-19.756044
1090.7684,-78.925545,192.1545
-2114.1917,6469.4253,-1287.6775
-4901.2134,7014.5083,-1643.8887
-341.04584,581.7299,-247.77437
-1671.2103,938.4785,-377.27203
-820.9392,-681.10913,70.394066
-1754.4319,-403.06982,-561.0908
-1148.5741,-2363.8257,-613.7275
-1947.6467,-1653.6998,-344.43335
-2031.1062,-1375.9927,-509.5307
-4071.7964,1687.8734,-1130.6702
-5540.8726,6816.5493,-1403.684
-2180.3486,4426.847,-210.41592
1295.4662,1621.9479,-474.18872
1572.6735,936.1527,-225.68845
1822.7643,-248.8552,235.88866
1544.3774,700.1207,293.45728
1339.9558,222.10455,579.0276
629.3007,802.0997,284.0323
974.1624,-395.22458,180.3947
-378.11154,5010.9917,-830.57764
-4218.071,8519.506,-2163.1948
-1567.4995,1289.2894,-833.4343
-1285.3365,960.221,-955.35547
-1318.7494,-145.4069,-333.41434
-1702.3926,-523.66907,-535.495
-1783.2063,-2098.875,-1017.24054
-1648.7966,-1600.5127,-822.0409
-2676.7578,-547.38684,-29.347807
-3046.999,1150.4509,-1336.9075
-5029.7944,7528.316,-1248.7109
-1472.046,5807.697,-436.5103
1116.4482,959.3451,-450.79312
1014.9505,576.4611,2.1115847
1277.4775,-466.37128,14.266146
1506.8593,228.66402,171.52762
1551.3373,-380.08563,227.1565
1185.5406,145.18477,213.97227
732.22797,-245.05646,21.894173
1039.8899,2526.6616,-126.250404
-3195.2942,11208.842,-1752.2788
-2504.9207,2979.6865,-929.57983
-1295.2714,439.86926,-300.8618
-1554.406,-247.7024,-504.64227
-1492.0317,-775.81647,-378.11374
-1669.8658,-1429.4458,-788.9338
-1347.542,-1696.5634,-79.78509
-2753.9727,-684.4647,-676.5989
-3692.0203,570.24585,-875.46
-6165.821,9607.077,-610.3597
-340.26074,3960.38,-950.0089
601.16766,1084.6035,198.95923
1232.4176,459.8943,-56.557774
1123.9579,-290.5087,-17.375544
1800.9678,-198.49297,-75.45724
1724.0872,-144.5813,182.86066
1292.2029,139.37502,303.71796
379.54138,-99.03582,24.682
1936.0504,1240.5817,-561.1195
-4434.6465,10955.835,-3632.8286
-2741.8694,2990.2644,-1454.9069
-569.8181,128.84634,-412.15613
-2112.5095,108.34975,-441.09442
-1069.2804,-973.5384,-107.15794
-1936.658,-1744.1409,-703.29834
-1170.5432,-2530.379,-141.4119
-2915.9902,82.570946,-172.97266
-2398.92,464.31653,-912.0258
-5296.2383,7946.606,-651.64844
-440.09164,4849.788,-489.0516
350.11075,749.3266,72.0139
636.6375,121.20497,30.527025
722.0799,-154.78188,9.592882
1114.2283,-423.33606,-0.43906495
956.0355,-85.2962,101.02162
1268.0925,-466.9776,115.3099
492.0896,190.08322,-112.35486
1817.4691,75.02323,-424.78027
-1234.2275,9096.849,-3635.4802
-2526.4275,5844.4165,-2002.1677
-430.52264,-122.183426,-532.75226
-2637.2498,840.7724,-616.6977
-2146.6582,-1537.3546,-499.3527
-1833.9369,-1767.8757,-723.55237
-1490.1985,-2134.0662,370.3759
-2523.1775,540.0237,-210.97865
-2717.8093,-600.13257,-1298.6348
-5680.652,8238.215,-1911.2119
-1610.4557,5917.3223,-1469.7667
1174.6136,622.9048,-788.3142
1525.8823,342.7063,-374.9704
1253.6714,-305.80164,18.03549
1908.642,-104.63585,-135.9509
1560.5359,-510.49258,288.70197
1120.7802,25.615444,48.905857
710.5663,-409.2094,177.62743
1506.9246,2258.0217,-898.60425
-4288.6104,10697.965,-3778.8774
-1361.0397,2552.1987,-1210.8278
-542.2249,203.55501,-704.6076
-1690.8687,-124.66885,-472.36035
-1243.1852,-1193.1927,-642.3996
-2067.2576,-1398.0593,-685.40216
-1385.9987,-1586.5111,-388.10767
-2430.7239,123.120476,-219.63628
-2372.1863,-357.4655,-710.88464
-5484.2964,7735.617,-1855.8486
-1253.6615,6155.013,-1160.8145
875.12744,645.5817,-413.93015
1006.6432,402.99088,-42.187336
871.24414,-84.04241,-25.369534
1339.2815,-344.94965,-120.97066
1379.2069,-298.28098,-11.536526
1365.2437,-314.37198,241.43881
482.007,294.03262,-90.743935
1845.802,-60.3616,118.17466
-1503.5522,8286.282,-2627.2893
-3965.231,6835.2217,-2079.808
165.73439,-410.20648,-194.79095
-2245.0603,1105.4597,-732.36804
-1120.46,-1574.3204,21.929523
-1576.176,-654.74786,-749.6665
-1021.3137,-1641.5802,-36.230442
-1602.9657,-49.02533,-304.0026
-1245.9163,-613.1609,-244.31332
-2945.0488,3459.6702,-574.65955
-2980.3057,6595.9146,-614.7071
-234.91666,3969.1868,-332.45905
1472.6619,528.98444,-590.87823
1012.011,847.7993,-510.75653
1580.1825,-613.1765,-269.7524
1850.3363,307.8217,-442.08453
1446.6198,-654.4609,388.4521
671.37756,888.3731,-353.43387
1545.7899,-1201.3424,493.6179
-627.66296,5503.0483,-1681.8232
-5884.533,9293.311,-2449.224
582.62494,-216.61877,-155.42953
-1788.4854,883.8732,-700.6322
-1220.2302,-1314.489,49.774693
-1805.5442,-1120.0966,-1054.2308
-1500.2703,-2289.922,-285.02975
-2331.9001,-638.512,31.784468
-2057.165,-448.56824,-565.40985
-4478.8228,5832.5166,-409.355
-1973.4446,6828.7446,121.031815
487.73825,1376.4644,-2.100496
637.48346,696.15955,158.12628
918.1519,-232.73656,-61.334576
1510.0135,-96.28633,237.57962
1271.3876,-134.90347,205.4413
1370.6467,-14.04912,233.8536
453.75006,160.93379,-202.72188
1783.0315,299.00595,-310.82126
-2990.8325,9286.849,-2072.0652
-3413.9683,4482.5034,-1020.514
-105.7301,-153.17177,-140.60934
-2137.1792,1065.0792,-280.5304
-707.60913,-1135.725,-10.887504
-1579.2681,-398.7203,-300.38904
-1147.7297,-2358.1492,-462.34424
-2664.5957,-714.1175,-360.25397
-2403.1887,-1648.9445,-796.00574
-5702.7134,6203.807,-1344.4341
-2608.3152,7635.8154,-439.30994
994.9852,1277.3026,-531.5023
1407.4087,434.38513,-111.90888
1274.2709,46.726463,6.3595567
1672.4731,-298.3272,316.82678
1218.1163,394.64902,446.24124
1169.0686,-79.55825,568.1047
387.33554,567.82227,-74.060745
1455.1675,295.43228,177.73564
-2575.7937,8976.948,-973.7634
-3255.4434,5167.5107,-847.89575
-203.89368,-63.00457,-192.86742
-1675.6633,869.3996,-543.71313
-1136.1597,-833.053,85.44193
-1587.2828,-675.6715,-755.21735
-1074.4302,-1646.9722,-589.0841
-1954.0316,-842.23016,-528.25543
-1278.3569,-514.01874,-204.94922
-3320.902,1744.7164,-1227.0756
-4551.0547,7842.8867,-2162.225
-750.7455,4554.2896,-156.55707
1190.9371,149.64214,-381.0002
843.422,987.0128,-232.43362
1568.1628,-897.1796,149.87361
1756.1931,331.91614,131.66716
2185.6328,-465.1422,502.63635
398.5813,745.8695,461.32404
1777.8605,-566.30804,297.7378
-1713.2372,9129.211,-3104.9822
-4409.7534,6559.7466,-2215.5303
-357.87167,-142.02069,-432.4036
-2229.0698,551.3769,-705.908
-851.4279,-1315.5208,-142.42676
-1724.0336,-806.7139,-689.42426
-847.98663,-2255.836,-301.69727
-2184.1523,-379.8152,-431.35672
-1459.983,-1282.9043,-556.0392
-4602.0615,2980.5183,-1765.0879
-4422.86,8429.675,-1811.2441
184.94711,3179.1746,-743.0936
1632.676,855.57404,-255.68652
1540.1477,548.67584,43.602238
1970.0354,281.35318,116.748146
1881.8995,616.9452,524.10834
1234.1395,449.70486,469.39203
312.22366,457.9341,17.072834
939.79266,820.8171,-442.15317
-2026.6597,7746.5703,-2481.947
-3009.5208,4617.28,-1805.4192
-307.2569,283.91553,-684.6257
-1339.796,240.02917,-494.25327
-854.64026,-489.85617,-129.34193
-1839.8777,-970.1539,-691.43085
-1515.4873,-2517.4082,-1006.9449
-2352.37,-613.8402,-20.618471
-2235.6135,82.58908,-751.3032
-4273.58,6131.099,-1143.1503
-1774.9376,6340.614,-235.6532
347.14178,1437.6765,-156.97433
1029.9503,684.89355,-7.9657416
1197.8224,-245.94075,144.79431
1272.95,211.73032,251.83095
1360.9178,-76.782776,412.63275
1437.7423,227.52061,352.12277
615.1169,-212.18004,267.74454
1213.8536,1919.0249,-602.034
-3627.7502,8994.999,-3240.8958
-2256.5938,2853.5127,-1189.7319
-282.1106,387.40402,-360.7489
-1702.1354,353.3419,-207.94075
-965.2407,-808.13605,-140.60587
-1727.4347,-874.28204,-399.95148
-1076.531,-2325.857,-78.941536
-2114.298,-166.26637,226.10933
-1644.8431,-71.292465,-715.58594
-2879.1162,7268.877,-1942.2692
-326.66653,5132.5063,-328.7401
302.14297,748.8602,-424.18735
763.8522,389.5429,-300.34683
776.2412,-444.39206,-131.74065
960.7602,-286.84595,200.62689
998.5624,-50.457344,297.08572
1373.698,-325.82343,536.44666
651.5585,65.687096,53.849304
1830.3164,384.9643,177.45863
-1941.8387,8100.304,-2985.854
-2609.098,4819.034,-1398.1847
290.98337,-6.8938136,-608.9474
-1530.5593,646.94165,-541.92346
-1049.9926,-956.0139,-84.777534
-1767.7407,-1187.7545,-604.0027
-1170.9314,-1901.0275,-743.45233
-2220.5432,-389.55746,128.76183
-2494.4197,217.90411,-897.7372
-4932.6416,7133.453,-1453.5714
-1538.0553,5993.2383,-301.1549
977.55994,704.8629,-564.09076
1110.2817,647.168,-180.52975
1009.6671,-639.4871,19.828438
1394.8774,-154.53651,125.285706
1251.6652,-403.13318,328.9111
1272.4579,237.15668,238.87094
677.65265,-518.385,-42.643852
1719.679,2691.405,-1121.9774
-2817.8667,9836.478,-2660.6545
-1706.978,2043.812,-678.62384
-502.89465,738.20557,-441.5086
-1604.3541,-67.64078,-111.35552
-891.9982,-531.0604,-237.46613
-1655.1627,-899.77625,-255.16878
-1231.1216,-1129.2269,-421.32968
-2221.3972,-348.3444,-359.92368
-2007.445,-87.5281,-751.6745
-3919.2915,4754.7764,-1605.1371
-2325.6484,7443.6455,-679.47845
342.7833,2276.88,-710.2869
1449.6123,619.82263,-550.89844
1226.8992,79.92627,-115.59211
1527.9888,55.39915,-140.34941
1197.1096,71.49573,-46.661438
1536.086,-403.26175,-20.543653
509.1863,272.71313,-17.985268
1770.4668,31.963654,-405.17694
-1676.5579,8558.865,-2974.2446
-3415.2136,5683.851,-1630.0889
-7.106575,-124.564606,-361.82986
-1924.4996,968.6458,-331.70343
-965.8649,-823.038,-58.168118
-2160.2954,-301.2957,-728.47156
-1354.1761,-2378.6921,-532.72784
-2268.5361,-237.15512,-337.23618
-1385.5356,-673.12585,-506.01553
-3714.795,4440.466,-620.9744
-2967.4133,7661.0566,45.900978
124.38719,1595.5485,23.408777
636.3324,247.70282,123.4991
796.76324,82.771706,267.1197
879.76624,-192.3648,414.60245
1188.4883,113.97936,70.57939
1608.5496,-628.8758,256.25146
661.94037,452.26755,-73.38747
1787.8856,-350.6958,165.12018
-980.61847,8166.1943,-2074.8079
-3137.2073,6336.1577,-1660.3099
-49.182056,-156.34549,-379.8344
-2130.445,1109.5052,-520.2417
-1105.1088,-1101.9324,0.018736346
-1712.3792,-553.6585,-564.1856
-1188.0627,-2206.6104,-385.67056
-2198.0637,-297.96603,-145.15155
-1918.6271,-810.8823,-781.916
-3979.4001,4391.8467,-1120.8198
-3233.447,7067.499,-542.19965
-21.088236,2844.989,-542.44305
1075.8268,697.8557,-257.62946
939.5536,595.53217,-83.85363
1669.659,-24.555208,158.25087
1729.7695,638.45514,180.08066
1462.869,-352.37177,357.43634
579.5467,776.0218,-9.3313675
1296.2388,-564.3849,-131.7378
-1045.2766,6998.8145,-2285.8875
-3969.1042,6690.7515,-2113.6858
-584.1325,325.2109,-597.50195
-1693.7877,974.5228,-412.12796
-897.8373,-664.7359,-47.618725
-1484.2902,-480.7675,-629.4154
-1348.5165,-1416.5562,-253.3369
-1650.8093,-831.2211,-126.73982
-1799.5122,-702.4298,-210.73235
-2541.1821,1127.2427,-873.90674
-4006.315,6850.2617,-1600.1732
-713.14105,5139.983,-783.14874
643.9818,795.77966,-192.13963
810.79895,677.2475,-60.251266
1254.509,-87.62312,97.78217
1630.5929,300.74817,-16.803999
1694.473,-296.95505,253.07207
1248.1226,312.88403,86.04527
688.1068,-268.56656,197.24115
1273.6956,2433.3481,-2493.5078
-3401.1519,9704.924,-5263.863
-1748.171,1495.9327,-2002.2538
-1365.1508,109.200714,-679.9363
-2021.219,193.99031,-40.670876
-1234.7479,-631.7006,-26.792355
-1292.076,-1706.7068,-286.04102
-1079.7493,-1350.1128,-331.25986
-1635.5247,-314.0168,-283.75906
-1735.0464,1247.8634,-985.0554
-3201.9336,6899.7974,-1712.6063
-800.5932,4106.7305,-741.8241
896.38837,1013.06305,-480.29227
1355.7028,426.27014,-139.05608
1467.5022,-280.4732,218.51738
1106.8503,154.25557,84.491066
1360.2224,-316.1104,331.74054
899.1377,110.390236,59.19279
1006.8076,-310.9737,81.46582
738.19507,5632.1997,-2814.7585
-2970.3145,7548.5166,-3168.5317
-518.7312,344.74344,-899.5889
-1013.658,481.24564,-858.2534
-1123.378,-587.08704,-161.12393
-1507.1597,-275.71933,-316.9458
-1416.4027,-1643.7308,-481.84244
-1761.1893,-630.2774,-397.79166
-1773.3539,-641.5706,-194.18443
-2745.6982,1982.07,-1000.746
-3886.4656,7034.4546,-212.15012
-506.40842,3933.0298,-111.46241
615.53894,708.17285,-31.565418
765.2546,652.54675,51.229862
828.2684,-220.56667,182.99457
1282.9352,340.16608,44.02943
1523.234,-97.09362,316.0038
1413.4507,565.39014,249.39595
1309.2684,-202.35944,434.95923
1524.1508,3227.0867,-564.71436
-3157.3022,10062.2705,-2192.679
-2643.2983,1859.0255,-651.6591
-1068.5813,707.7791,-514.8359
-1881.6652,120.28859,-271.62158
-1158.4524,-898.39105,-365.37344
-1538.6158,-1313.1195,-575.6895
-664.8192,-945.6147,-117.98602
-1559.0599,-284.81616,80.42931
-1048.8344,48.803886,-87.83979
-3140.3716,5085.4907,-120.15644
-1367.9285,6455.448,80.92124
835.08606,1601.132,128.7961
1051.5355,849.3578,-320.71417
1037.4789,107.37184,88.61176
1524.9188,-228.8509,144.50406
1529.5332,-202.70624,458.4371
1373.3412,7.0931225,103.77325
691.8125,-139.37175,263.28784
1469.9954,1954.4739,-1091.6261
-2470.5034,8639.828,-2986.572
-1481.7758,2670.4907,-873.5082
-108.87161,841.9,-743.75836
-1575.165,135.61209,-270.281
-841.3787,-527.8103,-264.2699
-1771.3359,-698.69495,-490.15405
-1219.6393,-975.2194,-466.4284
-1313.3649,-334.99356,-141.77736
-719.6061,-452.76004,-112.893745
-2190.2375,1874.128,-313.28555
-3581.5461,7047.3545,-439.47784
-212.39536,3794.9778,118.46155
832.97644,823.95844,-145.9793
870.8293,594.99347,-76.25307
1492.6725,-259.25455,149.83237
1742.1398,427.33713,140.28465
1446.9965,-445.69638,172.6365
650.8163,508.53223,-209.245
1449.9639,-438.4307,-149.85309
-787.30634,7361.22,-2774.0898
-3655.3328,6745.527,-2266.0386
14.737068,105.8819,-507.62366
-1643.4423,1106.4928,-539.1694
-1048.9335,-888.7025,-76.047386
-1800.935,-361.48654,-584.4709
-1596.904,-1719.2513,-470.1636
-1720.82,-339.29428,-88.915985
-1428.0709,-894.59406,-21.950134
-3251.553,1757.2489,-881.4424
-4656.842,7402.8506,-706.78204
-542.4402,3444.7253,92.627205
598.25055,1191.9103,-362.75433
925.6719,973.95624,-150.92523
1502.1348,52.465244,344.79486
1712.8795,286.6769,-57.807587
1382.1804,-362.79056,61.304783
997.31036,375.20364,-209.04654
538.12225,-343.17615,182.29163
694.2846,3142.0183,-912.92346
-3048.982,8150.593,-1728.1506
-1173.1395,2322.7966,-465.10312
-204.39914,766.74445,-463.20496
-1253.2769,361.07114,-284.20474
-1092.8889,-369.25018,-497.24277
-2158.3242,-605.35144,-538.76056
-1334.929,-1572.2125,-243.0639
-1598.6317,-65.941795,306.9895
-1299.5527,-460.34055,-7.9524174
-3309.7395,4869.954,-20.410221
-1944.3397,5471.594,539.9289
487.0031,1163.634,169.15662
581.69586,925.14496,-147.46169
886.4772,117.23112,36.000687
1406.2064,-33.42841,329.1105
1324.8386,40.645966,281.17322
1273.0028,-213.81078,295.39453
618.936,275.31934,366.47678
1513.7129,495.33072,-166.5298
-1798.5886,9190.265,-1953.7488
-2419.7334,4049.502,-718.6065
69.78354,169.73727,-473.5438
-1433.6512,674.6775,-269.46063
-817.16766,-771.01105,-271.52298
-1718.1217,-393.1447,-367.79312
-1010.5633,-1062.8895,-199.3801
-1457.5574,-149.04854,109.23288
-924.7303,-857.3423,-18.303934
-2592.5515,1299.908,-398.33795
-4297.5415,6894.5747,16.35682
-891.58374,3449.5178,187.34845
1281.7479,865.71295,-654.6574
1234.3317,590.07623,-104.08917
1700.4434,-71.540085,274.59775
1484.2155,38.67029,124.70887
1496.9983,-440.69244,-20.915277
588.2447,-35.309376,-96.93788
1475.6678,634.46606,-476.46997
-1310.2957,7822.9404,-2930.838
-2369.6448,4593.369,-1572.2749
228.3669,377.10687,-609.8243
-1511.3613,614.9277,-495.9156
-865.03046,-745.48834,-119.555336
-1811.5577,-420.89185,-345.82733
-1246.2302,-1350.837,-399.57568
-1790.0659,-423.1438,-153.94272
-1206.5934,-322.27914,-90.34806
-2676.2322,2222.6108,-766.7918
-3082.2617,7059.3506,-398.19305
-261.7968,2962.1675,225.25452
639.32904,671.8058,-107.082565
1001.5999,549.3527,-236.45059
1074.534,-436.13037,86.70649
1295.8624,189.4109,29.81347
1395.7745,-428.82172,173.78244
756.5743,359.51263,-21.665335
985.6477,-558.854,60.57298
855.37573,4884.8345,-2132.7842
-3085.8428,8048.3267,-2724.2322
-730.9182,729.2359,-702.17834
-1006.6369,854.9883,-271.29956
-1248.0051,-375.72864,-146.26875
-915.4352,-555.6922,-384.65417
-1530.0176,-1326.5604,-350.34137
-1119.798,-556.3818,-202.37569
-1531.0103,-86.33227,-108.958206
-937.8599,176.58444,-206.38065
-3000.7932,4588.699,-952.3121
-1585.3088,6197.811,-693.3954
768.4673,1365.9547,-182.56976
964.3943,789.647,-339.3335
1170.6588,-244.37335,143.92862
1422.3732,-26.922087,271.73434
1084.7782,-223.15369,495.8036
1069.3429,74.841095,139.75963
642.276,-380.24905,38.63705
1739.8455,2057.5723,-782.39655
-2455.2473,8975.263,-2857.5142
-1608.5333,2909.3872,-976.2823
-19.90157,413.7799,-455.5162
-1580.4891,369.38788,-184.04933
-908.58765,-1032.512,-212.5698
-1739.9865,-754.4719,-540.3776
-1153.7075,-1181.5919,-284.6974
-1770.5737,-186.29109,-94.879295
-1117.5621,-596.9037,-204.18538
-3644.354,4206.674,-318.31516
-2916.2466,6724.689,86.93316
582.55334,1890.8275,55.316742
756.52655,769.8964,20.518744
1127.277,85.530205,185.52356
1090.4961,-112.81216,279.1436
1076.4155,-59.158554,265.8222
1409.198,-201.56085,122.90207
708.3264,-72.47344,-2.6650014
1552.0967,700.4234,-315.07333
-1707.4836,8905.226,-2854.4473
-2924.2253,4435.751,-2024.6118
-388.28494,8.064124,-673.6015
-1839.1063,300.6867,-486.97427
-607.69763,-1064.4137,-95.8657
-1324.5583,-689.8073,-323.83368
-968.5736,-1345.2709,-367.2904
-2270.2349,-54.68213,-246.79274
-1238.024,-148.55426,-342.12033
-2988.411,3336.3794,-942.919
-2977.382,6540.9634,-883.5371
163.51607,2867.0745,-553.6741
959.65,300.32217,-129.59814
861.18555,313.21747,-173.76488
1651.7307,-485.03754,200.67404
1148.2489,331.5545,221.33913
1641.0735,-491.04184,445.7981
195.90923,468.7505,-247.87233
1703.9252,-401.7331,-77.935875
-1719.4907,7593.4,-3052.8845
-4433.809,6051.399,-2115.672
-49.628532,144.61319,-285.06607
-1639.1143,993.5743,-552.0254
-905.6381,-652.8625,225.05676
-1368.0605,-625.3645,-352.43283
-1113.0634,-1771.5901,-555.3056
-1590.5034,-1060.2174,-328.6517
-1495.8641,-1047.1688,-366.3112
-2279.6555,-454.19302,-1469.6125
-5611.013,7626.4565,-2221.7717
-2115.9336,5737.4053,-624.7958
1412.6545,907.4437,-791.4544
1095.0571,368.3823,-194.15913
1051.3348,-225.25868,235.09518
1390.8566,17.611588,170.6291
1295.4448,-354.39908,361.62973
1049.0756,159.3956,206.4217
542.9224,-509.34436,85.99
1340.6556,2509.565,-615.9243
-3873.2893,8552.164,-3432.5024
-1029.4121,2647.1367,-845.3482
-110.39829,542.5624,-873.7737
-1899.0828,-273.305,-158.09982
-922.705,-962.62177,-301.2239
-1397.7896,-1560.9818,-605.43823
-1149.4475,-1989.4822,-459.6201
-2337.689,-991.19775,-323.95187
-3369.0144,842.9244,-1494.5703
-5495.2227,8399.945,-1274.3657
-1203.2784,4740.794,-277.66608
1301.8835,1015.5184,-823.60376
1574.923,418.9385,-186.31668
1386.5063,-307.26212,65.322914
1549.5946,183.82658,274.7311
914.9741,-69.50568,501.9524
976.5596,229.61038,96.81197
425.61005,-328.25143,242.18402
667.03375,3646.8635,-1887.5255
-4083.635,9031.238,-3102.8237
-1385.4021,1698.7129,-517.8893
-289.91818,816.45856,-629.61
-1364.2754,-107.89901,-44.053722
-1322.0962,-767.45087,-481.92902
-1542.3091,-1763.782,-722.2622
-1356.7136,-1777.6274,-602.3701
-1965.5061,-940.84045,-170.32726
-2879.0754,1628.1393,-1457.432
-4820.7544,8863.16,-1244.4086
-158.90567,3976.9097,-447.2579
1374.6627,455.0733,-397.9814
1024.1984,82.463844,-3.3637042
973.71747,-975.10706,259.36926
1105.899,-507.29385,225.85893
1135.2441,-957.77124,653.52
1027.3949,-50.727173,-303.27124
820.2757,-820.95215,468.7132
1111.4307,4601.735,-1448.4221
-4119.6475,9569.735,-3249.8103
-703.4444,1198.76,-342.8328
-874.71875,816.8138,-857.4749
-1379.2019,-870.76917,-110.75841
-945.6441,-851.1235,-496.70685
-1347.3022,-1957.8691,-889.6764
-1482.618,-1279.8695,-419.03085
-1848.1658,-749.45544,-422.51233
-2836.4617,2243.1448,-1125.1041
-3998.7642,8024.641,-788.8625
41.384193,3582.4475,45.716347
697.88055,980.926,-47.354767
947.32367,394.5161,42.307205
918.14264,-455.09982,195.23299
1517.0762,152.9273,151.82608
1302.0846,-431.20303,215.35864
1291.3129,218.33649,50.469913
793.66583,-357.6149,-15.444626
1209.452,3176.5369,-603.0245
-3872.2544,9437.641,-1534.7194
-1499.2445,1949.0015,-189.7149
-929.74084,1122.0323,-293.60666
-1520.0299,-449.96536,-591.6469
-1148.493,-846.7457,-758.39484
-1428.5939,-1225.7482,-896.91315
-1454.9198,-1099.3356,-172.36328
-1623.6927,-546.6462,-293.01694
-2986.2244,936.2403,-457.8577
-4802.332,8187.213,-507.30463
-80.391495,4500.7344,-67.12226
745.97955,404.15906,25.193504
1093.6572,751.6083,-17.828842
1126.7637,-625.9163,-183.99966
1372.4631,422.33316,84.81441
1831.2318,-446.17117,268.31857
1962.8218,780.0169,148.08206
1441.6615,-916.73584,-153.91287
778.4885,5698.058,-767.2901
-3843.3186,10341.415,-1632.3264
-1709.82,918.07635,-484.74863
-1439.2897,1111.0493,-336.56824
-1475.9374,-692.4451,-390.76627
-1185.5186,-545.10046,-432.95163
-1261.4933,-1323.868,-430.74554
-1253.4565,-925.4954,-308.1272
-1883.7255,-371.1687,-62.03342
-2076.681,7.634509,-686.7101
-4484.452,5751.91,-835.42346
-2100.9353,6188.2017,-383.45557
901.80835,1250.7598,-477.04733
872.0771,758.835,-241.4074
578.0116,-6.2355437,31.670635
1065.404,87.33736,-447.79727
1294.9308,-503.88986,-202.63943
1559.9183,-33.685932,-329.55536
621.4307,-1.5950435,-144.85307
1739.7158,553.0596,-669.0003
-2271.0483,9064.261,-2493.761
-2335.0793,3928.6191,-869.4077
822.40326,190.65071,-278.0671
-2118.0137,687.1868,-234.14836
-960.7055,-1022.2051,47.25938
-2055.4053,-828.9673,-264.06348
-1089.6313,-1506.7844,92.3038
-2244.266,-399.59116,-166.96323
-1384.2987,-796.3067,-513.71045
-3926.5261,4323.059,-2967.5806
-1830.6387,7545.7104,-2750.2104
-325.69553,2294.53,-625.3138
1105.924,632.9322,-1549.0254
1555.8641,-326.90576,-766.06256
1687.5414,-355.25198,-347.26486
1162.4874,165.36594,319.69818
1216.2462,-225.42902,-160.2888
