# PAMAP2 dataset (wrist-mounted sensor)

acc_x[mg],acc_y[mg],acc_z[mg]
-796.48865,-628.8591,-107.1141
-1041.5879,-220.6721,42.969322
-1341.878,-4.626943,37.382324
-3449.4678,3342.5393,681.92426
-2516.7139,4595.7227,614.6471
-473.27057,2047.5413,186.72252
196.3977,1289.2057,139.88165
759.14856,391.44586,15.169742
710.93494,265.78796,47.886185
690.2753,330.46252,15.470389
612.69696,296.24213,-3.2731984
554.6549,503.6251,-65.38027
354.0256,974.7871,-83.38638
58.7883,2760.9353,-283.08994
-1152.4868,4228.2964,-276.72375
-1580.1256,2934.365,-98.02362
-1447.4988,1694.6177,-46.732555
-1095.5348,709.04395,-42.30212
-1001.0296,83.66592,-10.170259
-924.4742,-357.7879,-43.62753
-1061.1527,-516.80347,-2.9950101
-849.84467,-613.1256,-49.704155
-1010.7443,-498.0873,45.740776
-952.64557,-147.40184,95.06285
-2253.993,1058.6063,209.52776
-3327.25,5323.8613,471.22928
-1006.53394,3436.987,143.17165
-42.077084,1416.2058,18.523478
482.57437,889.4241,-12.479368
619.2779,145.08577,-45.212772
760.38245,264.69516,-57.123642
568.11975,432.22028,-45.539623
584.4847,819.5959,-62.3888
414.85626,803.34845,-141.8911
541.2908,1068.9255,8.001489
9.906397,3702.4595,-197.8775
-1262.5867,4425.531,-136.71846
-1262.6195,1692.5741,22.442322
-987.231,892.36597,-43.014324
-1095.494,147.93288,-1.3717059
-964.7993,57.691044,4.780243
-944.1854,-251.62782,-8.885829
-787.9412,-263.37482,32.992767
-840.39685,-716.5165,83.68925
-864.892,-53.99161,113.424995
-1591.4025,702.08527,223.44423
-3059.2646,4499.0186,595.3208
-1350.9221,4016.4363,275.22546
40.93013,1600.4103,100.80219
527.12537,1049.6184,69.74427
764.7903,225.01505,6.2524076
849.5273,197.46051,-21.469812
680.1031,133.76184,6.4445496
593.62225,459.18738,4.2168026
465.31253,585.8886,-52.614933
388.96536,2252.653,-184.26166
-457.73294,4266.6104,-333.29697
-1296.3743,3499.8572,-212.81427
-1455.308,2139.8733,-115.55967
-1089.7133,850.0629,-103.01781
-939.2247,62.482426,-42.66605
-830.692,-307.19162,-60.488167
-997.0887,-446.17215,59.123764
-950.924,-538.9668,51.211254
-1028.9026,-421.93982,78.958626
-1012.56683,-163.7891,46.499573
-1935.51,654.8908,98.25321
-3398.2505,4673.008,629.0957
-1255.8826,4138.299,284.4717
-47.35769,1555.4161,140.23491
446.08374,1020.6394,141.75146
638.5966,169.47424,34.776627
684.5343,336.89502,38.741524
603.2556,149.08455,63.8007
622.2186,434.61026,39.42532
485.108,567.0854,-54.39324
420.95718,1573.6908,-102.91226
-107.79292,3709.7031,-264.7481
-1292.0419,3887.9087,-169.68163
-1411.2666,2199.6357,-45.361584
-1159.0907,1301.0286,-50.70438
-1034.5393,253.77386,6.3161025
-940.2949,-153.42273,-28.904415
-797.8674,-587.9617,-82.88931
-845.054,-431.0894,14.5817795
-855.5296,-595.64636,42.23482
-946.6306,-10.587395,195.40761
-1242.9391,-62.897644,38.89857
-3210.3115,3749.435,664.95154
-1982.1719,4738.509,582.2971
-178.70667,1842.9989,229.70076
235.02475,1220.1514,261.42258
532.395,311.53052,61.237698
563.90967,100.40053,10.578241
670.2822,38.648613,-49.325603
643.6016,152.95087,32.94549
619.95703,388.5552,-32.601086
542.7675,765.8815,-102.84949
96.0833,3324.989,-372.4339
-1092.1985,4175.8193,-342.95084
-1301.1014,2680.9062,-70.67474
-1234.7604,1581.8188,-6.0925827
-938.81476,448.46667,72.19682
-963.0376,-17.977074,3.0494416
-896.5324,-406.04153,31.859678
-980.86084,-524.8433,58.471004
-849.1227,-548.6221,-52.532368
-1112.3976,-237.04369,134.0001
-1090.0404,-170.2248,168.2657
-2558.778,1679.937,191.24202
-2990.8765,5212.263,571.63226
-604.5394,3072.7764,170.15428
85.54858,1491.6617,153.81015
579.11993,669.12726,97.88176
607.01166,91.25493,48.228455
689.7883,116.67282,-35.224163
597.89166,76.22948,29.344774
615.27527,364.02844,-29.896496
533.5166,705.08203,-104.05129
164.6257,3036.4036,-330.43466
-905.08563,3945.9192,-421.77148
-1288.971,2888.6384,-128.09117
-1311.9434,1798.4781,7.0782375
-985.62726,555.45764,63.34744
-955.55646,22.364323,61.851757
-801.06305,-407.65533,39.38335
-888.1003,-400.72925,79.34413
-762.6737,-633.71515,-10.352883
-955.1027,-322.916,38.29077
-1036.6298,-45.392952,16.017889
-2531.8132,1905.0636,294.9697
-2763.1567,4718.688,640.4903
-619.7429,2720.2712,213.26105
-51.693832,1342.8678,122.90635
437.52548,680.901,92.25477
512.22,243.06651,49.56535
644.1235,291.71835,52.619946
577.4942,161.1217,105.79129
592.8314,310.81497,62.623497
444.02686,440.45648,13.98716
375.78812,2106.976,-172.28712
-538.14246,3904.1477,-422.83212
-1331.6166,3345.9526,-354.35376
-1270.6519,1896.3246,-188.74455
-1024.6086,824.3663,-114.6091
-857.03973,136.02145,-52.013493
-767.89545,-57.924576,-83.841606
-939.4167,-474.3767,-7.106892
-870.4521,-468.9742,-7.0319796
-1003.664,-445.67413,81.89548
-989.54675,-63.553272,81.41443
-1837.8451,371.12164,245.63696
-3574.703,4389.091,777.5576
-1565.7572,3467.7783,347.99603
-204.01608,1574.5519,38.65015
375.1309,1299.333,-26.777376
609.067,328.46387,-66.9145
779.6018,292.08405,-73.108215
671.4364,241.12698,-50.915546
647.99365,466.59293,9.376282
445.98477,616.46906,-86.13605
304.33545,1487.9706,-141.28983
-268.2203,3443.198,-101.55353
-1095.4867,3677.8215,78.042915
-1128.6318,2391.556,255.43433
-1086.3799,1369.3788,227.54832
-1018.8276,318.42233,115.13775
-1073.8269,-149.38612,122.47437
-991.9747,-533.33356,261.26538
-890.50073,-468.69342,178.94633
-899.09155,-509.45343,-32.04951
-1021.9483,-215.57874,88.33035
-1493.0272,297.48917,-21.704395
-3098.3416,3823.4258,404.65527
-1789.2688,4048.4194,345.31958
-238.65297,2042.5624,88.75096
184.00807,1330.3347,125.48372
577.1946,405.60477,-5.858193
644.0312,198.65959,12.2609825
666.4907,251.00858,-0.74452406
608.7886,324.88577,112.3366
483.19315,519.92236,42.957447
368.38544,1098.3566,-61.906033
-184.27744,3201.204,-266.89188
-1327.6003,3780.7334,-187.88623
-1437.2667,2378.8652,-139.04298
-1279.7627,1350.8672,6.6517735
-908.67126,478.42392,2.7013378
-841.7442,193.34744,9.288968
-702.09644,-372.43198,-12.618765
-885.05835,-415.84036,51.298615
-728.73914,-563.88385,-83.12663
-1008.96783,-254.24768,51.204563
-860.5182,-154.15112,-20.724255
-2354.1182,1999.0767,343.53644
-2612.9675,4986.9814,595.4817
-503.49976,2357.6516,25.963354
75.04702,1294.0082,110.87548
499.45377,687.94855,63.54345
469.29337,129.3673,53.09452
733.4467,13.907526,-18.503006
594.9147,79.86237,51.493702
673.31067,371.5719,34.746544
411.91397,708.3195,44.32336
336.8598,2561.461,-237.36414
-940.75195,4190.4287,-189.77242
-1486.3094,2992.7776,31.13171
-1327.5048,1579.7762,220.77629
-1022.4646,756.7121,82.5719
-910.3063,71.44194,-85.37393
-751.23584,-292.9952,-218.4291
-776.15027,-534.53046,-224.17844
-687.2469,-472.89404,-249.9031
-909.34283,-372.78653,37.54553
-1047.8424,-68.04563,116.53291
-2136.5725,704.26373,416.6719
-3346.791,4263.588,1020.3625
-1087.939,3765.4275,292.19785
-82.47705,1239.7603,284.551
576.26483,691.3818,82.98991
853.4231,78.83416,9.493278
810.4394,248.49005,-116.82278
609.5103,210.68063,-54.84883
471.43564,306.60236,-29.37135
496.5192,817.5216,-73.43983
-2.7239892,3273.7114,-234.563
-1227.8784,3943.8652,-183.03331
-1030.2711,2474.632,22.93248
-1128.7465,1688.5765,116.23214
-1085.1501,618.7715,129.02817
-1008.7251,-18.484964,42.600216
-795.4055,-508.86322,-117.75325
-877.1775,-479.6283,1.4316328
-764.0927,-477.07523,-55.505566
-907.573,-83.189,-55.206673
-840.82227,-32.222034,-92.05279
-2215.4219,1726.7856,307.47647
-2736.2183,4612.6,711.8013
-812.452,2593.0542,129.42683
8.464728,1379.3401,19.125536
420.57806,848.15497,21.907654
546.2776,249.55806,32.41123
737.6507,122.89688,-95.70879
627.414,220.59294,-82.29792
670.9559,410.7465,-79.966064
471.66855,682.6591,-47.343143
109.55543,2910.1194,-274.0554
-1208.6456,3903.1157,-226.94759
-1414.4427,2644.7354,-62.72024
-1296.4984,1690.5496,38.939445
-1130.4435,760.5082,16.685413
-1087.3145,17.857159,-102.99412
-892.0013,-286.86493,-98.40306
-872.3962,-260.30023,-17.640759
-721.0167,-146.59824,-104.282265
-914.3913,-272.43356,-21.839268
-612.7114,-448.9263,24.499733
-1864.4592,955.4905,530.9322
-2804.202,5213.0845,1004.33997
-815.11566,2986.2437,413.38342
-45.05517,1031.7607,163.95016
519.80884,682.2911,-11.085191
574.5291,34.874,-19.360895
765.6104,91.66886,-90.49779
650.56415,88.35698,-81.98829
706.37976,315.09186,-96.91993
533.39984,569.33746,-105.244354
333.60168,2907.6494,-372.61273
-390.05255,4472.652,-345.27982
-868.2484,3183.317,-39.094097
-1113.6776,1447.2382,7.8435535
-908.9604,608.252,90.14339
-932.5212,261.3905,38.85033
-914.58777,-130.04564,-63.02266
-1006.3117,-362.61838,-42.37831
-861.7405,-515.09106,-32.063385
-962.1681,-292.64847,80.41715
-841.0374,-145.4117,23.942444
-2356.1501,1931.846,178.8726
-2736.409,5236.215,541.62976
-605.6644,2651.3477,172.84009
102.213264,1294.5859,111.568726
516.9834,537.95764,47.56365
513.7818,83.29205,36.621517
682.5258,9.593944,-32.241104
554.1207,74.10035,9.823185
699.7647,256.2839,-15.883301
503.4872,478.88068,-9.752309
480.71512,2267.4512,-217.51729
-569.4169,4348.938,-373.43143
-1311.2925,3116.7312,-159.76805
-1260.253,1837.1694,14.846546
-1117.5275,798.54156,78.99283
-1071.007,181.3769,86.573586
-894.96906,-274.63046,0.6377444
-826.2755,-424.97992,58.404057
-704.3894,-548.9914,-18.054207
-883.07166,-276.58224,70.07751
-742.4973,-156.40138,-31.273897
-1866.3816,1257.76,170.09178
-2950.7373,5060.592,685.2212
-869.01544,2865.3745,215.21461
48.150135,1350.1538,42.208576
567.39246,803.36237,6.3910418
659.3773,23.122395,18.395613
756.92566,139.02531,-6.4907537
575.92694,64.91501,-17.696503
631.96094,357.19525,23.48337
442.7229,471.538,-2.883413
403.93768,2514.4211,-238.16
-890.1143,4419.306,-410.52884
-1381.7278,3002.259,-224.55273
-1191.7837,1661.6783,-94.89556
-1024.594,889.57965,32.11681
-897.7855,135.89124,40.882725
-854.5557,-193.79376,-21.81115
-902.45435,-574.51135,88.61607
-883.56525,-525.39014,90.22246
-964.7996,-463.18314,32.941437
-975.91064,-22.876348,36.76461
-1687.3113,314.5861,111.15905
-3668.5896,4585.3535,606.41205
-1662.5222,4340.858,190.5179
-133.0368,1352.3772,22.98544
390.1412,937.29913,-27.8198
602.41986,71.53321,-66.35304
683.1185,224.18951,-101.08778
667.5426,59.214523,-76.530014
606.90515,346.33557,-17.208282
467.79892,459.7221,-1.8941158
388.48563,1380.1644,-167.16222
-132.02194,3706.1355,-271.35483
-1387.0785,4606.324,-292.22665
-1459.438,2410.9722,-135.33597
-1161.43,1251.5776,-66.90849
-1017.0317,179.63315,-105.236885
-1033.6935,-187.1593,-116.29433
-866.14923,-628.03735,-47.061733
-870.0098,-578.1165,-10.700949
-941.85254,-592.2669,-66.78068
-1167.9728,19.713982,105.85722
-1363.5211,-11.769585,-49.28019
-3343.2869,3730.8936,450.36533
-2273.0586,4784.995,434.27487
-284.5212,1673.5887,59.78088
291.59808,1231.8054,82.17532
626.71387,336.01566,0.27814582
639.5361,346.3237,14.365077
685.4468,184.48474,-53.572872
643.0321,389.7104,81.4279
492.38843,662.92163,59.854046
256.70694,1602.3668,-45.838432
-203.04369,3214.9165,-226.3415
-919.7491,3746.2095,-225.03865
-1217.3546,2638.2583,-202.77826
-1103.9294,1316.3152,-101.59068
-916.56586,476.13425,-178.32127
-981.92255,-47.30806,-179.1137
-911.09,-565.49274,-209.76903
-903.6253,-618.3872,-122.40823
-905.86255,-587.0808,-125.34276
-1013.1044,-209.99881,80.24248
-1306.6704,249.81183,15.666499
-2921.2295,3005.062,521.8626
-2212.937,4062.909,697.5566
-789.26654,1994.4579,262.35654
-16.397213,1461.2017,40.36192
491.1252,748.3269,-34.876766
775.56,672.8945,-46.83571
819.33124,527.6704,-216.74089
621.83405,557.58795,-193.2146
384.7662,839.1654,-147.39626
-24.894106,2087.2456,-157.91364
-647.14154,2378.2725,-85.72288
-964.7488,2686.369,146.43056
-1292.6101,2628.7988,286.78976
-1234.1396,1255.5984,179.41667
-1130.7618,176.44113,161.75264
-1092.9779,-248.0209,130.07176
-943.7444,-536.1796,53.901867
-974.2476,-508.9759,-23.971533
-1058.8856,-388.1254,-12.217171
-1072.1891,-87.53859,-34.91768
-1760.7771,312.27267,38.075302
-3493.1494,3654.5522,688.9648
-1837.9789,3710.5518,422.8088
-351.77933,1662.4194,74.63677
466.8708,1179.1371,28.323498
779.4589,342.18185,-68.30638
898.226,508.52136,126.3422
755.88403,334.1569,-9.214332
642.98444,359.25235,-90.09364
326.04602,583.98444,-74.99021
256.67233,1661.1118,-430.35852
-288.03183,3536.6304,-649.07715
-1256.3729,4213.631,-707.3493
-1415.9753,2551.4429,-557.66754
-1230.0653,1309.5127,-151.84995
-979.20917,298.47668,-217.68526
-913.247,-415.42798,-199.87045
-891.1708,-923.84686,-108.036896
-989.55475,-525.64886,-25.286335
-1089.8169,-351.98483,-95.5912
-1155.5474,-165.58432,0.42309865
-2032.6737,499.23236,30.451246
-3643.3496,4418.811,929.1156
-1693.5671,3758.3062,450.77707
-306.09055,2006.471,146.19316
422.9916,1168.7999,155.52145
766.95276,269.65622,-47.73113
860.8622,401.6549,-79.60598
740.9702,413.56943,-87.14862
663.4962,520.2328,-23.796373
478.89825,619.6519,-109.25157
332.9169,1898.5771,-179.41493
-421.4294,4159.307,-362.11627
-1262.913,4289.8965,-242.99881
-1408.9292,2378.758,-67.215256
-1191.5276,930.532,13.947022
-1097.2275,75.296074,-33.244858
-968.67615,-389.53198,-107.27709
-1006.8813,-650.0647,-106.218346
-942.6414,-585.5876,0.93952364
-1037.2571,-422.6953,28.358541
-1090.0903,-80.6658,-48.540394
-2008.9758,523.6713,-30.042858
-3949.096,4819.65,478.82434
-1712.8561,4406.776,191.17921
-33.788696,1614.0667,-38.917755
511.5381,1217.023,-32.33468
770.3472,129.44087,-30.96454
887.17944,414.28397,-57.03762
804.5408,331.44894,-78.706
697.1233,604.9591,-23.504938
480.7849,539.6001,-58.5821
299.30057,2060.4255,-90.24482
-170.85083,3598.9373,-347.5653
-810.6711,3932.5793,-227.95679
-1215.5085,3032.8713,-56.08516
-1090.4768,1144.23,-86.52651
-1011.945,201.27888,-9.59436
-1049.8625,-431.89062,-55.71806
-1027.5747,-680.048,-28.768173
-937.4915,-639.61053,2.326732
-1112.1715,-284.3047,60.0085
-1151.78,-116.85252,-87.32349
-2354.8115,1027.7948,-9.948382
-3458.7139,5046.8794,709.97174
-1262.3295,3540.3645,199.21007
2.071838,1762.3862,66.018295
567.4232,1206.6592,-62.966843
744.51874,380.36383,-84.22052
869.10114,394.50107,-145.10144
793.3353,233.63368,-182.61893
658.4685,630.25244,-74.773605
500.04587,801.33417,-116.81023
325.38373,1786.505,-213.33208
-546.83325,3999.7375,-362.33594
-1216.7053,3992.2505,-276.33755
-1488.8835,2320.2305,-162.57861
-1264.2456,911.91754,-87.82595
-1034.0492,102.25201,-52.33026
-1056.5118,-208.67723,-87.93444
-1031.05,-473.59784,-8.112154
-960.13983,-424.69464,-20.575943
-997.2866,-520.5326,29.51333
-995.92584,-0.65680283,43.75011
-1555.9417,132.59161,65.52873
-3570.8513,4029.3762,448.34937
-2080.2375,4675.8223,219.28276
-212.17184,1740.8983,-56.93233
456.54498,1298.4961,-8.742836
700.6321,234.74971,-14.076624
822.5956,244.60402,-23.03975
725.0051,120.888664,-58.562504
665.0187,464.1406,25.685154
553.15967,542.5299,-47.4055
402.17212,1705.3988,-221.85126
-320.44193,3931.4463,-429.11508
-1540.4279,4176.9824,-346.97302
-1519.3287,2315.2397,-140.47276
-1357.4757,1127.6582,-92.17879
-1108.1271,10.743125,-44.26978
-1072.8297,-248.39182,-9.056798
-977.78784,-537.6856,-20.529093
-966.15985,-485.7717,120.756424
-971.12024,-529.5176,132.36716
-1034.4176,-192.20735,215.1617
-1607.3126,251.30492,-108.40594
-3539.3953,4328.813,928.8186
-1987.6405,4089.5732,628.53674
-258.1441,2080.392,-39.809296
404.86655,1329.1082,2.7585573
769.1959,212.62772,-119.33067
893.1787,291.30716,-144.94273
788.368,387.24493,-184.36171
757.3956,482.61902,-109.841
588.80286,617.8451,-134.50392
376.94275,1984.6821,-169.73857
-681.2918,3991.5713,-259.1796
-1546.2108,3511.5767,-97.23112
-1324.9213,1931.3424,-30.854214
-941.97925,994.09985,-15.989018
-895.0432,236.82103,-41.70131
-869.0799,-231.92383,-97.58989
-921.86816,-536.64746,-146.88667
-942.7009,-487.189,-94.991455
-1022.8895,-404.36963,-20.589912
-1027.959,-236.83145,-30.737282
-1992.4427,742.4729,2.1436963
-3345.9233,4271.556,585.3194
-1514.5284,3657.5552,247.12108
-117.69709,1518.7305,-28.00302
522.52484,1000.62854,-62.94256
773.799,348.45743,25.310833
813.71436,350.34247,-13.8967705
645.57214,353.34012,10.801172
540.3508,593.15625,97.47798
419.4313,572.7599,38.23052
397.0518,2063.698,-315.36157
-529.6523,4293.1206,-556.679
-1456.9777,3797.902,-419.11386
-1440.9249,1936.88,-252.98622
-1137.0702,798.53143,-85.34399
-1019.58704,29.081827,-4.6096787
-1023.0833,-322.64587,-18.253326
-975.30115,-579.1665,-3.1566937
-919.6563,-472.74625,5.5955296
-993.1005,-303.58524,58.340755
-888.39844,-37.287827,115.47803
-1618.1146,788.65436,29.238867
-3093.8386,4443.6064,601.4419
-1361.8722,3758.6067,327.88733
-40.916954,1568.8184,26.581654
357.1904,1083.8131,91.56234
683.89636,304.49353,57.839138
737.72205,315.1463,3.1429331
632.04785,193.22511,-4.532314
751.7082,503.6248,4.997805
578.3303,732.945,-51.408775
404.39706,2112.882,-261.37637
-488.12915,4075.721,-400.33536
-1005.0773,3538.418,-102.19645
-1055.8221,2236.3735,56.388203
-1110.4081,1114.1731,8.6944275
-1250.681,276.9048,-95.26005
-1167.7574,-149.60968,-148.06137
-1113.8958,-296.68634,-86.45503
-999.5098,-275.71964,25.84965
-1049.2413,-438.83023,-44.573215
-1068.9197,-264.8215,10.994019
-1573.8846,437.7455,-106.90218
-3169.9365,4401.8477,397.55927
-1768.8667,4556.313,259.91827
-159.37762,1819.6248,-31.244366
650.905,1203.7239,13.53026
901.0814,362.52548,12.329539
907.5128,295.5982,26.794027
738.735,226.87747,0.70959586
574.3275,548.8172,99.74758
345.07745,682.19086,27.769773
166.49785,1667.267,-167.68599
-401.96594,3704.17,-205.60994
-1493.9296,4156.659,-128.33118
-1399.1642,2242.7053,-94.608925
-1168.2098,1274.9075,9.200345
-910.59454,324.44666,22.479172
-918.538,-29.602762,33.17632
-868.1525,-532.8485,21.525473
-980.2976,-489.28485,97.62105
-888.9761,-577.7748,-32.13113
-1092.0009,32.167374,134.91443
-1045.4795,-238.31358,-68.572495
-3071.5334,2996.863,528.82324
-2628.3845,5307.0337,690.10803
-401.11472,2041.6265,70.78624
237.13963,1591.0132,155.19919
578.76807,466.59778,-41.83409
714.35394,147.78091,31.302439
765.14343,179.30544,-26.25801
625.77094,345.8494,79.69279
608.30774,472.53082,56.189377
363.18564,839.6247,-7.878886
176.26535,2423.8472,-240.84003
-794.10706,4151.282,-345.7601
-1512.6823,3386.535,-269.3068
-1432.7415,1566.2196,-258.62872
-1022.21747,737.04553,-200.08559
-972.25024,196.47195,-107.2953
-803.075,-189.108,-93.087776
-867.9225,-398.11285,23.636633
-829.73627,-461.53464,-0.20557162
-957.411,-438.65805,26.428741
-748.78644,-165.7415,60.469635
-1636.2015,681.22186,77.70577
-3109.0234,4589.027,521.7274
-1277.2174,3562.7007,124.91859
-55.703102,1443.738,1.9005121
438.8106,1077.7219,73.00632
581.9045,103.56095,37.21306
736.19385,149.26668,42.174927
672.0549,104.462105,38.247536
771.7305,454.76904,-14.52021
573.01855,362.12488,-56.384842
430.4364,2138.917,-181.12572
-646.71533,4241.98,-413.76416
-1648.8358,3631.676,-248.75824
-1647.3699,2198.3787,-77.54419
-1277.2512,912.7126,-57.68926
-1111.6804,36.008724,-95.878395
-911.76654,-407.3527,-134.11046
-727.9973,-640.9196,-66.726265
-676.14307,-515.3949,-134.68463
-931.2183,-450.5498,-7.287495
-876.31,-185.42078,-104.97196
-1688.6562,412.96045,-49.450356
-3493.4612,3879.1582,555.14594
-1899.912,4038.6372,288.62506
-350.7157,1803.5431,120.48285
357.22745,1033.3159,27.853558
714.0888,342.0487,52.674347
849.6085,457.90848,59.00112
788.1258,272.3258,30.809172
742.1298,393.0334,-18.663622
435.6971,664.6121,-15.355961
384.71393,1969.7755,-257.6746
-610.91876,3966.733,-598.4983
-1619.9053,3710.57,-334.78278
-1493.819,2124.8557,-172.43172
-1215.8359,1020.6276,-182.7557
-899.7123,113.13222,-106.752205
-825.92566,-269.23483,-58.360836
-846.07806,-647.06305,-78.26227
-754.8805,-562.82587,-146.17221
-920.3626,-485.48727,-83.147316
-981.1514,-207.7615,17.427797
-1802.3126,571.3025,-29.610668
-3450.308,4629.4937,726.2631
-1542.5869,3970.955,377.7937
-65.47109,1324.1929,83.47674
460.31955,960.3922,112.568924
655.3526,224.00075,50.830025
765.7691,269.28177,37.07588
626.00415,191.26724,84.31487
605.88336,447.50934,153.77353
462.79172,462.60516,107.6796
384.12943,1853.161,-104.34178
-329.8152,4173.0474,-427.0954
-1515.8179,3975.3538,-181.12242
-1506.8337,2185.1978,-104.991325
-1243.726,1011.11035,-81.152565
-1108.0905,158.05264,38.88752
-974.75116,-280.00882,-28.050241
-870.6834,-586.7966,-113.95044
-780.57697,-582.7251,-116.79721
-885.7826,-505.61395,-34.653103
-898.6295,-188.08978,50.951984
-1715.9553,560.43964,-74.25789
-3327.4622,4713.8003,108.217415
-1288.6421,4365.2725,152.0995
96.01146,1793.9723,42.08541
670.09564,910.0905,-48.123173
722.1189,19.165466,-38.475403
703.11163,88.29295,-80.8639
605.22644,88.30801,-29.450584
522.684,385.373,-19.562735
506.39136,655.5112,-108.41877
414.1396,2211.266,-447.8319
-149.32428,3691.046,-847.6423
-587.1051,3529.0085,-633.85474
-1081.8146,2367.027,-360.15225
-1024.8019,1061.5397,-209.3433
-974.1176,185.24437,-198.88431
-970.38116,-187.05905,-119.77936
-1040.0345,-346.86722,92.019066
-1018.2273,-423.6702,127.59692
-1060.6378,-437.17084,33.931274
-966.72595,-182.8775,-44.557755
-1932.3857,749.3377,52.858456
-3551.1433,4951.377,792.7048
-1409.6156,3883.3035,260.5645
48.147903,1579.2766,-19.823107
608.57086,1174.6351,-40.813866
769.2384,206.97403,-67.855194
825.83405,386.4738,-80.99202
706.72186,232.01389,-53.316803
693.1847,351.9251,-35.487827
424.1992,454.28018,-0.0850425
380.41647,1853.3035,-83.28357
-175.27396,3697.7354,-351.32327
-834.96234,3858.123,-144.47882
-952.053,2608.6182,-37.284252
-1054.2822,1530.9081,-65.993454
-1069.8474,475.78778,-53.42785
-1154.25,-96.204124,-116.17218
-992.5684,-681.96936,-179.10133
-1014.657,-556.95135,-58.092228
-1002.34796,-518.1746,27.360054
-1063.9419,95.27687,55.423523
-1400.4038,-56.738354,55.074974
-3458.5068,4482.7065,530.92725
-2015.7758,4840.325,291.6149
-54.715286,1467.9613,31.670326
443.0825,1418.9363,10.537233
787.2886,212.45497,-44.56086
794.9975,315.55188,48.498302
790.20715,123.57115,-5.21743
662.5578,469.24435,37.62935
581.9727,438.86588,5.7705755
384.6995,1429.3574,-55.459232
-63.45132,3652.5588,-311.5759
-1065.6505,4505.574,-288.85437
-1372.5527,2689.6694,-182.89778
-1175.9899,1321.6759,-103.93891
-906.42175,282.41986,-109.413734
-896.0426,-149.27371,-167.18823
-881.2554,-537.7446,-73.675766
-1017.5413,-431.05167,9.450048
-1011.1563,-621.91345,-74.08212
-1117.5088,-113.96006,-3.6599362
-1371.9861,8.563899,-31.426373
-3158.1345,4000.6245,379.42712
-1933.201,5017.381,263.31613
-88.91877,2006.9749,11.016694
400.61136,1246.9711,34.696465
667.70374,246.9936,-18.672781
748.2589,134.79485,-35.644672
720.9219,141.28552,-51.974834
679.7839,246.93495,56.135616
533.4553,404.95685,94.880646
449.00098,827.2374,94.13849
172.75812,3389.631,-143.57726
-1099.8486,4414.3896,85.22552
-1158.9014,2439.5225,259.53854
-1110.8151,1661.2333,180.15512
-850.65137,428.05658,95.74901
-817.1742,2.3911607,-7.0908747
-771.2554,-649.7244,-200.86848
-877.7964,-448.19662,-89.33228
-810.30505,-540.5441,-18.973316
-1024.9591,-51.97327,61.723194
-1161.27,-124.64604,-163.65398
-3024.5532,3520.971,301.79083
-1960.5062,5060.0356,433.97345
-156.35248,1915.3134,139.68605
338.8941,1121.5933,161.20651
792.0994,158.76065,92.70605
727.74915,84.34535,119.95641
711.0216,134.63863,76.51657
650.93524,267.89053,165.30138
541.6203,310.09943,134.35991
365.23102,1100.008,45.53508
197.94601,3368.1416,-224.47696
-900.0048,4296.4565,-181.0232
-1420.2203,3049.22,-137.11076
-1398.8223,1348.4249,-14.650944
-901.95245,443.29868,-40.868404
-793.87244,13.930959,-62.182095
-598.9331,-274.38885,-170.88321
-678.91766,-384.03714,-184.58151
-582.8346,-425.08942,-212.26561
-866.5408,-179.4362,37.609097
-787.6402,39.446346,-9.98978
-1989.1869,999.2533,69.842354
-3126.001,4868.964,818.89764
-878.11176,3521.2703,305.87177
112.357895,1593.0082,233.47131
634.70184,930.2538,75.37676
873.6521,-14.443609,-68.303024
950.93463,224.90594,-125.50735
786.8026,253.48666,-133.55403
724.942,578.4491,-58.088203
403.4528,649.12646,-96.92071
247.02974,2346.2732,-252.55676
-798.6141,4340.342,-334.5346
-1394.2142,3593.9243,-211.77481
-1241.2437,2072.4414,-83.73056
-1028.4253,1073.2401,-91.69602
-928.8444,78.55886,-166.19632
-845.6845,-246.7677,-143.08757
-840.5215,-476.032,-65.22636
-851.2664,-433.53265,-28.248457
-1015.9739,-445.74506,5.5002093
-968.2932,-115.86706,118.66251
-1814.0854,407.85776,24.592947
-3565.0388,5073.514,445.0654
-1414.6678,3997.7053,282.7238
-15.01124,1437.4292,-59.874386
604.7293,1117.7141,-42.25992
763.3355,191.21025,-25.857964
776.74634,366.48193,-23.103012
675.11017,243.729,-34.956493
672.3751,477.9724,36.257206
487.91025,448.8579,-87.066055
427.73297,1781.1737,-188.97556
-400.93323,3956.43,-465.44498
-1216.4292,3744.8252,-558.6677
-1233.6832,2177.456,-283.7057
-1100.8129,1209.0889,-128.56482
-975.376,280.8585,-128.9138
-817.8465,-133.87077,-100.42594
-1031.1823,-388.51175,-42.126064
-901.39575,-701.8873,-46.457798
-1035.8606,-737.21545,-15.66312
-1000.53186,-86.64641,35.301155
-1705.6882,276.78445,293.70465
-3383.5488,4423.977,830.7781
-1500.8337,4404.045,331.08206
-169.16759,1723.5294,113.12207
434.3066,1230.5374,50.546623
672.6517,347.45407,6.9694633
872.46454,225.60916,-65.62086
731.36584,245.97212,-52.945587
631.1082,586.01526,20.715986
436.09235,766.7322,-51.859303
419.35632,1223.7932,-253.9156
93.53343,3260.7043,-341.7753
-1002.6386,4126.0884,-352.12183
-1305.6172,2242.1782,-123.08587
-1144.0801,1439.7399,-60.80323
-1023.5002,501.35764,-40.96643
-981.62463,35.919872,-43.30448
-948.7107,-545.7556,-80.939095
-927.08344,-511.40775,-19.816502
-978.477,-505.3914,95.80472
-978.8704,-116.06686,111.11314
-1687.4475,512.93835,-13.117235
-3200.3083,4269.1187,504.1421
-1372.0244,4099.9355,185.85278
-17.669922,1708.0764,-61.621716
496.1019,1041.9744,-106.91031
652.3633,343.57803,-130.44061
778.7194,291.9306,-124.460236
684.4647,331.3657,-97.57083
698.73865,368.95172,-36.31489
538.99335,635.6599,-44.323044
431.4391,1879.6274,-146.26132
-148.51613,3722.7583,-305.89917
-1141.7019,3770.1335,-216.6944
-1451.395,2050.0217,-192.52966
-999.0052,813.08234,-53.67929
-866.5364,315.4865,11.00272
-804.1088,-163.39426,-69.16277
-920.68646,-460.44806,-41.95751
-870.6003,-587.399,18.120342
-1032.6775,-358.23276,53.352333
-958.39923,-228.70274,50.514236
-1952.3643,1067.8541,203.94402
-2935.0127,4809.345,947.95685
-1024.8978,3390.0059,441.10086
-29.214888,1736.086,114.564705
480.40552,922.6012,74.31359
588.04834,135.52614,20.226444
766.41956,117.21838,0.6685932
716.9661,145.14075,54.10403
649.07745,559.2888,102.281975
336.58682,559.33545,237.32986
405.59296,1601.9324,76.10261
-175.19533,4049.9978,-139.24
-1245.526,3900.3667,111.347404
-1333.9478,2080.9182,225.97
-1000.5428,1066.6897,101.15856
-1129.8479,239.6637,133.48384
-1082.486,-161.11014,97.79347
-879.00916,-688.14087,-139.48868
-729.7539,-658.8611,-78.89327
-1000.78314,-298.16003,127.22726
-912.5887,-67.58738,139.123
-1798.1285,475.27798,390.82245
-3444.5417,4589.611,1135.125
-1347.9622,3853.785,490.79288
-124.60684,1510.5481,181.6459
448.18857,1122.4038,22.027079
629.10004,283.15155,-31.524986
775.7737,313.85822,-25.81316
660.6125,178.9702,-79.29953
695.8003,357.15463,-10.443007
577.9173,453.01984,-59.41932
469.3365,1811.4926,-25.973913
-387.72314,4226.747,-54.752052
-1460.9082,3913.4907,-102.67531
-1418.722,2022.5536,10.123028
-1196.5381,971.8151,-38.178726
-1051.9095,46.938892,-84.651146
-963.2463,-219.7377,-114.605415
-999.4577,-528.53876,30.726435
-979.9038,-341.23526,121.57937
-1026.992,-376.20206,85.94752
-1027.2717,-160.22313,164.57822
-1583.3058,194.62958,87.66934
-3458.5283,4074.3635,702.1336
-1855.3899,4450.006,463.7989
-210.16017,1806.5074,51.556194
321.93045,1283.7977,55.84191
622.3476,303.5612,-49.54777
811.13904,198.42567,-22.189459
702.6888,112.34003,-114.115166
601.9562,347.04556,2.9784708
508.14642,455.23773,-61.850063
433.21246,1474.1813,-106.4975
-352.36475,3807.762,-329.28503
-1419.329,4147.9497,-271.29553
-1467.5765,2547.9214,-112.66635
-1225.6564,1318.742,-52.70849
-1112.1813,221.1309,-80.47506
-1087.2711,-283.84134,-103.12577
-1052.0852,-607.93384,-89.274086
-951.67236,-467.2714,24.049244
-904.0916,-533.5429,40.08635
-985.30804,-119.115364,141.70561
-1372.247,189.17484,30.698729
-3342.2507,4337.057,841.7087
-1786.0037,4223.1323,570.274
-71.87141,1613.4135,132.92978
426.9046,1298.8027,215.40688
710.50586,206.22383,64.72418
749.7249,230.57954,25.394308
735.7695,19.560194,-3.947586
627.3439,326.02356,32.203117
547.9354,539.4724,-32.136803
487.37433,1052.3578,-179.26736
141.64058,3305.4075,-361.82333
-1033.5509,4416.628,-272.8049
-1475.6343,2622.4648,-68.946335
-1137.4698,1607.2587,53.73926
-1032.4729,562.5283,65.696465
-976.51556,55.942818,88.67354
-971.8254,-631.7527,18.734102
-1128.6958,-345.7458,36.188915
-1032.3214,-610.89484,52.06871
-1113.0195,-58.24556,246.26094
-1075.193,-239.11836,152.44867
-2852.1736,3086.3933,927.3162
-2186.878,4873.6377,940.1629
-496.6122,1757.2819,410.6504
127.962074,1744.9646,310.89963
642.92773,371.75137,80.93481
656.0973,244.33229,56.225384
767.05695,129.68436,-37.316387
599.1108,474.53433,20.480127
648.7116,378.5006,-39.238983
347.13315,1038.3875,57.674953
60.15678,2915.1523,35.232555
-1186.4569,4107.888,23.429335
-1487.5929,2685.2996,145.6214
-1308.9011,1747.2582,107.78595
-1038.4952,647.5032,52.63808
-1016.74994,121.77201,52.912838
-866.56537,-477.4712,-34.11514
-1059.1626,-421.58868,3.914395
-887.4037,-656.57904,-48.13614
-1120.7582,-226.32422,168.69576
-889.46454,-259.39606,79.600975
-2631.9912,1784.8062,447.22998
-3021.5708,5348.4917,864.5828
-620.7246,2523.7344,228.79211
113.808365,1161.9824,130.66342
595.1852,672.02386,67.01834
587.7729,96.99598,51.111706
699.261,318.8617,-20.378899
579.8448,130.63924,19.049362
563.9054,416.29367,-29.686504
423.11267,442.85706,-49.149822
214.27885,2644.9202,-177.96704
-833.5865,4213.0,-379.52234
-1287.2504,3105.2944,-205.37605
-1323.1597,2151.9507,-73.060684
-1202.2368,1021.9666,-35.076187
-1209.2932,75.51094,-89.46742
-1035.9963,-338.43536,-166.05646
-896.1857,-569.15137,12.121605
-749.9852,-596.8222,-21.121716
-958.21674,-467.53482,-24.99512
-1049.7418,54.98608,191.75076
-1739.2761,407.14926,127.66654
-3718.042,4606.2456,642.293
-1626.8472,3974.2654,315.54126
-111.41469,1381.2378,-7.731989
487.95114,1199.198,-44.538136
871.533,71.99253,-85.82992
848.669,328.48474,-114.653206
764.9742,189.94934,-89.93824
661.7879,604.1567,-94.6554
476.86746,607.8236,-119.42293
203.04172,2235.795,-248.13338
-667.32007,3839.1604,-355.4777
-1435.1061,3685.126,-194.3967
-1378.1744,2150.6377,-109.4581
-1115.3354,905.58624,-63.15396
-908.4572,-97.533585,-75.10454
-866.8216,-128.17407,32.078354
-811.06177,-281.66907,47.603844
-934.5784,-183.1523,105.73255
-864.4605,-427.71924,-21.816597
-1014.99677,-56.583485,74.7044
-1233.6409,-94.41589,-146.73106
-3139.1335,3732.1523,381.82413
-1966.7582,4728.5405,427.4174
-201.33781,1625.9977,-33.3551
276.09274,1327.0645,54.533253
587.47284,364.7224,3.267081
673.67267,238.21513,19.752684
715.59546,75.72027,-1.2109821
627.3953,408.9049,84.043396
538.4183,573.4434,49.702816
335.0668,1576.2911,-143.75179
-76.745895,3264.3054,-342.30127
-1137.4927,4016.799,-256.3587
-1523.2351,2614.8123,-245.01149
-1283.5659,1305.0167,-106.089516
-1060.041,393.447,-114.15204
-1042.1366,-159.60776,-19.319693
-879.0865,-447.8951,-92.907486
-961.74,-501.02234,-25.39712
-909.7262,-483.7305,10.105327
-1013.65015,-157.72714,192.56734
-1210.935,121.40517,-84.02557
-2917.6138,3198.194,445.45746
-2264.7693,4491.495,503.43338
-363.47864,2214.944,-15.470821
249.18561,1241.3268,28.781452
604.20294,494.8554,15.947599
703.38434,275.62463,22.443428
659.9187,190.71417,-59.418663
610.6185,348.5021,10.20144
528.39355,395.81677,-7.0844417
434.86057,1199.1921,-107.88216
-74.81478,3375.666,-369.4801
-1110.3982,3972.0063,-309.25433
-1375.2285,2504.115,-195.42365
-1117.9923,1174.8004,-125.96301
-965.4475,422.3111,-48.7452
-862.99225,-13.415165,-28.30812
-887.34174,-337.5818,-67.09892
-915.71594,-443.88605,14.55478
-952.14294,-491.9496,-12.447722
-1014.7194,-187.52705,156.52815
-1129.5302,-39.7816,14.10456
-2551.1506,2807.4617,460.63403
-2462.0876,4290.2603,1200.8054
-915.7085,2589.706,449.0091
43.9985,1475.5258,246.61284
531.03827,544.76385,111.19037
725.3107,366.6643,105.25521
877.5964,180.05614,23.960377
761.12067,247.6515,68.92699
628.4523,559.2832,-18.599707
465.30508,715.25146,-47.845284
339.3555,2763.1304,-336.14218
-711.4166,4260.799,-512.8352
-1332.7855,2983.0012,-214.80794
-1367.8002,1887.3043,-96.019806
-1131.2946,724.2076,-61.814785
-1129.8163,-6.675825,-7.7155843
-933.324,-605.62897,-20.258158
-936.0557,-481.18436,81.573654
-767.301,-630.9594,17.056576
-939.5151,-233.2872,115.914314
-935.4334,-152.15735,-48.618027
-2876.8481,1922.0564,447.67987
-3193.394,4918.221,692.4269
-753.58527,2633.32,278.0113
-28.774963,1378.9945,305.4804
574.91187,645.01605,180.44379
529.4934,257.91333,31.62362
683.2832,342.50656,36.437073
586.0618,243.09799,91.87362
682.5161,532.4152,10.611027
470.13367,533.98724,-100.359825
534.95953,1659.3489,-261.02524
-413.84998,4318.5854,-700.7623
-1396.2032,3605.3467,-571.0523
-1163.8606,1956.9122,-280.9919
-1052.2794,1262.8142,-214.93051
-990.51337,211.79532,-94.56556
-1017.67883,-108.09207,-109.65237
-1159.7273,-509.4606,20.31901
-1053.1028,-338.55066,48.944157
-1116.917,-556.7284,103.16877
-1006.9099,-113.09699,86.32694
-1995.2286,653.5871,333.42416
-3364.3125,4799.805,849.48737
-1226.261,3519.9563,336.53638
-101.6994,1625.5675,109.44704
516.6346,1048.664,-1.9151188
677.2428,180.09424,-45.463245
762.8881,224.32822,-81.37815
546.11536,310.32355,-50.72354
588.3079,386.23206,-68.874664
361.40472,730.7116,-111.99891
253.55428,2304.3862,-276.48013
-631.8285,3826.064,-371.9982
-1373.209,3429.2732,-162.35913
-1442.6938,2008.5901,-48.21378
-1126.0841,795.5977,-55.943233
-994.30743,155.50519,-42.64236
-1038.8374,-213.07141,-46.74488
-1026.0046,-321.5885,47.760204
-809.8392,-385.39908,78.375755
-943.30676,-327.1886,88.46986
-943.63,-173.38586,86.54909
-1914.0657,821.59406,181.67313
-3136.6697,4775.3896,595.75635
-1019.1174,3389.3064,194.1184
47.524155,1463.8634,61.262463
564.01526,1014.6068,-4.6279883
686.9471,26.55968,-5.544294
706.2758,235.81013,-59.957745
651.4942,-11.753522,-23.48743
599.03424,406.47864,-42.961235
479.03308,540.15173,-20.68896
125.15532,2800.6714,-207.20757
-971.4633,3906.213,-263.2982
-1297.1317,2801.655,-90.370125
-1278.603,1720.5743,26.455883
-1014.2568,865.97943,78.83906
-794.86237,253.94284,-22.190763
-724.62976,9.647939,-113.87051
-853.76306,-485.44513,-18.159998
-970.8632,-485.62582,51.766445
-1002.4406,-540.8321,14.402684
-998.96924,-19.185902,60.94869
-1614.689,257.82587,143.0622
-3405.774,4578.7324,715.3881
-1529.1155,4257.413,292.38263
-91.63019,1519.7725,-7.3233986
502.23123,1038.3634,-43.910305
659.0794,120.687035,-48.59345
774.63544,183.67729,-42.25227
603.4132,214.64316,-53.20104
630.3787,516.9154,-53.378647
459.97397,783.5084,-32.009354
465.3303,1376.4955,-99.0901
-264.0471,3392.5579,-101.67313
-1154.7528,3886.4055,-79.054634
-1034.8181,1950.8196,22.773989
-789.3046,895.77673,-77.63958
-989.70667,66.74494,-57.88781
-915.4046,-393.48022,-35.918995
-910.30115,-462.96124,38.326942
-812.45825,-430.09042,25.40956
-1097.746,-270.04422,90.14933
-965.6627,-267.03436,-6.3150945
-2588.3047,2078.5627,232.25116
-2728.0066,5054.5195,387.76425
-601.87225,2276.6304,47.510098
41.026375,1590.2015,66.3156
577.0934,635.40265,-8.20884
656.6433,211.69691,12.620033
789.4211,165.32346,-31.300062
680.95087,305.48566,91.69255
649.3458,437.416,58.30749
422.34332,1177.6045,-47.247715
-88.530235,3307.9775,-167.22232
-839.6298,3601.698,-207.53885
-1285.6866,2744.0261,-316.6662
-1370.6681,1611.5731,-262.17944
-978.1885,431.6836,-208.34128
-965.11304,-9.998244,-152.94124
-918.4832,-540.29486,-63.388
-1023.3747,-589.441,-39.105762
-999.8383,-775.7858,-122.00407
-1087.0286,-288.1277,69.14803
-1481.1167,218.51683,90.4193
-2957.0361,3105.2966,290.4671
-2027.8159,3934.3396,370.95044
-755.2387,2068.3435,132.42477
-4.325453,1444.6572,38.042355
443.2869,798.91095,4.3064027
792.2633,581.15063,-12.879446
817.99,460.46704,-50.31706
768.8605,602.62775,25.209251
475.32782,873.2041,-69.33531
308.05386,1690.8757,-114.70865
-477.93527,2994.9312,-178.5948
-1064.3068,3002.7622,-66.360374
-1590.4641,2743.7065,-28.832895
-1512.045,1360.4702,-64.39316
-1233.3098,162.34766,-33.81425
-1038.6232,-387.9502,41.247803
-900.2219,-592.1799,-29.186018
-896.4182,-545.90186,-129.43094
-1005.8213,-348.7696,4.7886586
-917.26227,-199.70624,122.32563
-1943.8815,961.9937,63.275284
-3222.9568,3979.9019,592.4087
-1328.9656,3067.3247,354.71384
-261.0551,1794.0123,33.74809
400.07883,1090.5052,24.474243
557.7588,413.10358,55.601368
631.62054,513.10986,37.492043
546.987,522.27344,1.0567652
574.2313,493.10944,8.817695
340.09256,722.86035,33.951782
344.39102,1727.9933,-63.27144
-697.4127,3728.4155,-241.43588
-1469.0637,3532.335,-185.21402
-1300.392,1924.611,-174.4587
-982.85144,879.50024,-121.67354
-870.1921,212.93079,-98.805565
-811.04047,-276.29688,-146.5176
-986.3119,-573.7837,-96.04859
-967.69324,-641.9393,-158.78384
-1093.5787,-434.5331,-84.78845
-916.7334,-538.91187,1.3787496
-2718.878,2210.0505,484.38458
-3218.1555,5199.0547,819.0892
-662.5739,2411.8823,87.0669
168.73138,1222.6714,142.4204
562.7928,523.6052,128.58684
605.3576,176.37856,118.36902
674.1234,53.932392,-17.25772
613.38354,258.8484,47.15943
642.02155,500.3369,51.022427
510.65408,960.031,29.80607
128.12488,3068.8472,-240.30284
-1043.2231,4049.2249,-259.0973
-1203.4927,2247.2717,-152.32298
-982.2795,1293.7369,-77.71116
-848.47833,449.47107,2.8039138
-854.56903,96.87071,-21.241558
-917.8644,-464.64175,-122.011925
-976.7108,-377.36108,-58.77992
-902.7589,-540.9106,-63.49449
-968.6869,-213.62215,-92.81105
-1587.6149,382.40088,36.78167
-3362.622,4892.0596,518.8503
-1398.295,3775.977,234.50792
92.858025,1165.9215,-76.83172
565.1165,903.2867,-73.80864
612.59033,169.7405,-51.236485
746.19684,111.04361,-125.98161
725.35443,-55.16316,-115.09136
728.30255,334.79355,-65.864456
575.6106,856.7617,-129.84244
447.68723,2389.4631,-260.29916
-428.46564,4420.7075,-195.04243
-1263.3789,3883.6404,-52.601604
-1427.2024,1889.8573,57.54144
-1212.8905,732.9809,67.685394
-1139.6283,-121.65625,79.82706
-975.55914,-550.3676,-90.88791
-924.708,-720.0944,-65.628426
-751.7486,-580.7997,-75.28922
-1031.3904,-139.39542,86.18772
-1039.355,-91.33223,38.263126
-2725.745,2134.7515,392.86453
-3036.7266,4999.342,611.2726
-782.31604,2862.6646,101.32981
124.78761,1468.937,3.9526968
590.3263,443.504,-46.051884
700.9993,179.99849,-16.802923
851.0542,247.06824,-33.6
816.64246,200.24548,-63.816505
780.77277,191.99702,-63.955338
601.57745,815.9545,13.955727
262.6692,3045.4973,-199.73715
-879.815,4606.1475,-228.90605
-1420.6115,3147.5647,-36.17545
-1407.0217,1570.2474,-10.859896
-1151.6222,381.00812,51.238636
-1055.5096,-22.201622,-67.73778
-869.9904,-604.5876,-146.18991
-907.0298,-552.5326,-58.851673
-765.05133,-651.36053,0.632523
-986.3365,-8.110401,-40.672752
-1180.9951,-98.231636,-11.769915
-3133.399,3868.5232,401.02777
-1914.4049,4917.674,415.3035
-52.236145,1661.8231,99.421005
468.09134,1237.5718,64.30677
793.29785,141.5638,31.188215
738.51776,216.79185,83.997795
697.68365,54.516758,69.41917
715.7235,157.28137,108.62465
633.57153,210.97203,74.97369
469.7667,1291.9398,49.043118
-37.94463,3969.6882,-200.95033
-1282.7281,4576.0312,-11.0038595
-1383.3872,2581.471,25.802147
-1245.9957,1129.2574,-4.8122025
-983.38727,114.866455,-11.719387
-966.12463,-124.4415,-49.12557
-746.3895,-546.73413,-87.73648
-902.18524,-644.83295,-57.71726
-882.2905,-551.0376,-132.1527
-1223.9932,-65.594376,37.90286
-1345.844,-43.90804,-109.89258
-3474.2458,3550.3523,398.6503
-2293.4841,4959.352,354.22217
-326.03183,2080.5146,34.836018
240.85834,1105.248,10.1674595
689.3368,123.800964,-87.789894
742.0155,216.15593,-41.429283
734.9436,156.10448,-80.50038
750.23773,273.14734,-17.623703
652.6079,321.31503,-28.988201
492.79034,1333.8872,-97.47117
-270.37918,4199.113,-299.55594
-1506.5261,4192.4556,-209.45001
-1586.8457,2416.9836,-32.581825
-1264.4779,1094.4501,-0.7795036
-1022.8599,51.41052,-60.105118
-864.19653,-291.2676,-155.60443
-840.8154,-608.1731,-124.559494
-883.3558,-526.08905,-176.2801
-1139.294,-521.66473,-121.3461
-1045.2675,-146.37747,-162.01582
-2134.421,664.57635,198.01399
-3465.8684,5002.7944,703.00494
-1076.299,3740.0364,171.25134
3.8462558,1205.0131,122.40512
646.90576,705.1618,31.716536
625.26587,120.986565,61.33438
643.93634,593.48206,115.3679
576.4067,304.9288,78.45894
740.77496,171.5178,48.363995
467.0281,154.8918,90.09534
724.96625,1623.8518,-116.66157
-330.85022,4954.7524,-578.7694
-1155.8317,3970.948,-485.06235
-1068.7157,1839.4551,-156.886
-1022.07733,956.6255,-4.579773
-1122.6606,123.34798,0.8075431
-1022.98895,-211.2745,-123.34654
-1101.3748,-664.0161,-39.941788
-1007.994,-508.86615,-171.02643
-1228.2926,-250.69252,-95.44661
-1182.451,-57.754604,-26.972294
-2668.8005,1723.9854,75.25275
-3391.9153,5642.2637,208.22862
-863.1375,2891.7617,-82.97047
170.51605,1332.9943,-107.42735
699.80536,665.8229,-110.01041
866.35254,152.4612,-57.060528
870.111,226.93655,-85.96718
767.0653,374.98764,-71.8111
760.0485,407.688,-84.80781
544.3892,1042.242,-140.6741
199.90376,3074.0808,-350.97864
-818.4882,4180.455,-326.86658
-1382.9496,3081.2725,-162.10464
-1276.7432,1426.1364,-77.51128
-922.1361,341.91156,0.42223278
-921.1454,30.858515,23.96623
-983.1916,-457.4388,-36.577232
-1064.6191,-428.11624,-22.5776
-1041.452,-569.86456,-84.37669
-1160.6342,-184.17638,-37.458202
-1454.3885,-53.397003,-28.439428
-3343.051,3959.4712,551.6872
-2069.2993,4664.763,498.98752
-251.96294,1826.1544,35.87326
447.46365,1400.3726,104.5606
836.6696,239.09256,112.94654
858.7388,202.47034,91.95959
764.20184,58.736156,6.268082
691.6204,458.08026,69.16996
489.06345,544.415,15.717013
334.4649,1703.2429,-111.20881
-277.40753,3810.7634,-365.66736
-1228.9832,3850.224,-292.1308
-1332.1194,2434.4023,-112.087265
-1275.9814,1181.9106,-30.350132
-1300.1089,173.03708,38.332916
-1164.0907,-389.0761,75.515274
-1167.7543,-596.8124,103.70131
-1025.5835,-647.4503,44.73028
-1161.0497,-318.446,91.45573
-1081.5889,-217.44832,27.82316
-2581.3596,2082.3484,267.2681
-2932.7976,5017.9727,852.5879
-681.9475,2436.2578,194.7853
115.62351,1736.2509,118.15498
754.8858,690.47327,99.312805
812.944,303.58414,120.33259
782.9834,207.80202,-9.4907875
674.3542,411.7751,5.806003
713.8774,562.1696,-0.87138426
407.8366,1320.574,-94.859276
294.26193,2403.743,-302.96747
-749.1666,3943.4517,-339.82086
-1436.6417,3102.887,-271.78616
-1282.8518,1722.2213,-128.40712
-949.5455,630.1728,-130.65625
-1018.7631,200.26903,-105.00511
-1077.7881,-465.40155,-157.15665
-1263.2391,-370.1534,-37.210945
-1101.8021,-485.64297,-167.88261
-1361.0385,-102.4249,80.36107
-1085.5597,-224.56508,58.76634
-2810.6377,2505.372,528.79285
-2461.679,5222.665,694.03906
-487.88425,2319.2585,141.99333
261.21994,1439.0991,-2.0879345
651.4327,606.703,-65.00669
755.1301,205.96623,-51.498535
812.6155,134.85713,-147.08963
761.1501,340.87476,-82.25058
562.5861,704.2679,-20.933914
369.018,1629.1545,-93.5744
-566.40546,3956.599,-205.23071
-1412.456,4026.0576,-37.630493
-1363.9381,2249.0398,57.65005
-1185.034,1067.4113,22.383411
-1131.1638,111.8275,-92.85827
-1124.71,-356.4232,-207.94183
-1018.5555,-467.22366,-161.24606
-1066.3702,-561.9673,-135.99797
-1244.9937,-334.72974,-105.54563
-1105.1615,-181.38394,-113.19538
-2603.8115,1585.9785,99.43197
-3345.1487,5463.1724,509.44287
-708.351,3148.2498,102.552795
208.89207,1366.2384,22.871998
893.6201,621.31915,24.775536
823.9183,3.0347908,17.813889
881.9477,268.598,-55.186058
799.0323,127.52109,-48.838966
804.8295,371.42587,-61.949978
588.0088,726.56683,61.596973
185.12517,3391.781,-58.857452
-1228.3505,4480.0596,-145.03632
-1439.5175,2810.7979,147.90125
-1227.4857,1706.0322,59.65011
-1093.5,739.59357,32.63595
-1099.3871,-115.9671,5.775506
-956.0198,-453.39343,-138.65913
-1017.63055,-612.90594,-116.587265
-854.9992,-476.3234,-57.70031
-1012.45764,-314.3939,52.98856
-864.18427,-5.5363183,71.71818
-2082.9614,887.4559,341.3171
-3420.0098,5150.984,938.63025
-1183.4891,3413.2566,382.1438
-64.62359,1370.8898,330.60162
578.4289,848.56445,184.94197
940.1611,91.57985,98.67516
993.7142,245.98859,-2.975252
829.86176,312.52798,-60.08263
849.5011,424.8605,-278.5098
614.5585,974.0678,-262.87732
209.76138,3308.3835,-617.7293
-1071.541,4206.3857,-696.72156
-1428.2264,2865.6638,-169.35735
-1262.0786,1915.2394,-83.996925
-1162.5221,529.4496,-82.02527
-1122.3789,-109.663574,-29.008865
-1051.5781,-580.44916,-27.817627
-1133.4783,-406.71515,26.113703
-1028.8848,-594.8615,-149.64508
-1207.8496,-82.69919,32.928867
-1340.3481,-29.736393,22.883791
-3340.4263,4193.738,725.2003
-1956.8944,4290.025,707.11
-104.67319,1512.6755,188.03146
486.8043,1421.3452,300.5599
816.0178,211.35786,139.82242
757.20715,208.13135,67.75378
640.78845,163.97533,-6.6109304
775.6521,391.11285,5.636763
656.1661,836.58246,-175.54695
544.6991,1805.7281,-221.22931
-240.6025,4381.7183,-582.16315
-1687.6748,4160.684,-361.28574
-1388.9398,1863.0656,-92.64813
-1175.7427,1071.5552,-70.9563
-1188.2698,108.02605,75.39626
-1107.6154,-461.98715,-53.90601
-1144.6857,-695.7096,-17.006487
-1042.3304,-668.09015,-82.10687
-1223.4064,-112.02225,38.287388
-1137.8341,-142.88126,65.61797
-2970.392,2604.4863,486.4411
-2691.3428,5590.3403,627.51196
-233.5493,2063.4048,202.25288
183.95956,1500.5667,165.09865
840.99896,253.717,-3.4362307
747.9623,254.72163,25.77977
765.06384,268.9899,-9.81719
681.36676,390.88538,79.39034
773.64197,419.12552,-80.00651
615.7156,1006.33966,-128.45735
293.94476,3294.7195,-477.69128
-1141.9988,4576.6846,-626.5203
-1454.9779,2637.0044,-299.68835
-1339.5897,1754.4437,-160.2562
-1187.7306,328.89008,-130.69472
-1114.7976,-36.035686,-71.01256
-1019.8498,-628.7049,-114.32892
-1158.92,-337.03946,-22.596725
-975.21277,-489.54776,-49.70586
-1129.5256,103.821335,194.35167
-1050.0961,-193.85718,4.844182
-3137.5015,3185.4631,661.7241
-2305.4585,4888.359,595.2586
-312.17798,2008.2004,80.17269
297.0653,1295.2606,128.2022
556.3036,372.3588,41.214767
686.27454,160.33609,-4.9653215
760.1541,79.98363,-49.84993
748.4114,297.03967,11.398024
818.8021,556.0237,-88.40923
505.6086,1342.5476,-135.0917
-55.05935,3922.7908,-497.18658
-1092.0336,4373.416,-548.9858
-1394.0063,2852.5217,-203.35582
-1231.2919,1276.9247,-127.236244
-1388.7241,216.05498,-110.48644
-1252.044,-428.79855,-102.12505
-1190.9502,-442.60345,-87.25063
-1044.9277,-554.4696,-52.67657
-1058.8805,-577.94836,6.2136064
-998.2941,-484.28955,87.38231
-2051.593,654.45355,312.18985
-3243.2395,4305.5884,529.9436
-1520.1816,3910.4702,291.36533
-262.1874,1635.8286,128.12689
323.07126,1160.8773,11.949094
565.2219,457.10913,-14.122996
755.44257,430.03137,-120.429405
679.16705,419.01923,-35.50418
655.2571,711.7048,-56.091446
546.2082,950.8307,-228.30223
86.01964,2489.8481,-310.3903
-882.5358,3265.6025,-339.62662
-1244.0753,2731.8774,-106.52619
-1597.3315,2059.649,-54.346447
-1310.892,647.53827,-97.51793
-1123.0693,-123.8527,-35.903362
-996.3517,-380.24695,-0.060219247
-1130.6909,-469.6479,0.57261574
-1033.6525,-543.9265,-176.83046
-1149.9982,-359.01776,-46.899826
-1020.1626,-159.85217,8.330783
-2470.381,1632.7572,233.12672
-2897.7485,4112.663,665.4811
-1064.954,2900.1,337.86084
-144.14388,1815.2972,290.5279
608.5463,894.5993,256.8288
812.2703,227.13142,194.71481
816.2614,268.7879,23.661312
549.7709,340.17242,-45.127506
469.8509,554.29266,61.69342
522.35034,1088.334,-265.21536
81.840256,2930.448,-249.50777
-1358.8693,4835.3774,-370.28156
-1894.8639,3085.5452,-249.31615
-1647.1538,1878.2056,32.398056
-1391.5474,453.76035,-146.84169
-1272.8069,-282.38513,-122.6675
-1009.06104,-444.6799,-80.07081
-1079.9982,-518.17303,14.801974
-944.12286,-710.8976,-90.82031
-1140.4163,-33.10711,153.78201
-1174.8479,-373.17505,41.851162
-3246.7014,3265.9685,1119.8969
-2299.2751,4865.0303,1154.2699
-414.6277,1609.3755,311.27603
328.99628,1475.8086,241.17215
822.5358,618.0427,-28.58583
915.18274,345.96054,33.001926
935.80414,148.43932,-139.97491
802.9037,254.03203,-111.713974
600.0346,430.58032,-87.14622
318.93158,1762.975,-69.21712
-267.14966,3679.5,-375.65192
-1489.8684,3931.974,-145.21182
-1499.288,2552.5232,-6.618149
-1298.8964,1386.943,55.911667
-1091.4714,373.92892,44.339962
-1045.7495,-167.34164,82.23623
-1023.52545,-551.6292,-37.102707
-1111.7726,-439.7011,55.021576
-1075.5967,-519.64355,44.286415
-1117.1932,-82.13224,143.54665
-1329.026,-31.252274,125.147964
-3319.3013,3629.6492,699.4512
-2050.6943,4776.9155,460.64087
-282.84265,1733.6301,96.04919
267.76437,1342.1488,49.850567
666.0483,423.8129,-72.07948
805.4661,252.75511,-136.65556
745.6691,-74.35132,-187.03871
669.83936,385.69022,-95.8171
595.5642,490.84024,-67.95074
425.45197,1633.4346,-133.30293
-433.29193,4049.892,-286.11823
-1387.9692,3952.6487,-246.69167
-1471.8723,2164.1907,-114.33344
-1273.4828,1128.4752,-117.96053
-1064.3511,167.79924,-64.045975
-953.49786,-119.87514,-118.253174
-1004.42834,-541.437,-96.1993
-1098.5771,-364.94226,-43.6246
-1091.0682,-488.24762,17.941698
-1142.8586,-57.813984,22.682226
-1782.29,176.31392,-7.1111403
-3444.833,4268.3467,741.23596
-1762.3638,4059.3196,327.4283
-303.67188,1549.4302,-48.81259
401.9628,1321.2611,60.46979
691.63416,442.15762,7.5103235
918.30176,181.1431,85.72226
761.0206,247.95328,82.10757
729.8337,622.6506,168.88484
546.2732,743.3334,31.011465
257.43875,2425.249,-157.20691
-470.12265,4542.5225,-359.9391
-1336.6095,3808.2744,-418.68826
-1654.3333,1988.7882,-351.01147
-1522.0829,493.434,-331.95505
-1302.9016,-107.52974,-159.92189
-915.33514,-553.66,382.93958
-953.266,-669.4094,374.80243
-1007.82623,-784.4745,-44.890697
-1391.6757,65.46936,122.99756
-1599.5911,-87.96454,2.3884213
-3392.9468,3202.3345,208.63176
-2646.0203,4827.5054,300.08832
-503.0702,1858.9297,146.9697
281.49387,1657.3531,92.451065
1015.341,360.1439,-11.682224
950.2635,324.71994,45.73916
875.3579,345.7907,-9.621878
726.91345,658.3856,-17.18879
629.6237,682.93115,-157.64629
291.15854,1439.9895,-222.20384
-442.84985,3471.7678,-469.69992
-1569.7327,4386.477,-463.4937
-1674.359,3089.564,-208.86983
-1554.3036,1571.9723,-119.90137
-1265.0287,40.69455,-38.74731
-1173.317,-215.6781,6.5272245
-1070.8596,-748.4581,-45.22468
-1125.7291,-536.2794,-28.19819
-989.6033,-625.5671,-82.305885
-1275.7642,-28.598413,92.369576
-1466.0747,-96.93382,-53.403133
-3637.4414,3866.998,231.22551
-2295.541,5386.8037,280.63754
-223.15033,1829.7361,-56.33782
349.2637,1212.8646,9.829889
828.1814,225.85117,-19.991228
828.8096,251.003,24.580126
726.98737,231.4668,-64.623924
635.8739,439.18124,18.884132
523.43,554.3078,-31.515285
371.6,1402.1211,-66.266014
-411.7744,3917.413,-252.47546
-1489.4559,4169.12,-190.00035
-1458.2634,2604.215,-42.132236
-1225.1152,1275.8568,11.859349
-1108.5637,52.778606,10.926225
-1035.9136,-385.8174,-16.879988
-896.3653,-665.79767,-70.48235
-961.25,-558.67926,-86.162315
-1125.7916,-418.95834,-42.89336
-1148.5249,-60.445713,18.57627
-1887.9337,415.30948,-55.68796
-3410.7532,5110.474,582.7661
-1335.8693,3921.7869,267.04745
-72.54691,1351.0105,49.068703
567.51245,884.53033,31.560946
630.8007,72.398224,-20.09641
754.8056,249.855,-16.29795
654.68994,227.96202,7.5920224
797.1634,398.74454,48.592106
492.51544,668.78625,34.07071
418.85928,1777.7172,-67.16487
-351.0043,4191.4473,-95.588196
-1460.355,4172.7188,-278.7565
-1431.1372,2083.1577,-97.94312
-966.7558,1098.5687,-76.17584
-1082.6056,123.69688,-199.66331
-853.4971,-565.2575,-300.97223
-972.7441,-898.4385,-360.61487
-877.2259,-711.905,-233.5945
-1126.5452,-233.1396,124.11919
-1063.9442,-158.88113,95.55321
-2832.26,1311.8545,319.37766
-3534.6228,5408.7617,599.0252
-842.9411,2893.2888,247.20248
-50.39959,1406.1375,108.25189
744.299,491.64133,-227.02025
819.35614,230.26085,-199.24545
908.1575,508.71933,-205.54659
862.1987,379.52066,-142.09981
850.43555,674.1783,-179.11209
468.19003,1295.0881,-189.01447
199.51685,3161.4944,-438.74927
-933.6869,4720.606,-420.30487
-1498.6986,3493.6675,-292.2908
-1388.902,1581.1589,-45.42454
-1079.362,365.09344,-62.128456
-1133.2521,-205.20856,-172.04169
-1035.6353,-500.70734,-129.31004
-1111.3812,-575.5955,-69.90109
-1085.8324,-551.1263,-175.80481
-1437.3411,25.77796,6.942325
-1591.369,36.117058,-45.48197
-3487.4717,3184.5496,383.72458
-2916.4177,5171.722,511.10483
-575.58545,2357.6833,-47.018124
421.05295,1682.9216,-103.504814
947.68195,604.2393,-115.3575
1180.5054,406.83347,-166.01747
990.5515,449.34283,-241.83
812.031,718.70135,-117.80511
483.61417,861.88226,-246.18329
99.15334,2465.837,-46.000168
-850.1994,4516.01,-234.48798
-1496.3477,4012.867,-158.94415
-1669.3745,2560.07,-84.52991
-1295.2917,634.5475,-65.47096
-1153.3801,-102.54145,-163.58167
-1010.5017,-816.584,-205.15263
-1007.9562,-857.65295,-140.46812
-1187.6805,-532.80383,-48.90949
-1307.8788,-19.62452,15.027015
-1536.0653,-94.23275,-45.21141
-3305.9272,2811.8838,202.62627
-3075.8306,5383.8228,348.2276
-708.6619,2412.4858,41.965065
223.54025,1547.8092,13.531317
851.9521,728.69525,-129.23389
930.0746,599.39154,-132.46826
1039.0236,349.97897,-240.39987
757.45654,535.32306,-114.96427
605.65344,951.9191,-54.72828
285.69876,1296.8539,-14.784069
38.909897,2986.7422,-109.70181
-951.95264,4454.4487,-72.52532
-1267.6172,3170.0676,-16.026869
-1102.3787,1516.2539,-26.46286
-927.9801,402.95816,-6.0634027
-1195.7349,-229.00931,-26.849007
-1038.8414,-820.3802,-110.30291
-1237.5793,-517.12646,58.202656
-1115.8099,-480.1139,41.462772
-1316.5287,-11.275891,97.34277
-1612.0674,-123.29083,-94.0674
-3791.5803,3368.0256,294.9852
-2924.1726,5465.3955,283.42563
-560.1076,2070.603,-136.35796
186.84474,1252.8285,-123.46826
791.27203,603.8164,-106.40118
923.76746,501.15756,-95.81503
976.6335,258.41196,-204.5089
786.2794,536.75824,-71.73777
608.64655,1021.06104,-108.32372
323.83362,1465.6027,-204.8415
-59.379993,3473.511,-278.9737
-1339.0419,5081.719,-299.9594
-1862.6658,2945.1147,-118.44847
-1544.2113,1270.4482,0.73165995
-1402.576,377.09875,-13.623795
-1390.0271,-501.39233,-62.73898
-989.00385,-993.33154,-195.80832
-1064.5884,-664.1125,-2.0490282
-1119.5303,-406.44778,-22.306917
-1387.3657,-96.595116,94.299355
-1701.4963,-174.00497,-82.804375
-3698.1123,2696.6494,505.6817
-3255.6206,4285.404,625.3236
-1296.7002,2322.6091,27.677553
-174.67651,1710.9277,-64.90102
596.5332,1115.8674,-110.40003
1031.9385,796.1949,-98.08887
1117.2554,691.0253,-171.31126
806.5431,1074.567,13.877894
462.7281,1270.531,-128.54285
-309.43515,2726.965,-258.32346
-1662.9469,3886.9382,-421.7447
-2256.1006,4457.5884,-238.15419
-2500.2322,3168.8853,-251.39417
-1971.3221,492.75803,-225.67291
-1567.3223,-610.5998,99.26725
-1226.9164,-847.8763,45.898804
-934.59863,-923.20325,-173.12375
-1207.28,-602.2408,-301.17203
-1503.4404,16.049452,-300.9644
-1542.8344,127.46879,-78.547485
-2822.9712,1631.8083,-198.05682
-3442.765,4219.672,438.1514
-1741.1053,3295.5007,325.6033
-737.0938,2201.8352,165.86261
393.3123,1364.5989,56.472095
827.36505,974.39606,-33.95586
1026.1371,921.76685,-185.09927
816.8067,757.2252,-157.70479
566.05066,1230.949,-138.73018
287.665,1146.5258,-222.14316
-163.05089,2482.2922,-227.03012
-1335.8425,3998.7903,-296.72366
-1800.5038,3750.026,-151.55844
-1958.2195,2763.701,-181.96335
-1539.8267,807.80286,-203.51013
-1538.0731,-31.398619,-228.59201
-1103.845,-741.79266,-345.62372
-1096.967,-1060.5111,-256.1907
-1245.5452,-695.045,-151.59425
-1643.6938,-49.369648,43.351772
-1637.8761,40.87314,166.19643
-3251.7625,2166.606,54.503365
-3068.827,4455.693,273.0684
-1262.5627,3014.362,104.77365
-164.15985,2000.9951,93.1109
699.5374,1061.0653,21.371727
896.79895,766.66876,62.279655
1003.8964,619.57404,62.718117
768.5598,656.1911,22.235792
451.368,837.35565,-38.44103
104.07506,1160.0026,-136.49123
-688.3325,3580.5894,-164.20393
-1802.5424,4074.0212,-128.01163
-1939.7365,2906.4841,-85.28371
-1854.1842,2008.5117,0.6243386
-1417.5671,429.35715,-103.76438
-1312.75,-253.57,-117.85756
-962.6331,-766.2018,-98.75329
-980.92865,-758.93616,-69.93617
-837.2838,-843.4689,-214.28159
-1335.3115,-89.219376,-74.93307
-1256.7295,-258.21182,-145.90398
-3521.959,2775.9258,451.67294
-3259.1016,5652.1685,574.8424
-611.03357,2412.8728,64.06768
237.80577,1296.8026,99.14611
923.0142,337.19476,-15.352577
827.737,254.06465,24.098764
780.39496,267.71948,-104.06857
606.1222,409.64163,38.102493
611.1647,650.6856,-89.83337
431.6711,1311.9625,-135.72292
-168.51393,3818.3777,-349.116
-1786.4487,4609.637,-263.60068
-1637.658,2394.3413,-64.55223
-1425.5576,1334.4462,76.10817
-1112.8649,254.85533,-19.371998
-952.37427,-174.86952,-91.309525
-863.7395,-676.2581,-245.34824
-1089.6792,-678.13525,-231.61176
-1021.4843,-516.02826,-149.2839
-1284.8063,-77.804054,0.8743811
-1281.873,-197.6652,-106.733025
-3497.346,2864.3145,351.792
-2805.4707,5478.0093,416.38248
-633.81323,2378.0308,56.09503
227.9234,1252.9917,30.784937
802.39124,449.47287,25.651133
1035.6654,370.70117,41.676144
935.08014,263.89355,-49.498528
716.76654,333.61215,-27.107777
441.97043,628.0616,-23.013897
305.07718,1505.6266,-132.01993
-519.4571,4104.547,-261.39035
-2005.0992,4290.095,-180.06302
-1689.0323,2072.7014,-22.889097
-1445.1863,1379.994,4.986054
-1193.6948,244.47144,-32.706676
-1102.1018,-308.2283,-109.86427
-1049.1095,-743.929,-111.770065
-1011.85693,-528.54584,31.413055
-1050.9823,-506.41437,40.263676
-1084.9974,-99.28968,109.64116
-1872.2552,486.58304,-93.668495
-3524.9084,4617.33,345.149
-1542.6522,3886.4412,204.67523
-166.05252,1522.7946,-125.609344
537.0724,1017.224,-99.86744
686.7962,365.36102,-48.505913
910.72003,412.5568,-102.09478
803.85126,292.40485,-119.872536
712.6489,588.89325,5.4051714
470.6189,1157.4801,-198.7333
209.72414,2651.1436,-305.1385
-750.72784,4222.338,-285.24536
-1510.2006,3635.9214,-166.99084
-1495.581,1712.7917,-28.227428
-1103.9827,531.1398,-76.940834
-1192.7311,-1.7568938,-140.3476
-1068.7966,-442.62537,-274.76788
-1076.0369,-519.8059,-157.46892
-954.2961,-488.997,-116.62531
-1222.3757,-182.47441,167.10567
-1123.0242,-175.25517,33.32939
-2901.9067,1965.9374,239.83998
-3554.3408,5370.2856,788.6586
-879.63086,2811.5034,84.792015
103.61973,1509.3713,49.257652
799.96906,725.26733,-134.14189
971.2998,176.59888,-9.68
1002.8514,216.10431,-110.27862
773.36176,369.195,-40.376568
646.7636,679.3099,-31.202812
399.02313,1250.7046,-129.66391
-199.60759,3183.0579,-339.99225
-1153.5884,4560.5166,-424.93066
-1665.2268,3651.123,-304.6428
-1736.2811,1788.4248,-161.78343
-1320.6085,441.97507,-87.40391
-1295.5886,-90.34805,-34.741093
-1073.3711,-782.61755,-151.09251
-1119.2251,-937.14075,-62.76656
-1030.2104,-679.61957,-22.334774
-1372.5928,-150.29066,107.406044
-1401.3994,-278.84357,-101.22887
-3294.5398,1885.7057,282.2722
-3603.4875,4559.996,515.17236
-1629.7417,2850.0813,104.79712
-389.9917,1864.3121,-3.3846085
435.32938,968.0184,-122.12789
802.9106,647.93555,-107.98607
921.70215,650.13135,-143.65561
631.2034,843.12225,-43.642548
497.83514,1078.4706,15.239639
251.25516,1438.178,-69.75123
-310.72897,2368.098,-215.9005
-1789.0153,3567.4014,-125.55035
-1981.3418,2822.019,-86.42537
-1965.1194,2009.7235,-58.12609
-1535.7892,666.3803,-0.6120625
-1297.9943,-288.59653,17.713005
-1002.44495,-854.75946,-187.15936
-1038.8258,-900.2807,-263.02606
-1206.6586,-784.6886,-213.68852
-1315.8003,-326.07837,-136.49037
-1433.0481,-69.6607,-44.75407
-2949.4663,1887.3083,-47.98972
-2907.9463,3674.2344,193.79906
-1244.237,3072.1226,100.954575
-282.22736,1788.668,19.9169
315.84283,1220.5391,23.603682
529.78705,731.89136,36.868732
712.24365,686.5243,35.45677
588.03253,503.05676,42.113903
431.24298,655.8763,109.10124
112.01073,1000.0573,17.500095
84.240875,2028.884,-140.08403
-1022.8705,4221.44,-225.34717
-1827.5876,3953.2834,-336.23975
-1771.5537,2103.7144,-252.8001
-1364.7588,724.76666,-185.02896
-1197.5344,-194.87578,-200.03003
-1005.5442,-696.1697,-230.02072
-1034.1975,-1115.43,-187.67168
-918.33405,-492.2427,-175.2983
-1220.6125,-318.35477,3.8785815
-1193.7614,-57.703163,-33.617306
-2669.1326,744.27246,33.344738
-4519.1885,5059.9824,611.0668
-1644.7452,3683.1108,112.33841
-260.91333,1409.7603,1.362
597.55786,959.0294,-89.75327
796.52155,329.27164,-25.25114
935.8088,514.01215,-182.06337
714.45,386.2297,-147.30112
622.5861,635.552,-74.00011
302.32104,1268.8693,-47.75945
-129.7592,2642.6218,-204.13528
-1443.2952,4178.038,-235.72578
-1938.1859,3341.92,-89.61358
-1794.1227,1522.7206,-59.64142
-1176.7092,440.83118,-34.812904
-1010.2827,-123.72969,-63.204586
-815.2566,-410.94055,-133.4508
-949.5532,-450.92523,-78.854225
-761.2271,-601.17084,-127.95297
-1123.8855,-391.125,-93.69555
-1022.4742,-265.9451,-188.3547
-2741.41,1633.3749,336.91248
-3439.0374,5406.043,852.0437
-997.435,3008.8977,104.31381
58.631878,1429.8159,33.262638
679.022,731.7124,-114.03931
810.9631,166.70407,29.364372
1027.1094,355.14163,-100.64655
805.39703,400.9859,-110.68507
712.691,481.14328,-52.80299
407.61774,931.2696,-158.30986
-1.1472263,2767.3972,-249.22612
-1114.3931,4207.2197,-165.97545
-1742.3381,3491.0442,31.274044
-1678.1509,2227.2166,81.25821
-1392.235,1036.4104,37.140034
-1218.9539,62.0079,12.523425
-1044.4843,-389.55264,-22.282724
-1037.1346,-668.37134,6.151046
-994.6589,-651.2399,-15.187637
-1007.17834,-468.98608,-21.111414
-1039.9241,-139.34738,-16.720755
-1843.4316,470.79947,-39.96643
-3857.128,4271.546,680.4206
-2237.711,4526.7646,395.81677
-270.71207,1771.738,-23.522558
521.8102,1109.6031,-0.35646215
863.49817,358.3359,-95.78877
1078.513,255.57733,-192.41777
935.4854,467.79977,-192.13396
707.91003,788.78766,-66.06177
404.3581,775.9312,-211.14893
258.62292,1969.8387,-346.94193
-939.0764,4278.3335,-670.07086
-1995.7925,4329.1924,-377.72006
-1897.3774,2730.9583,-88.38439
-1630.9719,1278.7174,-38.309456
-1268.5836,24.621109,-25.987976
-1126.7261,-354.4162,-50.587914
-968.04407,-857.5709,-155.77194
-855.0957,-827.11536,-103.75989
-818.8827,-470.5082,-54.48737
-929.1104,-31.717714,81.276535
-1066.7899,80.48194,-104.525894
-2935.548,2279.9673,388.15436
-3122.2195,3374.664,892.8096
-1808.435,2064.644,539.70844
-946.21716,1629.0406,370.40564
-343.73685,936.2241,195.7806
68.99183,557.52924,-12.859565
364.04175,461.56165,-125.58438
421.71558,518.0628,-5.38178
375.40317,736.1661,144.14238
67.66249,910.47107,100.060745
-463.5861,1143.652,31.930555
-2778.3062,1866.8352,523.62256
-2720.7817,804.5898,208.20937
-2358.563,394.91245,113.113396
-2100.867,460.92712,269.2257
-1708.748,203.06552,212.86295
-1276.7323,115.368546,28.632868
-978.2928,182.78789,-53.65967
-969.1061,102.617546,30.134075
-677.97107,89.63563,-24.558876
-712.19904,52.54763,-5.3828306
-560.55963,-7.6186037,110.87955
-554.705,141.26305,178.63103
-489.73212,334.30728,202.7375
-601.0618,729.2121,420.1497
-930.96704,1454.3987,451.77997
-1033.2704,1314.175,566.65
-964.15216,1105.2609,635.2055
-732.49286,1082.659,437.66724
-435.54016,805.7575,321.06033
-364.42987,614.79803,332.22836
-342.18192,417.24954,284.1611
-501.45245,545.36365,324.982
-621.2745,700.9898,373.69705
-816.2031,672.4048,445.92752
