acc_x[mg],acc_y[mg],acc_z[mg]
-442.128,876.692,211.792
-416.996,879.864,200.568
-402.6,887.672,192.76
-404.552,883.524,192.028
-419.68,878.4,198.128
-415.044,878.156,197.396
-408.456,874.496,183.0
-394.06,876.204,163.236
-385.52,885.232,161.528
-366.732,895.236,153.476
-362.828,894.748,145.18
-370.88,893.528,147.132
-369.904,898.164,149.328
-371.612,899.14,143.228
-373.564,911.34,144.448
-341.6,911.584,123.708
-343.064,914.024,107.36
-328.912,922.808,91.012
-335.5,926.224,97.356
-342.088,938.668,110.532
-306.952,945.5,109.556
-275.232,931.592,89.304
-244.488,927.2,68.564
-224.724,928.664,60.512
-201.056,936.472,65.88
-138.592,945.744,32.94
-122.0,944.768,30.012
-134.2,957.7,50.996
-104.188,979.416,45.872
-95.648,999.18,43.432
-58.072,1018.944,43.432
-71.492,1018.212,53.924
-92.232,1014.064,63.684
-109.312,997.228,60.756
-145.424,993.08,79.3
-169.824,979.904,84.912
-184.22,963.8,89.304
-182.024,941.352,81.252
-170.8,939.888,74.664
-172.996,940.864,71.736
-170.312,951.6,80.764
-162.016,961.36,71.248
-162.016,969.412,60.268
-143.716,953.308,55.632
-170.8,977.952,97.844
-150.06,968.924,104.676
-140.788,968.436,117.364
-113.216,967.948,129.808
10.004,984.052,116.876
30.744,976.0,121.268
43.92,987.224,154.696
85.4,990.884,155.672
95.404,1019.432,152.012
141.276,1035.78,138.836
198.372,1042.612,127.368
193.98,1039.684,127.124
146.4,1025.776,122.732
106.872,1009.428,122.732
69.784,992.836,122.732
18.3,986.248,139.812
11.468,964.532,125.172
35.624,965.752,87.596
42.944,972.096,68.32
44.652,987.712,81.984
50.02,979.416,66.856
58.804,972.584,61.732
59.536,965.02,88.572
65.88,963.556,107.848
74.42,965.02,121.756
90.036,983.808,115.168
94.916,998.692,102.236
98.82,1009.916,98.088
98.332,1012.356,99.552
84.912,1007.232,113.216
75.152,1006.5,129.32
68.808,998.692,138.104
81.496,993.324,132.492
79.056,992.348,131.516
70.76,995.032,127.124
71.492,1003.816,113.704
50.752,1003.328,113.46
21.228,1000.644,111.508
5.612,1002.352,100.528
-18.544,997.228,96.136
-51.484,986.248,98.088
-85.4,978.684,102.724
-120.536,978.928,121.268
-121.756,965.508,116.632
-110.044,962.58,98.576
-86.132,960.14,84.424
-66.612,955.992,79.3
-59.78,959.408,88.328
-71.248,965.264,103.944
-76.128,975.024,125.172
-67.832,972.34,124.196
-60.024,973.316,118.096
-45.14,979.904,105.652
-38.796,987.956,95.16
-41.724,989.176,85.156
-59.292,995.032,88.572
-73.2,991.616,97.844
-85.4,993.08,102.968
-84.912,982.832,95.16
-76.86,981.368,87.352
-61.488,987.468,84.18
-58.072,986.98,85.888
-65.392,984.052,93.696
-74.664,981.124,103.456
-78.08,977.464,111.508
-76.86,975.268,112.484
-72.224,975.024,107.604
-73.688,976.732,97.844
-70.516,984.784,93.94
-73.932,991.128,91.744
-84.912,988.444,93.452
-90.036,982.1,95.648
-84.912,970.632,90.524
-97.112,964.288,94.184
-105.164,968.924,96.136
-111.752,973.804,95.404
-121.512,975.268,99.308
-122.244,970.144,100.528
-111.508,965.508,91.012
-102.724,964.288,88.816
-108.092,964.532,91.744
-114.436,969.168,97.844
-116.876,978.196,107.116
-115.168,980.392,115.9
-106.14,979.66,115.168
-98.088,978.684,119.316
-102.48,977.464,125.416
-105.408,982.832,130.784
-97.112,988.688,128.588
-93.208,986.492,128.588
-89.792,975.024,123.22
-95.892,964.288,118.584
-107.604,962.336,124.684
-120.048,964.532,129.564
-123.464,968.924,131.028
-119.316,974.048,130.784
-104.92,974.78,123.22
-90.036,975.756,115.412
-93.452,975.024,118.584
-101.016,980.636,132.248
-106.14,981.856,139.324
-107.848,980.392,142.984
-102.968,974.048,141.52
-100.284,969.412,139.812
-104.92,969.412,141.032
-104.188,972.096,141.52
-108.58,969.656,145.18
-105.896,968.68,146.156
-106.14,970.632,151.524
-103.456,970.144,154.208
-109.556,968.436,158.112
-106.872,971.364,156.648
-100.528,978.196,155.184
-95.648,981.612,151.036
-98.088,984.052,149.328
-92.72,995.032,151.524
-93.696,1003.084,152.5
-84.912,1014.552,158.356
-75.396,1019.432,154.452
-71.492,1030.9,156.892
-67.832,1057.984,160.552
-36.6,1079.944,159.82
-22.204,1066.036,176.412
-41.236,1025.532,199.836
-85.156,991.86,215.696
-151.768,958.676,228.14
-224.236,918.904,224.236
-303.536,884.012,225.944
-373.32,862.54,222.04
-422.608,849.852,207.4
-447.984,833.504,176.412
-454.816,829.844,157.136
-448.228,830.576,142.496
-459.94,827.892,145.424
-450.912,826.428,145.18
-430.172,830.332,136.152
-410.652,848.388,134.444
-380.64,860.588,124.44
-364.048,875.716,123.22
-354.532,891.088,130.052
-369.172,887.428,141.764
-390.4,867.42,155.184
-411.384,854.732,158.112
-420.656,854.732,161.772
-404.064,874.008,166.408
-379.908,873.032,153.72
-377.468,862.784,153.476
-384.788,833.992,150.304
-420.168,787.144,141.52
-502.152,718.336,131.76
-578.524,637.328,133.712
-653.432,554.368,156.648
-671.488,467.748,180.56
-624.884,354.532,199.348
-596.58,226.188,235.46
-554.124,116.388,254.248
-450.668,7.076,238.632
-323.788,-85.888,172.996
-90.768,-165.188,81.496
198.128,-252.296,18.056
580.964,-305.0,-103.212
1075.064,-293.288,-206.424
1462.78,-369.904,-186.172
1654.808,-540.704,-278.16
1772.66,-584.868,-204.716
1800.964,-385.032,-4.88
1821.704,-335.5,108.092
2029.592,-405.772,127.612
2038.62,-425.536,156.648
1892.952,-381.372,232.532
1793.156,-348.676,288.408
1729.228,-335.5,284.016
1605.52,-310.612,292.556
1463.024,-259.86,262.056
1373.964,-213.5,189.1
1347.612,-192.76,121.512
1292.468,-184.708,101.26
1286.368,-190.32,77.836
1318.576,-214.72,93.208
1371.28,-223.748,126.148
1443.748,-229.116,173.484
1554.524,-225.944,214.232
1651.392,-168.116,225.212
1775.832,-106.628,221.064
1894.416,-74.176,183.488
2003.24,-74.664,116.632
2029.836,-91.744,51.972
1957.368,-123.952,39.772
1857.816,-167.628,41.968
1707.512,-221.552,59.048
1522.804,-301.828,113.704
1337.608,-358.924,151.28
1179.496,-387.228,160.064
1027.728,-390.644,118.584
865.224,-345.748,26.108
682.956,-280.356,-81.496
536.556,-213.744,-184.708
471.164,-160.308,-310.124
412.604,-111.02,-438.224
357.948,-58.804,-573.644
305.732,-27.816,-679.54
258.884,-6.1,-706.38
277.672,-19.52,-717.604
294.752,-51.972,-642.208
255.712,-70.76,-498.004
253.028,-69.54,-344.04
275.964,-48.556,-197.64
289.384,-6.344,-76.86
328.424,31.232,35.136
332.328,66.368,166.652
336.476,94.428,288.896
387.472,108.58,433.588
440.664,88.084,574.132
565.104,40.748,713.7
657.336,22.936,864.492
707.356,-0.488,1005.524
754.692,-11.224,1098.488
813.496,-11.956,1164.856
889.136,-2.196,1188.28
1003.572,25.864,1179.984
1098.244,40.992,1197.064
1177.056,28.06,1205.848
1246.596,11.224,1209.264
1341.024,11.224,1093.12
1369.328,-3.172,938.668
1337.12,-34.16,788.608
1390.312,21.716,558.028
1425.448,103.7,243.512
1429.596,157.136,9.028
1440.576,213.744,-223.504
1410.808,264.252,-402.844
1347.124,287.92,-499.468
1291.492,264.252,-539.728
1259.284,200.568,-489.464
1214.388,140.544,-434.32
1150.46,98.332,-376.248
1126.548,60.756,-306.22
1103.124,43.432,-249.368
1052.128,39.772,-138.104
1016.992,40.504,-34.404
1021.872,37.82,77.348
1036.268,48.8,142.496
1051.64,73.932,183.244
1082.14,105.896,204.472
1128.012,132.248,218.136
1169.736,133.224,230.824
1207.8,123.952,232.044
1226.832,110.532,247.416
1262.212,93.208,241.56
1293.444,87.352,249.124
1349.076,80.276,262.788
1371.768,62.22,281.82
1342.244,52.46,310.124
1350.052,66.856,326.716
1338.34,84.18,310.612
1344.928,92.476,330.864
1381.772,93.208,302.316
1334.436,116.632,310.612
1234.152,156.404,240.584
1017.48,201.056,234.24
783.728,241.804,233.996
648.552,292.8,220.576
596.58,332.084,197.884
528.26,353.556,188.612
343.308,365.268,210.328
198.372,395.768,203.74
45.872,439.2,237.168
-182.268,486.048,348.432
-353.312,534.604,409.188
-512.644,552.416,453.84
-668.56,569.252,486.048
-757.376,558.028,430.172
-777.14,617.076,351.848
-759.084,656.116,240.096
-757.864,704.672,174.948
-710.284,769.82,150.06
-598.044,839.604,101.748
-524.6,911.34,104.188
-456.768,979.66,116.876
-351.116,1020.164,116.632
-285.236,1038.22,105.408
-312.076,1025.044,137.86
-295.24,1004.06,165.188
-288.652,991.128,177.876
-296.216,967.948,185.684
-277.916,957.212,185.196
-259.86,945.744,177.876
-245.22,939.888,161.04
-249.124,937.936,163.724
-274.5,932.324,170.8
-292.312,926.956,167.872
-309.392,929.396,174.704
-297.924,932.812,177.632
-268.4,935.008,175.924
-258.884,927.932,192.516
-255.224,925.004,199.104
-260.348,926.224,204.228
-264.008,926.956,206.424
-255.468,920.612,198.616
-252.296,917.928,200.812
-231.312,923.54,197.64
-237.9,927.932,210.572
-252.784,925.004,221.796
-262.056,934.032,215.94
-271.328,946.72,194.224
-255.468,950.624,162.748
-241.804,948.672,152.256
-243.024,945.5,168.604
-261.324,939.888,175.192
-296.948,937.448,192.516
-313.296,941.352,187.148
-308.66,939.644,170.8
-289.14,935.496,171.044
-258.884,935.008,155.672
-247.904,936.228,158.844
-253.76,938.18,164.212
-266.936,934.764,169.336
-275.232,928.664,169.092
-270.352,931.592,173.972
-270.108,926.224,178.608
-267.668,919.392,172.02
-269.132,918.904,168.36
-262.056,931.104,150.304
-278.16,933.544,152.744
-256.688,931.592,140.544
-289.872,926.712,152.012
-281.088,918.416,149.572
-274.012,920.612,147.376
-283.284,932.324,155.184
-284.016,939.644,160.552
-263.52,948.428,154.94
-271.328,940.62,151.28
-249.612,957.456,153.964
-255.224,945.5,154.452
-265.96,904.02,173.972
-301.34,996.252,190.808
-277.184,929.64,160.552
-247.66,916.952,156.648
-223.26,924.272,173.484
-217.16,939.888,173.484
-231.068,939.888,196.42
-236.924,928.176,190.076
-227.896,914.756,193.004
-246.928,927.932,204.472
-254.736,931.104,203.252
-247.904,934.032,191.296
-256.444,931.104,188.368
-275.72,930.372,189.1
-270.84,932.324,177.144
-257.42,934.764,167.14
-248.636,938.18,149.084
-253.516,949.648,158.844
-251.32,953.308,151.28
-263.52,950.624,150.06
-284.504,952.088,149.816
-357.704,962.58,198.372
-305.732,935.496,136.152
-330.132,932.812,145.424
-293.532,928.908,136.64
-302.804,931.104,144.204
-315.248,923.296,177.144
-308.172,921.344,185.44
-310.612,929.884,194.468
-290.116,936.472,181.536
-269.132,942.328,158.112
-278.892,952.088,149.816
-313.296,968.924,175.436
-314.272,952.82,184.708
-309.148,935.008,185.684
-315.248,919.148,191.052
-311.344,900.848,187.88
-327.204,882.304,189.588
-342.576,867.176,199.104
-350.384,841.556,192.516
-357.948,827.892,196.176
-356.24,808.86,194.712
-369.416,773.724,201.3
-401.868,707.844,211.548
-427.244,641.964,219.356
-434.808,601.704,203.252
-439.688,559.736,189.1
-450.424,512.644,172.02
-442.86,503.86,163.724
-337.696,536.068,156.16
-141.764,496.54,118.584
-37.332,401.136,111.02
32.208,271.572,80.52
104.92,175.192,50.752
361.12,152.012,-29.768
667.828,114.68,-110.288
798.124,61.732,-62.708
897.92,-62.952,-26.84
1242.448,-177.388,-112.728
1560.624,-279.136,-191.052
1672.62,-336.72,15.128
1707.512,-302.56,32.94
1663.836,-260.104,69.54
1668.96,-227.896,101.26
1683.844,-203.74,84.424
1602.348,-214.232,126.392
1479.372,-223.992,162.504
1393.728,-235.216,183.732
1361.764,-252.784,189.832
1306.132,-244.244,180.316
1251.232,-208.864,173.484
1212.68,-188.612,116.388
1202.676,-198.372,113.216
1209.02,-228.384,157.136
1287.832,-244.488,150.792
1355.664,-227.896,172.02
1452.532,-206.18,174.948
1550.62,-177.876,169.58
1593.076,-124.196,193.736
1718.004,-89.304,141.52
1856.352,-88.816,71.004
1912.228,-92.72,45.14
1926.868,-127.368,52.216
1868.552,-156.892,73.444
1772.904,-201.544,72.712
1648.708,-242.536,54.656
1515.728,-248.88,24.888
1402.268,-268.4,19.032
1265.872,-294.996,37.576
1113.86,-323.056,61.244
964.532,-318.176,74.908
828.868,-301.34,79.544
720.532,-279.868,48.8
634.888,-227.652,-43.676
562.176,-163.724,-138.592
505.324,-94.672,-225.944
447.252,-31.232,-300.852
396.256,32.208,-376.736
416.264,98.088,-491.904
439.932,148.596,-597.068
475.068,161.284,-658.068
465.308,152.744,-646.6
447.496,147.864,-564.372
413.824,122.0,-418.948
411.628,89.792,-261.568
439.688,68.076,-102.724
437.492,66.368,65.88
401.868,86.376,222.528
398.696,124.928,315.004
391.376,163.236,401.136
431.148,171.776,493.124
480.436,151.036,613.66
544.364,122.488,752.984
594.384,96.624,897.676
626.836,68.32,997.472
697.108,57.584,1048.468
801.052,90.28,1045.052
920.368,175.68,1001.864
1031.388,249.612,972.584
1107.516,241.804,999.668
1175.104,200.812,1043.1
1232.932,150.792,1043.832
1279.78,144.692,984.54
1344.196,127.368,852.292
1364.936,92.964,724.924
1424.472,112.972,525.82
1451.8,156.648,297.192
1428.62,182.268,117.12
1362.74,194.468,-11.956
1315.404,220.088,-142.008
1278.56,237.656,-255.224
1223.904,236.436,-319.152
1170.956,222.284,-331.596
1135.82,208.376,-331.84
1086.776,184.952,-298.656
1042.124,173.484,-254.98
1004.792,165.432,-186.904
993.324,168.36,-113.704
966.972,168.36,-31.232
971.12,180.804,43.188
972.34,178.608,107.848
983.32,179.584,146.4
967.704,185.196,183.732
985.272,196.176,204.96
1004.792,202.764,213.5
1029.436,207.644,227.408
1047.248,191.296,237.656
1044.564,176.9,244.732
1067.256,168.848,249.124
1100.928,172.508,231.068
1127.28,173.972,227.896
1170.224,181.292,216.916
1199.016,182.024,215.452
1207.068,174.704,235.216
1235.128,162.016,262.788
1278.072,148.84,296.704
1335.9,158.844,304.024
1390.556,181.78,309.636
1446.92,206.424,275.72
1455.216,220.82,302.072
1355.908,268.156,292.068
1236.836,340.868,292.556
1158.756,394.304,233.02
942.572,445.788,261.08
769.332,484.584,266.692
588.284,475.556,279.624
464.332,487.512,288.164
306.464,449.692,285.968
62.22,441.396,357.46
-166.652,501.664,459.208
-324.276,455.548,446.276
-571.448,480.192,484.34
-688.812,477.264,376.736
-746.884,453.596,281.332
-799.588,445.544,217.892
-802.516,477.752,163.48
-794.464,509.472,86.864
-800.808,545.828,61.732
-779.824,605.12,48.556
-755.424,661.24,66.612
-670.512,749.812,94.916
-592.432,829.356,100.04
-529.724,894.26,114.192
-487.268,929.64,122.976
-469.7,947.94,134.2
-441.396,922.32,136.396
-440.664,882.304,139.324
-462.868,836.432,149.084
-464.088,837.164,150.548
-492.148,832.528,152.744
-504.592,830.332,156.648
-531.188,811.788,155.916
-529.48,817.644,142.496
-549.244,811.3,143.96
-523.38,822.036,139.812
-506.788,834.724,145.668
-447.496,848.876,139.08
-448.228,850.096,148.84
-469.7,851.316,164.456
-502.152,855.22,152.5
-522.16,849.12,150.548
-511.912,838.384,145.668
-504.348,824.72,145.18
-489.22,816.18,148.84
-495.564,804.468,158.356
-493.124,803.004,155.672
-507.764,811.544,165.92
-503.616,819.84,153.72
-496.052,829.844,156.648
-487.512,830.576,146.4
-482.632,828.136,154.696
-486.536,818.132,158.356
-484.096,831.552,158.844
-497.76,832.04,159.82
-488.732,848.144,137.128
-497.516,853.512,131.76
-502.64,849.608,130.052
-496.052,844.484,136.396
-493.856,835.212,149.084
-480.924,835.944,154.696
-478.484,854.732,152.988
-465.552,864.492,144.448
-461.892,868.152,134.444
-463.6,863.028,134.688
-470.676,862.54,140.788
-472.384,851.56,148.108
-469.7,848.144,151.768
-464.088,850.828,153.964
-452.62,854.976,145.912
-444.568,856.196,133.956
-456.524,849.608,135.664
-467.748,842.288,134.444
-485.316,835.944,146.888
-487.756,841.312,153.72
-473.604,855.708,148.352
-449.936,869.372,139.568
-427.976,876.692,122.0
-424.804,872.056,123.464
-444.812,859.612,131.76
-468.968,851.804,150.304
-484.096,854.244,166.652
-473.604,855.464,165.676
-455.548,848.388,154.208
-438.956,849.608,135.176
-433.1,856.928,118.828
-431.148,863.76,103.456
-440.176,867.664,103.456
-436.76,878.156,101.016
-447.496,870.836,111.02
-451.644,861.564,119.316
-456.768,858.88,124.196
-450.424,865.468,118.34
-443.104,864.004,108.824
-431.148,862.784,111.264
-422.852,863.76,127.124
-415.288,867.664,137.128
-417.24,883.524,146.644
-408.944,904.996,135.42
-399.916,918.416,124.928
-387.96,924.272,112.24
-378.2,924.76,104.676
-377.712,923.296,102.236
-387.716,919.88,105.164
-403.576,915.488,111.02
-416.996,909.144,116.388
-418.704,906.216,113.948
-420.168,895.724,114.192
-422.12,889.624,116.876
-425.292,889.136,123.952
-414.556,892.552,123.708
-417.24,893.284,132.004
-413.336,897.188,138.592
-409.676,904.264,141.032
-407.968,910.852,139.568
-402.6,912.56,132.248
-399.184,915.244,129.076
-391.62,914.024,134.688
-387.96,908.412,150.792
-388.936,904.02,167.628
-382.348,900.36,167.872
-383.324,899.628,165.432
-377.468,891.332,150.304
-386.984,881.328,149.328
-398.94,862.784,152.256
-426.756,833.26,165.92
-449.204,800.32,183.0
-466.772,759.816,195.2
-472.384,716.872,193.492
-475.068,664.9,181.536
-478.972,602.68,164.7
-504.836,531.188,159.088
-563.64,468.968,152.5
-541.924,426.512,152.5
-516.304,365.024,163.236
-504.836,331.84,167.14
-448.472,316.956,139.08
-397.232,266.204,127.124
-277.672,175.68,87.352
-98.82,76.372,17.812
175.192,3.172,-47.336
559.736,-29.768,-72.712
1135.088,-68.808,-313.296
1451.068,-103.7,-429.684
1423.008,-210.816,-186.66
1737.524,-239.852,-189.1
2021.296,-177.144,-256.688
1947.364,-45.14,-219.6
1880.752,71.736,-252.784
1752.164,109.556,-257.42
1579.9,73.932,-126.636
1535.98,-22.936,25.864
1578.68,-121.512,46.604
1448.384,-95.404,115.656
1294.176,-45.628,81.252
1268.8,13.176,-25.62
1202.676,33.428,-82.472
1173.396,38.796,-121.756
1149.24,12.688,-102.48
1185.596,-46.604,-48.068
1261.48,-101.504,9.272
1288.076,-96.136,41.236
1292.712,-52.216,33.916
1321.504,-1.22,-31.476
1385.432,44.652,-34.404
1463.512,49.532,-0.488
1578.436,16.836,25.864
1641.876,0.244,34.16
1683.112,24.888,3.172
1737.036,0.976,-30.256
1776.076,-55.144,-73.444
1801.452,-129.808,-132.98
1770.464,-180.804,-96.38
1725.568,-182.756,-156.892
1608.936,-187.636,-195.2
1463.024,-213.988,-205.936
1294.176,-236.192,-190.564
1168.516,-249.124,-190.076
1038.708,-254.736,-221.064
904.02,-245.22,-247.172
787.144,-220.332,-288.896
688.08,-195.444,-312.076
610.244,-159.088,-352.824
526.064,-115.9,-404.796
460.916,-57.584,-456.768
455.304,-3.172,-524.112
449.204,28.548,-571.204
410.652,50.264,-555.1
377.468,87.596,-515.572
343.308,124.196,-464.088
346.724,167.872,-448.716
380.152,184.22,-378.688
393.572,172.264,-253.516
391.864,132.98,-148.108
409.676,110.532,-40.748
423.34,139.324,73.688
446.52,174.216,177.876
464.088,210.816,286.944
483.852,213.5,414.556
543.388,187.392,542.656
581.452,173.484,684.908
579.988,160.552,804.712
602.924,150.792,877.18
656.116,164.7,920.368
753.96,176.168,927.444
836.92,174.948,922.32
888.648,173.728,915.488
941.108,170.8,893.772
972.828,152.256,898.652
1008.696,141.032,896.456
1043.344,138.348,891.576
1103.612,129.076,846.924
1182.912,120.292,785.924
1285.392,116.388,706.136
1354.2,86.376,616.344
1444.236,57.828,499.956
1467.416,45.872,380.64
1441.552,41.236,275.72
1444.236,53.436,142.008
1421.544,69.296,-24.644
1418.128,118.828,-215.208
1360.3,172.02,-370.148
1311.012,191.784,-459.696
1247.572,181.536,-464.82
1176.812,157.136,-450.424
1117.032,136.396,-413.58
1090.192,119.56,-378.932
1046.028,119.072,-309.88
1024.068,129.076,-255.712
999.18,136.884,-182.512
981.368,140.544,-108.092
958.188,137.86,-20.008
959.896,132.248,62.464
980.636,121.512,129.076
998.936,126.88,167.872
1021.872,142.008,180.072
1042.856,163.236,176.412
1047.492,177.388,172.752
1041.636,178.852,176.9
1032.364,168.116,198.616
1028.46,148.596,213.5
1037.976,125.416,217.892
1031.144,120.78,214.72
1031.388,130.784,194.468
1028.704,149.328,171.288
1043.588,168.848,170.312
1128.988,167.14,171.288
1266.848,150.304,162.748
1306.376,123.708,176.9
1365.668,127.612,190.076
1452.044,120.536,172.996
1399.096,161.284,170.312
1377.136,215.208,119.56
1282.464,271.328,68.564
1160.708,327.204,68.076
1035.048,397.232,62.464
882.304,490.196,99.308
714.188,543.632,104.188
523.136,574.376,109.8
362.096,595.36,126.636
267.668,613.172,131.76
190.32,638.06,157.624
63.196,663.192,217.16
-113.948,663.68,247.416
-259.616,711.504,270.84
-357.216,762.256,284.016
-429.196,780.8,251.564
-492.636,810.568,219.844
-463.356,865.956,162.992
-375.516,911.096,90.28
-362.828,937.936,60.268
-395.036,964.776,47.824
-427.976,994.3,46.36
-471.164,1007.232,49.532
-459.94,998.692,35.624
-399.428,985.516,-2.196
-353.068,984.784,13.664
-324.52,969.412,31.72
-331.596,937.448,66.612
-329.888,904.996,81.984
-293.532,896.7,76.86
-295.24,875.472,85.888
-286.212,869.372,92.72
-287.432,874.74,107.116
-209.108,907.924,89.06
-184.464,921.344,77.592
-189.344,929.64,70.272
-208.376,937.936,81.984
-255.468,938.18,106.872
-307.928,929.396,130.54
-289.384,918.904,103.212
-261.812,935.496,71.98
-223.26,966.972,58.56
-213.988,992.104,52.948
-223.26,987.224,52.948
-236.924,994.056,59.048
-220.088,988.444,44.896
-243.268,985.516,56.608
-252.296,982.1,51.972
-270.108,1015.528,61.0
-229.848,989.42,52.46
-217.892,975.268,40.016
-226.92,961.604,48.068
-217.404,961.36,44.896
-222.772,962.58,53.924
-236.924,960.384,68.808
-237.412,961.36,71.736
-232.776,955.748,83.204
-227.164,949.404,65.392
-219.844,955.016,65.392
-220.332,951.844,71.492
-219.844,929.396,64.416
-223.016,925.004,78.812
-246.196,924.76,88.572
-270.596,934.764,100.772
-277.916,935.496,119.072
-259.372,936.472,110.044
-249.368,935.008,110.288
-226.188,936.716,83.936
-232.044,954.04,85.888
-215.452,979.172,68.564
-222.772,976.0,64.66
-214.232,975.512,61.976
-192.76,965.264,54.656
-194.468,952.332,70.272
-188.124,952.088,77.348
-171.044,960.628,64.416
-147.864,976.244,47.824
-123.952,987.468,31.964
-124.44,989.908,37.576
-135.908,987.712,40.016
-168.604,988.444,64.416
-170.8,979.66,54.9
-171.776,968.924,52.216
-163.968,967.704,36.844
-169.824,969.412,37.088
-179.34,961.116,44.896
-198.616,952.332,49.532
-197.152,949.648,51.972
-184.708,948.916,46.116
-172.996,947.452,39.772
-180.804,946.232,37.332
-189.1,956.968,38.796
-192.272,969.412,37.332
-169.58,978.928,22.448
-162.504,978.44,20.252
-184.952,978.44,32.452
-218.136,978.44,48.8
-229.604,976.244,45.14
-212.768,973.316,34.404
-188.612,972.34,20.496
-178.12,973.072,20.008
-180.072,980.88,26.108
-187.392,986.736,42.212
-194.224,979.172,52.216
-191.784,965.752,58.316
-200.568,957.456,61.244
-200.08,950.868,62.464
-196.42,955.748,61.488
-191.784,957.456,53.924
-183.732,966.728,58.072
-172.752,966.484,47.336
-172.264,965.752,53.68
-182.024,970.632,51.24
-191.54,976.732,56.12
-204.228,978.928,52.46
-203.74,979.66,52.948
-189.344,983.808,49.288
-175.924,983.808,43.188
-168.116,981.856,38.064
-187.392,981.368,46.36
-197.396,982.344,53.68
-206.18,979.904,67.588
-213.012,979.172,75.396
-207.156,980.392,67.1
-209.596,981.856,58.56
-212.524,995.52,51.24
-223.992,1008.208,54.656
-243.512,1009.672,69.54
-267.424,1014.552,95.404
-292.8,1003.816,112.728
-323.3,985.028,131.028
-335.988,969.168,135.664
-346.968,946.964,131.516
-351.116,925.736,127.856
-346.48,904.508,118.828
-343.064,870.104,114.68
-360.632,816.18,119.804
-387.96,741.516,134.688
-422.852,655.628,150.06
-455.792,581.208,158.6
-483.364,528.504,156.16
-484.584,511.912,128.344
-480.436,511.912,109.556
-484.584,490.44,98.088
-415.776,439.932,69.784
-299.876,381.128,41.48
-237.168,319.152,1.952
-199.104,232.776,-63.196
-9.272,146.644,-100.528
408.212,48.8,-163.968
682.956,-102.724,-71.248
1040.66,-224.968,-64.416
1446.188,-319.152,-232.532
1331.996,-532.652,-39.04
1652.368,-505.08,124.684
1854.644,-464.576,-22.204
1854.888,-328.18,14.396
1802.672,-198.86,-30.988
1755.58,-149.816,-33.428
1619.672,-137.128,58.072
1555.012,-160.308,93.452
1498.892,-162.26,95.404
1409.1,-122.0,82.228
1343.952,-91.5,72.224
1292.712,-96.624,72.712
1244.4,-99.552,55.144
1192.184,-95.16,47.824
1177.544,-104.676,48.8
1243.668,-113.216,15.616
1333.704,-114.436,18.788
1402.024,-91.5,30.5
1448.628,-59.536,51.728
1542.08,-49.288,87.108
1637.484,-61.244,124.928
1814.14,-88.328,74.176
1913.936,-97.844,27.816
1941.996,-84.912,-20.984
1930.04,-91.988,-46.36
1861.476,-138.104,-22.448
1738.256,-196.908,13.42
1626.504,-215.208,26.108
1498.892,-220.82,33.672
1354.2,-236.436,35.38
1209.264,-256.444,24.156
1006.5,-277.672,39.772
796.904,-279.136,40.016
584.136,-274.256,45.384
420.168,-241.56,10.492
303.78,-173.484,-35.624
218.38,-91.256,-62.952
236.192,-6.588,-152.012
318.908,80.764,-271.084
446.764,168.848,-432.124
551.684,236.192,-574.62
626.836,278.404,-699.304
656.36,296.46,-762.256
616.1,302.56,-751.764
571.936,319.152,-712.48
516.304,306.464,-649.528
449.692,289.14,-555.832
418.704,272.792,-455.304
370.148,248.148,-301.828
330.864,228.14,-130.052
335.988,203.74,38.064
326.472,197.884,199.104
351.116,182.756,350.14
372.588,165.432,493.368
434.076,147.62,609.756
488.488,124.684,735.172
560.468,91.012,828.136
617.808,64.416,908.9
695.4,79.788,956.968
774.456,106.628,963.068
886.208,138.104,946.476
999.912,145.912,931.592
1084.092,137.616,954.528
1103.368,107.848,997.228
1170.956,75.884,1025.044
1245.132,72.224,985.272
1374.208,111.264,876.448
1460.584,127.612,751.032
1493.768,124.44,630.008
1471.32,169.58,450.424
1550.62,231.312,216.184
1525.488,243.024,97.844
1517.68,247.172,-10.248
1471.808,256.932,-157.624
1352.736,261.568,-216.672
1294.176,259.128,-275.964
1221.708,252.54,-283.04
1138.992,223.504,-255.224
1069.696,202.52,-211.548
1024.8,183.0,-164.456
982.344,169.58,-117.608
956.236,179.584,-81.252
947.452,185.44,-47.092
942.816,193.492,5.856
936.716,192.272,56.608
929.152,193.248,103.212
945.256,182.024,144.448
976.244,172.996,186.172
1009.428,158.844,217.16
1036.756,159.332,240.096
1052.616,156.16,252.54
1111.176,160.308,249.368
1165.832,149.816,247.172
1205.604,150.06,240.828
1232.932,155.916,244.488
1270.508,157.624,241.804
1292.468,169.824,227.408
1294.908,185.196,212.036
1270.02,205.204,232.532
1278.804,235.704,209.352
1276.364,246.928,210.816
1227.808,285.968,207.888
1229.028,343.796,172.02
1292.224,371.612,153.476
1270.02,345.26,187.148
1177.056,354.044,224.724
968.924,345.016,198.86
673.928,397.476,253.272
416.996,479.46,285.48
288.896,532.408,262.788
171.776,570.96,281.088
64.416,584.868,277.184
-68.076,543.388,249.856
-360.144,511.18,338.428
-588.528,510.692,436.272
-783.24,503.372,452.376
-864.248,472.384,363.804
-871.812,492.148,240.34
-869.128,577.06,164.944
-766.648,665.388,72.224
-747.128,737.856,41.236
-729.316,778.604,48.312
-701.744,795.44,88.328
-656.848,803.98,125.66
-627.568,815.692,168.36
-560.956,831.064,174.704
-463.6,871.324,178.608
-386.984,894.992,163.724
-345.26,898.652,155.184
-321.104,881.572,158.844
-323.056,877.18,161.528
-341.112,876.936,172.02
-336.476,880.352,172.508
-357.704,880.596,168.36
-348.92,896.7,158.356
-353.312,898.652,147.376
-326.472,907.924,120.536
-306.464,919.636,95.892
-294.508,936.472,90.768
-311.344,944.036,98.82
-319.64,950.38,96.38
-329.156,945.988,95.16
-326.716,942.084,95.404
-321.104,933.544,84.912
-329.888,936.228,85.888
-310.856,944.28,70.516
-309.148,943.304,69.052
-308.416,935.252,67.832
-313.052,927.932,72.468
-323.056,922.076,81.496
-326.228,917.684,80.52
-301.096,920.368,71.98
-264.496,925.98,66.856
-248.636,932.08,78.08
-243.756,937.936,83.692
-253.76,943.06,92.964
-253.76,947.208,86.62
-213.5,962.824,62.708
-200.324,967.704,59.78
-200.08,969.9,53.924
-210.572,965.508,43.92
-242.78,970.388,61.0
-260.348,971.364,61.488
-248.88,966.24,53.192
-224.724,960.14,44.408
-216.916,948.428,38.552
-228.872,940.864,40.992
-224.968,944.524,34.892
-225.944,953.064,42.212
-216.672,963.556,38.552
-223.748,974.048,42.456
-219.356,986.736,35.38
-196.42,988.2,20.008
-164.456,980.636,1.464
-152.256,977.22,-1.464
-167.628,980.88,-0.732
-196.42,986.736,12.932
-194.956,989.908,14.396
-179.828,988.444,6.1
-162.26,989.664,-1.708
-153.964,994.056,-9.516
-160.552,982.832,-7.32
-158.844,971.608,-18.788
-170.8,970.144,-7.808
-175.436,968.192,-6.832
-181.78,966.24,1.464
-183.976,966.484,6.832
-180.56,966.728,1.464
-165.432,964.044,-9.516
-154.696,962.336,-10.248
-145.912,962.58,-12.444
-152.5,965.264,-5.124
-163.236,963.312,0.488
-179.828,963.068,7.564
-185.928,964.532,2.196
-176.9,969.412,-0.976
-161.284,972.34,-8.784
-153.72,970.388,-15.372
-160.064,967.216,-14.64
-159.088,976.488,-14.884
-166.164,976.244,-12.2
-166.408,978.684,-9.272
-170.556,980.88,-3.172
-166.896,975.268,-1.22
-158.844,966.972,-8.052
-154.696,969.168,-9.028
-163.236,968.924,-7.32
-171.288,972.584,-7.32
-173.728,972.584,-1.464
-168.604,969.9,-4.88
-168.848,965.508,-7.076
-172.508,965.508,-10.736
-174.216,976.732,-11.224
-162.26,978.196,-13.664
-153.476,980.88,-13.664
-151.28,980.636,-8.784
-165.188,978.928,-1.708
-168.36,982.1,-4.392
-170.8,978.196,-8.784
-152.256,980.392,-25.62
-153.964,984.296,-21.716
-157.38,985.516,-23.668
-165.92,980.148,-14.152
-163.48,981.124,-11.224
-158.6,974.048,-6.832
-156.892,967.948,-7.076
-166.652,969.656,-4.88
-174.46,972.34,-3.416
-174.46,977.464,-2.928
-167.872,982.588,-6.832
-162.992,984.052,-7.32
-153.232,987.468,-8.296
-159.576,987.956,-3.904
-167.14,989.908,-3.66
-182.268,989.908,0.0
-185.928,996.496,-1.22
-189.832,1003.572,-4.392
-200.08,1006.5,8.784
-216.916,1003.328,22.692
-233.752,994.056,38.552
-247.904,976.0,48.556
-252.784,951.6,53.192
-272.792,908.168,68.076
-307.44,844.484,79.3
-353.556,760.792,89.792
-396.988,678.32,94.916
-415.776,621.224,96.38
-415.044,583.648,88.816
-392.352,570.96,83.692
-373.076,548.268,79.788
-339.16,509.716,67.588
-332.328,453.108,61.976
-290.36,396.744,23.912
-168.36,370.148,-9.272
1.952,343.308,-2.196
239.608,265.96,-44.896
481.412,172.752,-153.72
798.856,127.612,-306.952
979.66,85.4,-351.848
1097.268,-32.208,-191.784
1443.016,-138.592,-157.624
1697.752,-213.256,-136.396
1783.64,-169.58,-186.416
1704.828,-84.18,-153.72
1711.416,25.376,-187.636
1653.1,48.312,-161.772
1521.096,3.66,-29.28
1474.004,-64.904,-7.076
1404.952,-79.056,21.716
1321.992,-39.772,-9.516
1263.676,-19.52,-80.276
1245.62,-11.224,-110.776
1185.108,-46.604,-91.256
1164.124,-101.016,-67.832
1163.88,-131.272,-51.972
1111.664,-119.56,-33.672
1105.32,-98.088,-52.46
1105.564,-107.116,-19.764
1169.98,-141.276,44.896
1302.228,-171.532,54.656
1383.968,-153.232,71.248
1443.504,-96.38,74.908
1527.196,-28.06,34.404
1622.112,14.152,17.08
1740.696,36.844,25.376
1847.324,25.864,11.468
1900.028,37.088,-50.752
1883.68,47.824,-105.652
1817.312,49.044,-132.98
1730.448,11.224,-122.732
1604.544,-60.268,-94.672
1477.908,-126.636,-94.916
1301.496,-162.992,-79.056
1151.436,-177.144,-82.96
970.876,-201.544,-67.1
801.052,-213.256,-57.096
669.048,-204.228,-37.088
556.076,-175.192,-33.184
488.732,-133.224,-39.284
455.548,-83.448,-92.964
466.284,-12.932,-200.812
526.064,68.076,-331.108
588.04,148.596,-489.708
670.512,211.548,-663.192
706.624,233.264,-764.208
672.708,237.412,-803.248
586.576,227.896,-778.848
514.596,218.868,-724.436
474.336,215.94,-652.944
447.74,207.4,-551.684
444.812,173.728,-418.704
416.752,131.272,-231.312
449.448,99.796,-57.096
433.832,92.964,112.972
430.416,111.752,243.512
417.728,160.796,380.152
443.592,195.932,484.34
475.8,186.416,571.936
518.012,166.652,664.168
598.532,153.72,725.412
678.32,145.424,777.872
753.472,154.94,820.328
859.368,179.584,834.968
958.92,166.652,831.552
1047.492,143.228,843.02
1061.644,108.092,913.292
1080.188,72.224,943.304
1137.772,63.196,898.164
1204.872,59.78,798.368
1254.404,94.916,684.42
1322.236,133.712,516.792
1349.808,143.716,349.164
1413.98,172.752,144.692
1473.76,210.572,-41.236
1488.156,229.604,-207.156
1478.396,245.22,-333.548
1471.32,241.316,-425.048
1430.084,215.208,-440.42
1370.06,173.728,-403.576
1319.308,138.348,-365.024
1251.72,99.308,-300.852
1194.868,76.128,-255.956
1114.592,60.512,-197.64
1054.324,63.44,-152.5
1015.528,68.076,-103.944
1004.06,65.392,-51.484
1016.992,46.36,-8.784
1020.408,36.356,33.428
1018.7,51.24,56.364
1005.768,69.296,68.808
1008.452,90.036,79.788
1021.14,93.208,96.38
1041.636,74.176,115.656
1051.884,62.464,131.516
1050.176,60.512,144.448
1020.896,69.54,157.38
1034.316,75.152,152.744
1036.024,80.276,147.864
1063.596,83.692,127.612
1120.692,71.248,127.612
1230.492,65.148,121.268
1300.52,43.188,136.396
1362.252,29.524,157.38
1561.112,-6.344,201.056
1674.084,-102.236,232.044
1785.592,-86.864,137.86
1877.092,-40.016,-1.708
1665.544,-30.012,25.62
1136.064,89.304,75.64
660.508,298.412,101.26
381.86,435.54,132.004
20.74,544.12,203.496
-89.304,652.456,182.756
-144.936,691.496,167.384
-209.84,683.688,139.568
-345.26,648.064,187.636
-443.104,665.388,196.176
-444.812,712.968,148.108
-395.28,769.332,121.024
-326.96,822.524,80.276
-271.328,872.544,51.728
-277.672,905.484,50.02
-321.348,922.564,71.004
-361.608,942.328,94.916
-348.676,976.244,63.928
-312.564,1005.036,35.624
-264.984,1004.792,7.808
-244.244,995.52,-1.952
-279.624,989.42,31.72
-305.244,966.728,61.976
-312.32,925.004,69.296
-292.556,895.724,61.244
-268.156,905.728,62.708
-233.752,919.88,56.852
-230.824,933.3,72.712
-224.48,933.3,87.596
-212.768,921.832,101.016
-196.664,913.536,106.628
-198.128,908.168,118.828
-220.332,907.924,135.664
-248.88,906.704,152.256
-254.736,909.632,153.232
-238.876,916.708,140.788
-229.848,922.808,127.612
-248.392,935.252,126.88
-264.496,947.94,128.588
-265.716,957.944,132.98
-243.756,960.872,121.756
-217.16,972.34,112.728
-204.716,981.612,107.36
-220.332,977.22,103.944
-245.708,972.828,103.7
-249.856,976.976,96.38
-233.508,978.196,87.84
-218.624,966.728,93.452
-213.5,957.212,102.968
-236.192,948.916,124.928
-247.416,946.232,124.684
-243.024,941.596,116.632
-214.232,946.476,102.236
-205.448,942.816,108.824
-224.48,950.868,118.828
-254.736,953.552,128.344
-268.156,965.752,118.34
-237.9,977.708,98.332
-206.18,978.44,89.06
-199.592,972.828,99.796
-210.328,959.652,121.268
-225.212,938.668,139.812
-228.384,934.276,139.812
-233.264,927.932,134.2
-225.944,932.812,116.876
-233.508,937.204,112.484
-223.992,939.644,113.948
-230.336,928.176,121.268
-236.924,919.148,121.512
-247.66,917.928,113.216
-244.0,926.224,99.064
-232.532,936.96,91.988
-226.92,954.772,90.524
-217.16,970.144,90.768
-214.232,970.144,99.552
-214.232,962.58,109.312
-223.748,962.092,122.0
-232.776,964.288,126.636
-236.924,957.212,120.048
-237.168,959.652,113.46
-227.896,957.944,99.064
-224.724,960.872,100.284
-205.936,962.824,92.72
-203.252,965.508,102.48
-210.328,960.628,112.728
-222.772,949.648,116.876
-235.216,932.08,117.364
-240.584,928.42,112.728
-235.704,929.152,105.408
-225.456,939.888,100.04
-212.28,949.648,105.164
-212.524,954.284,116.388
-215.452,962.092,122.732
-208.864,973.56,123.952
-208.376,976.488,120.292
-210.572,973.316,114.436
-212.524,972.34,111.752
-207.644,969.656,111.264
-208.62,970.632,115.412
-204.716,972.584,110.532
-215.452,971.852,112.484
-216.428,964.532,108.58
-223.504,955.992,113.46
-221.308,955.504,116.632
-215.94,953.308,113.948
-215.452,949.404,114.192
-223.016,950.136,113.948
-233.996,945.744,115.9
-237.9,939.644,119.56
-239.852,924.272,117.852
-258.152,901.336,124.44
-292.556,873.032,142.252
-328.424,838.14,158.844
-363.316,790.072,168.116
-379.42,728.828,161.284
-376.736,648.064,129.808
-377.956,566.812,106.384
-381.128,469.456,82.472
-388.448,377.956,81.008
-438.956,270.352,71.98
-387.472,228.872,52.46
-204.472,234.972,19.032
-63.44,205.204,29.524
100.04,106.872,71.736
528.26,-28.548,-15.372
1056.276,-212.768,-297.924
1675.548,-305.976,-606.096
1809.016,-369.416,-274.988
1902.224,-300.852,-78.08
2142.564,-155.916,-186.66
2125.24,-14.884,-183.0
1902.712,83.448,-183.244
1684.576,107.604,-138.348
1474.98,44.652,-21.716
1354.932,-30.5,8.54
1242.936,-24.4,13.908
1189.988,-23.18,-0.244
1152.168,-50.264,-38.064
1038.708,-69.052,-29.28
959.408,-97.844,19.764
1012.356,-122.732,32.696
1116.788,-143.96,53.192
1234.64,-132.492,24.888
1332.972,-106.628,16.592
1467.172,-71.248,61.732
1656.028,-60.512,79.056
1796.084,-23.424,73.2
1908.568,23.18,25.62
1979.328,64.416,-57.828
2007.388,51.728,-120.78
1996.408,8.54,-173.728
1925.892,-41.968,-202.52
1837.564,-79.788,-223.992
1673.352,-112.24,-188.856
1494.5,-150.548,-177.144
1337.364,-188.124,-189.344
1168.516,-201.3,-175.924
1022.36,-223.504,-164.212
861.808,-233.02,-172.752
728.096,-234.484,-210.572
615.612,-219.356,-256.932
499.712,-178.608,-328.18
395.524,-122.488,-397.232
328.424,-70.516,-479.216
266.936,-1.464,-564.372
235.948,41.968,-643.672
208.376,70.272,-675.88
208.864,72.468,-655.14
203.252,74.664,-580.72
217.16,71.248,-454.816
267.668,51.972,-306.952
307.44,32.452,-155.184
321.104,42.944,-26.352
320.86,70.516,120.292
325.008,146.4,251.32
387.228,184.952,370.88
444.812,167.628,483.12
560.224,147.864,598.288
681.248,132.98,762.744
775.92,128.832,899.384
874.252,152.012,980.392
1011.624,189.1,977.708
1113.86,231.8,955.26
1209.996,256.688,924.028
1275.388,249.612,903.532
1274.9,191.54,938.424
1285.392,157.136,907.68
1322.48,171.044,809.348
1390.068,228.384,643.916
1424.472,248.392,464.088
1451.068,232.044,297.436
1454.24,239.608,126.148
1408.612,245.464,-20.74
1363.716,229.604,-127.368
1287.588,184.464,-156.648
1205.604,166.408,-201.056
1195.6,186.904,-316.956
1171.688,200.568,-395.28
1123.864,222.04,-438.712
1083.604,224.48,-428.708
1047.98,202.52,-372.588
1011.868,164.456,-302.804
1009.916,143.472,-245.22
974.78,144.448,-179.34
965.752,165.188,-128.1
975.024,177.876,-85.4
1008.452,185.928,-37.576
1038.22,192.76,13.176
1070.672,194.468,62.22
1098.244,189.832,99.796
1144.604,183.488,114.192
1166.076,168.36,122.0
1189.988,158.112,115.656
1207.312,141.52,112.972
1226.588,142.74,109.312
1264.164,148.108,102.236
1293.688,148.596,125.416
1376.404,131.76,134.444
1478.396,94.916,177.876
1531.344,73.688,188.856
1511.824,58.072,182.268
1448.628,64.66,139.812
1238.3,126.148,98.332
888.892,226.676,128.344
604.388,336.232,166.896
440.42,408.212,103.7
284.748,449.692,84.18
92.476,520.94,147.376
42.456,639.036,174.704
-34.404,698.816,209.108
-218.868,742.248,305.732
-492.636,720.776,414.312
-663.192,698.572,406.992
-710.772,664.9,318.664
-646.844,694.668,244.976
-578.28,739.564,169.58
-527.284,801.296,108.092
-478.728,869.86,72.956
-476.288,897.432,92.72
-453.84,897.676,110.288
-457.256,904.508,145.424
-434.564,930.372,141.276
-413.824,943.792,103.944
-341.112,956.724,95.404
-295.728,948.916,101.504
-280.356,935.496,141.764
-278.16,917.684,182.268
-296.46,913.536,206.912
-288.652,913.78,192.272
-266.692,930.616,172.752
-230.824,946.72,151.28
-236.436,943.06,156.404
-250.344,928.42,154.94
-270.352,926.468,158.356
-279.868,939.888,157.38
-287.92,930.86,159.088
-297.924,930.372,148.596
-296.216,936.716,138.592
-301.584,938.668,122.244
-287.92,948.428,99.064
-274.744,967.46,107.848
-250.832,968.192,119.56
-254.248,954.04,138.592
-275.72,938.912,154.452
-302.804,923.052,148.352
-298.9,915.488,127.368
-287.92,926.468,111.752
-272.304,936.472,101.26
-272.792,935.252,115.9
-273.036,931.836,126.88
-295.728,918.172,148.108
-300.364,915.0,141.276
-299.876,927.2,125.172
-272.304,947.208,109.068
-251.808,951.356,111.264
-251.32,946.964,120.78
-258.884,947.208,133.224
-266.936,948.184,142.74
-284.504,946.72,139.568
-282.552,940.864,132.492
-285.48,928.908,130.052
-281.82,928.908,126.392
-277.428,935.008,118.096
-277.916,933.788,120.536
-283.284,922.32,121.756
-292.068,915.488,132.98
-298.656,922.076,140.056
-297.436,925.736,135.42
-291.336,931.836,129.808
-281.332,934.52,122.0
-269.864,932.568,125.904
-259.86,930.128,137.128
-262.544,927.2,151.768
-275.476,925.736,158.356
-279.624,934.52,146.888
-279.868,946.476,133.712
-280.356,943.06,122.488
-277.916,939.888,128.832
-283.772,929.152,142.984
-283.772,929.884,150.304
-273.768,934.032,140.788
-272.304,929.884,128.1
-274.744,928.908,121.268
-276.208,931.836,133.224
-277.916,934.032,142.008
-279.136,933.056,149.816
-266.936,940.132,145.912
-254.248,943.304,141.032
-257.908,944.768,136.396
-261.568,953.796,131.516
-273.768,949.648,128.1
-288.408,939.4,131.272
-288.896,938.424,122.488
-283.528,947.696,108.336
-269.864,953.308,99.064
-268.644,959.896,101.504
-280.6,954.284,114.436
-291.092,946.72,124.44
-290.604,938.912,130.54
-276.696,935.008,123.464
-262.544,931.104,121.268
-257.42,926.468,133.224
-259.372,917.196,154.208
-274.744,914.268,175.436
-281.332,917.684,177.876
-276.696,923.296,156.892
-256.444,936.96,128.588
-240.096,957.944,111.996
-243.024,965.508,112.24
-268.4,962.58,122.732
-287.676,950.38,133.712
-287.188,938.424,134.688
-275.964,936.228,126.148
-259.128,937.936,118.096
-267.668,939.644,123.22
-275.232,935.496,129.076
-280.356,925.98,135.176
-283.528,908.656,141.52
-282.796,890.6,141.52
-292.556,877.912,144.204
-294.508,868.152,140.788
-304.268,848.144,139.812
-333.304,816.424,150.06
-343.552,772.016,140.056
-376.248,725.656,133.956
-406.504,680.516,114.436
-450.424,635.62,96.868
-547.292,559.004,124.196
-413.092,481.412,117.852
-262.3,361.852,110.532
-192.76,229.36,116.876
-65.148,132.004,42.7
45.384,51.972,-30.256
253.028,-22.448,-88.084
478.484,-181.536,-31.964
849.12,-371.856,-3.172
1559.16,-562.176,-325.984
1880.752,-612.684,-382.836
1799.256,-399.428,-150.06
1778.028,-272.304,-113.948
1893.44,-192.272,-101.016
1973.228,-167.872,-101.016
1874.652,-142.008,6.588
1727.764,-131.028,25.864
1652.612,-79.788,-8.54
1474.98,-49.776,-43.92
1360.3,8.784,-70.516
1274.656,5.856,-101.016
1247.328,-18.788,-29.524
1263.92,-62.708,-7.32
1264.652,-60.512,41.968
1352.492,-30.744,15.128
1446.188,-24.888,-10.98
1581.852,-9.272,15.86
1737.768,0.244,-27.084
1832.196,26.596,-75.396
1896.612,46.116,-109.8
1992.748,31.964,-198.616
1933.212,-32.452,-220.576
1787.3,-89.06,-235.216
1652.856,-126.88,-224.48
1495.476,-173.972,-197.884
1327.116,-214.232,-183.976
1131.916,-250.1,-152.012
947.208,-261.812,-110.776
810.568,-267.912,-99.308
687.104,-279.38,-136.152
601.704,-262.788,-174.948
578.28,-221.796,-262.788
566.812,-169.58,-381.372
573.644,-88.816,-524.356
551.44,-15.372,-635.376
531.92,32.94,-703.94
511.18,50.508,-718.336
466.528,36.844,-684.908
407.48,32.94,-623.664
373.076,50.264,-567.788
320.128,74.908,-474.336
283.772,98.82,-358.68
328.668,120.78,-268.644
389.912,128.588,-144.448
386.252,150.304,2.44
370.636,150.792,150.548
413.336,133.468,276.208
500.688,144.936,392.352
552.172,143.716,507.032
559.736,136.396,632.448
595.116,133.224,745.664
672.22,131.516,814.96
791.536,118.828,846.68
929.884,142.74,852.536
1053.104,170.068,836.188
1184.62,173.24,831.552
1251.964,151.524,875.228
1282.22,113.948,941.352
1333.46,108.336,948.184
1372.012,121.268,876.204
1391.776,120.048,780.312
1426.668,117.364,662.46
1469.124,133.712,469.456
1451.312,154.696,290.848
1445.944,166.896,70.272
1376.404,163.968,-80.764
1300.764,182.756,-236.192
1266.116,190.076,-378.932
1223.904,195.444,-492.88
1184.864,214.476,-583.404
1137.284,217.892,-608.78
1106.784,204.472,-598.288
1044.808,168.848,-531.92
1023.58,134.932,-445.056
976.732,118.828,-345.016
964.532,124.196,-257.42
959.164,130.54,-170.556
954.528,132.736,-95.16
944.28,138.348,-24.4
964.776,142.008,25.376
999.668,143.472,67.588
1050.908,146.888,96.624
1085.8,138.592,113.948
1118.984,131.516,125.172
1165.1,125.904,121.024
1251.476,128.1,118.34
1315.16,118.828,110.532
1371.28,107.36,90.28
1387.872,95.16,81.74
1396.9,96.136,90.28
1453.02,109.556,73.688
1533.296,126.636,20.252
1462.536,152.744,6.1
1385.188,179.34,34.16
1218.292,209.596,23.912
1032.12,277.916,12.2
788.852,341.6,-11.956
577.304,474.336,53.924
419.192,564.372,74.176
161.772,582.916,162.992
-187.148,586.088,278.892
-449.692,566.08,329.644
-629.276,567.056,401.868
-702.72,587.308,398.452
-655.628,609.512,319.884
-569.74,660.02,248.392
-508.496,725.168,195.444
-437.736,808.616,129.076
-412.36,884.256,106.14
-396.744,944.28,129.076
-369.904,976.0,147.62
-344.772,987.956,162.016
-312.564,991.128,159.82
-307.684,996.252,143.228
-280.112,994.544,108.092
-275.72,988.688,99.552
-282.064,967.216,101.504
-284.748,956.724,120.048
-305.976,915.244,140.788
-281.332,894.992,131.516
-267.18,877.912,122.488
-295.728,855.952,148.84
-289.384,875.96,161.04
-239.852,915.976,154.452
-175.192,953.796,148.108
-149.572,968.924,154.452
-142.252,968.68,161.528
-203.496,944.28,192.516
-259.616,925.248,211.792
-285.968,921.588,200.324
-260.348,935.496,164.456
-224.724,957.944,131.516
-211.548,961.36,127.124
-223.992,953.796,137.616
-253.516,949.404,155.428
-259.86,944.524,152.988
-238.876,955.26,135.42
-220.088,969.9,131.76
-208.864,980.88,123.464
-210.816,982.832,130.052
-211.792,970.632,142.008
-220.088,966.24,157.136
-207.888,960.872,150.792
-207.4,957.944,147.376
-201.544,969.412,134.688
-198.86,985.76,129.808
-185.928,984.052,124.928
-188.612,980.636,134.688
-202.764,958.92,149.328
-222.284,933.056,170.556
-244.0,911.34,166.164
-262.544,904.508,165.676
-266.936,914.756,146.644
-266.204,929.152,133.224
-261.08,925.492,121.512
-259.616,918.66,126.392
-264.74,924.028,139.812
-270.108,930.372,144.936
-273.768,942.084,138.592
-259.616,948.672,121.512
-237.168,952.088,112.484
-229.116,956.236,117.608
-237.412,955.504,134.444
-251.564,946.72,155.184
-255.224,939.644,162.016
-238.388,937.692,152.988
-217.648,944.036,140.056
-216.916,946.72,145.18
-236.924,945.5,149.328
-258.152,945.012,159.332
-273.768,936.96,161.04
-245.708,937.692,147.62
-231.068,936.472,146.156
-224.236,933.788,141.276
-235.948,945.5,146.888
-258.64,946.476,151.28
-258.884,950.136,149.328
-247.172,941.596,136.396
-243.512,935.008,142.74
-237.656,939.888,138.836
-236.68,954.528,146.156
-236.436,957.456,144.204
-249.124,952.82,144.692
-260.836,952.088,142.252
-264.252,947.94,144.936
-251.076,946.964,139.324
-234.728,948.672,134.444
-222.528,957.456,135.42
-225.456,962.336,142.984
-245.464,955.504,150.06
-259.372,946.964,152.256
-267.18,940.62,146.156
-256.932,940.62,136.396
-250.832,939.888,135.176
-249.856,932.324,136.396
-250.344,921.588,140.3
-252.784,919.636,151.036
-256.688,922.808,150.792
-263.276,930.86,149.572
-264.984,949.648,133.468
-256.2,958.676,126.392
-244.732,952.576,117.12
-251.076,936.472,124.928
-269.864,929.884,142.008
-284.748,934.764,146.4
-270.352,951.844,134.688
-241.072,961.116,121.756
-233.02,957.7,121.268
-257.908,946.964,139.812
-277.184,936.228,158.6
-272.06,931.592,161.284
-249.124,937.692,147.62
-224.236,946.72,128.832
-218.868,955.992,121.268
-234.24,957.944,132.492
-253.028,948.672,149.084
-273.524,934.52,163.48
-283.284,923.54,168.848
-287.432,917.684,165.676
-287.432,899.384,159.82
-289.384,887.184,164.944
-272.792,875.228,162.992
-275.72,854.732,170.8
-278.404,830.088,179.584
-295.728,789.828,187.88
-333.792,727.12,196.42
-390.4,657.092,207.156
-425.536,581.452,193.492
-453.596,528.992,164.7
-403.576,483.364,132.004
-382.836,425.536,112.484
-360.876,344.528,98.332
-352.336,249.368,126.148
-199.592,157.136,113.704
44.408,90.036,27.572
451.4,67.344,-152.012
855.22,7.32,-203.252
1111.664,-89.548,-121.756
1543.544,-220.332,-339.404
1906.128,-275.476,-584.624
1705.316,-231.8,-196.908
1650.904,-269.62,15.86
1828.048,-310.124,-24.644
1801.208,-298.9,38.552
1629.432,-231.8,18.788
1578.436,-155.184,-32.94
1484.984,-127.856,23.912
1392.02,-110.776,28.304
1341.024,-112.484,32.696
1321.992,-114.924,48.556
1311.256,-91.012,62.464
1286.368,-62.708,75.396
1331.264,-64.904,80.52
1431.792,-94.428,81.008
1550.62,-112.972,59.048
1632.848,-101.992,77.592
1677.988,-61.488,95.892
1756.556,-26.108,54.9
1778.516,9.76,25.132
1797.792,10.98,-16.836
1820.728,2.196,-104.92
1779.004,12.2,-189.344
1768.756,1.952,-242.292
1738.256,-53.192,-263.52
1638.704,-133.956,-236.924
1465.952,-213.988,-206.424
1281.244,-262.788,-175.924
1120.204,-279.38,-179.096
954.528,-265.96,-217.892
792.268,-245.464,-244.0
649.284,-207.156,-261.324
555.588,-147.376,-312.564
461.404,-96.38,-330.132
383.08,-43.676,-369.66
315.004,0.0,-387.472
265.716,54.9,-426.268
230.58,119.072,-445.3
213.012,180.804,-519.72
206.424,228.872,-569.252
225.212,264.252,-567.544
255.224,280.356,-519.964
283.04,289.872,-425.292
291.092,253.272,-281.576
325.984,215.94,-135.908
375.028,197.884,36.6
397.476,183.244,221.064
389.18,170.556,410.164
450.18,144.692,543.144
497.76,131.272,676.124
582.916,96.868,800.32
655.384,47.092,955.992
784.216,-17.324,1041.392
865.956,-37.088,1108.248
923.54,-11.468,1112.396
1003.572,36.112,1061.156
1045.784,69.54,1023.092
1124.84,85.156,990.884
1154.364,66.124,997.96
1157.048,27.816,1013.82
1177.056,-13.42,974.78
1205.604,-5.124,849.852
1241.228,26.108,656.36
1315.648,92.964,379.176
1369.084,143.96,139.812
1368.84,182.512,-34.892
1383.236,234.24,-252.54
1345.416,273.768,-396.988
1338.828,299.876,-519.476
1317.844,307.928,-589.992
1255.136,294.996,-583.892
1222.196,270.352,-558.272
1183.888,232.288,-507.032
1114.592,197.884,-428.464
1081.652,164.456,-344.284
1035.292,137.616,-234.484
1005.036,129.32,-129.076
1000.156,123.464,-54.656
1022.604,130.052,-8.54
1021.628,146.888,39.284
1064.084,159.088,69.296
1100.44,156.16,113.948
1154.12,151.524,141.764
1218.536,140.544,159.088
1233.908,125.416,156.892
1207.8,117.852,161.528
1226.588,146.4,167.872
1273.924,141.764,142.496
1291.248,129.808,147.376
1363.228,112.728,121.024
1346.148,123.952,146.156
1329.312,156.892,175.436
1339.316,179.34,149.816
1270.02,248.148,90.768
1111.664,330.376,75.884
901.824,401.868,52.46
922.564,482.632,-6.832
872.3,510.204,3.172
789.096,520.452,-10.98
626.104,582.428,32.208
473.604,575.108,100.772
241.804,597.312,207.644
68.564,497.76,165.432
-211.548,566.812,156.404
-451.888,496.54,176.656
-726.632,540.46,272.548
-838.872,557.296,304.268
-762.012,520.696,243.756
-729.56,543.388,162.504
-735.172,576.328,82.716
-732.244,627.324,40.992
-742.248,681.492,29.768
-708.82,725.656,15.86
-664.168,760.792,67.588
-581.452,810.08,122.244
-434.808,860.344,74.176
-375.028,925.492,54.168
-282.308,1014.064,58.804
-210.328,1072.868,66.124
-189.1,1084.824,44.164
-158.112,1040.904,20.008
-201.3,1039.196,43.92
-210.816,1032.364,48.556
-248.88,1021.14,53.192
-231.312,988.688,31.232
-208.62,960.14,11.956
-213.988,960.14,7.076
-207.156,967.216,11.712
-193.736,968.192,22.448
-178.852,962.824,40.504
-166.896,926.712,53.68
-159.332,954.284,40.748
-140.788,960.872,86.62
-160.552,975.268,53.192
-135.176,996.984,58.072
-124.928,995.764,59.048
-140.544,978.196,48.8
-132.004,959.408,41.968
-126.148,962.336,52.704
-176.9,929.152,65.636
-153.72,954.284,79.788
-134.2,973.316,67.344
-126.148,982.588,48.312
-134.932,972.828,50.996
-125.66,972.34,38.796
-141.52,967.704,54.168
-132.736,967.46,72.468
-125.416,968.68,89.792
-104.92,967.948,89.304
-129.32,1002.108,86.376
-118.584,1015.772,78.812
-121.756,1012.6,62.708
-134.932,1002.596,67.832
-151.036,987.468,70.272
-159.576,971.852,67.344
-157.136,981.124,66.124
-151.524,993.812,69.296
-162.504,998.936,80.032
-138.104,985.272,78.812
-122.244,972.828,67.832
-122.244,962.58,64.416
-102.48,960.384,43.188
-121.756,977.952,52.948
-117.608,994.544,49.532
-112.24,1007.964,43.188
-114.924,1001.132,40.992
-120.78,987.956,41.48
-128.588,983.808,46.36
-158.844,934.276,50.752
-149.572,956.48,54.168
-121.024,964.288,55.632
-115.168,980.148,52.46
-113.46,990.884,64.904
-123.464,986.736,71.004
-126.88,979.172,75.152
-126.148,976.732,75.884
-121.512,975.268,70.028
-128.344,976.0,66.124
-129.564,976.488,58.072
-134.2,978.196,47.824
-142.984,974.292,48.312
-138.104,973.56,49.044
-151.036,972.584,51.484
-156.404,974.536,49.532
-151.524,976.732,43.92
-143.228,986.004,41.236
-122.488,986.98,29.768
-121.024,987.712,34.16
-137.128,987.956,40.504
-151.036,995.52,41.236
-149.816,1001.62,39.772
-152.5,1000.4,46.36
-155.916,1001.62,51.972
-159.088,1000.644,51.484
-162.992,1008.452,45.872
-172.996,1013.332,41.968
-185.44,1010.404,40.748
-195.932,1008.94,49.044
-199.592,996.252,59.78
-207.156,979.172,68.808
-207.644,965.02,77.348
-214.232,951.356,82.228
-216.184,939.888,84.18
-227.408,925.98,92.72
-239.12,900.848,91.988
-245.952,868.396,92.72
-263.276,840.58,105.896
-280.844,798.368,110.288
-312.564,728.828,104.92
-354.044,652.456,100.772
-413.58,597.068,115.9
-447.984,572.18,122.244
-443.836,544.12,107.604
-411.628,525.82,91.988
-339.404,488.244,86.132
-254.736,445.788,60.024
-174.948,401.868,51.972
-33.184,346.48,84.424
80.032,276.696,105.164
356.24,176.656,50.508
914.512,120.292,-180.316
1432.28,143.96,-462.624
1452.288,89.304,-393.816
1344.44,59.78,-1.464
1407.88,13.176,40.992
1495.72,-48.068,-85.644
1654.564,-37.332,-207.156
1733.62,-10.492,-327.204
1605.764,10.004,-164.7
1385.432,-32.94,23.668
1434.476,-80.52,-26.108
1457.412,-127.612,-2.928
1412.272,-109.8,-0.976
1382.26,-70.272,-26.84
1318.332,-37.576,-30.744
1220.976,-30.5,-22.448
1201.944,-25.62,-32.696
1178.764,-41.48,-19.52
1233.908,-38.308,-8.052
1312.72,-37.82,10.492
1367.62,-8.052,45.628
1413.98,14.64,86.864
1587.708,37.332,80.764
1764.364,49.776,62.464
1889.048,62.22,38.796
1991.772,63.684,-2.196
2015.196,63.684,-69.052
1991.04,52.216,-110.776
1882.948,33.672,-160.308
1759.484,-16.592,-237.412
1625.772,-75.152,-322.324
1418.372,-125.66,-329.644
1194.624,-187.148,-277.916
958.92,-228.384,-232.288
751.764,-256.688,-190.32
559.248,-256.444,-156.16
419.192,-217.404,-167.14
329.644,-160.552,-225.212
286.212,-80.032,-323.544
291.58,11.712,-475.8
333.548,71.736,-580.72
337.696,94.672,-595.848
348.92,108.092,-602.924
341.112,104.432,-564.372
349.164,102.968,-495.076
325.008,111.264,-370.148
270.352,128.344,-230.824
205.204,129.32,-76.86
229.116,128.832,65.88
310.856,143.472,209.596
393.572,174.948,349.652
463.6,189.344,468.236
503.128,188.124,579.5
547.78,165.432,674.416
606.584,154.94,777.14
690.032,155.428,850.584
786.412,171.044,875.716
897.188,199.348,874.008
981.124,209.352,880.108
1078.236,189.344,917.196
1164.368,148.108,945.256
1290.272,132.98,888.16
1378.6,176.656,728.34
1466.44,253.516,519.72
1529.636,321.836,293.044
1551.596,352.092,81.74
1564.528,377.712,-118.34
1537.688,399.672,-272.792
1488.644,405.04,-396.256
1402.512,366.244,-423.096
1327.116,325.008,-445.3
1252.452,272.06,-428.708
1173.152,223.26,-386.496
1131.916,176.656,-326.96
1094.34,136.152,-261.812
1054.08,115.656,-187.636
1020.164,129.076,-133.468
976.976,153.964,-74.42
985.272,171.288,-22.448
980.636,168.848,31.232
986.248,163.48,69.052
990.64,154.208,109.312
987.956,158.844,127.612
990.396,164.944,133.468
1001.864,170.068,121.024
989.664,177.632,111.02
993.08,180.072,89.304
996.008,177.876,81.74
1022.36,172.02,74.664
1045.54,164.7,84.424
1064.084,156.648,90.768
1063.108,156.16,100.772
1064.572,155.184,100.772
1093.852,160.308,90.768
1126.304,168.36,82.716
1153.144,172.02,81.008
1198.528,160.796,81.984
1228.052,142.252,73.444
1260.016,117.608,66.368
1268.312,111.264,92.964
1387.384,105.896,110.288
1571.36,88.572,114.436
1509.384,36.356,160.552
1468.148,102.724,161.528
1464.732,87.108,69.052
1203.408,143.96,123.464
859.124,254.492,148.596
525.088,398.208,111.508
206.912,524.112,195.688
44.652,655.628,259.128
-80.52,653.188,263.276
-281.332,637.816,318.176
-308.904,693.448,311.588
-239.852,737.124,266.204
-270.84,770.064,263.52
-292.312,803.248,203.496
-243.268,824.964,140.056
-248.636,879.376,129.808
-281.82,936.228,112.972
-247.416,998.936,79.544
-248.392,1045.052,77.592
-242.048,1070.672,62.22
-233.264,1060.424,61.0
-242.78,1026.996,75.884
-261.812,988.2,63.928
-221.308,981.612,19.276
-150.06,990.396,14.396
-126.148,991.372,46.116
-138.104,974.292,69.784
-155.184,955.992,90.28
-203.496,945.744,114.436
-179.584,944.036,88.572
-152.744,956.48,79.056
-113.216,977.464,77.592
-108.336,979.416,86.62
-136.396,970.876,108.336
-167.384,971.364,122.0
-169.336,977.952,124.44
-156.648,984.052,115.412
-136.884,991.86,97.356
-155.184,991.372,106.384
-152.988,974.78,97.112
-168.116,955.992,101.504
-201.3,939.4,121.512
-198.128,952.332,124.196
-201.056,953.796,117.852
-173.728,959.896,101.992
-156.16,961.848,93.94
-153.964,951.844,99.308
-173.484,941.596,116.876
-197.64,934.764,126.148
-196.42,945.256,122.0
-176.656,964.532,120.536
-149.816,973.316,108.58
-151.28,977.22,118.828
-162.016,965.02,118.34
-167.384,954.04,104.676
-169.336,958.432,104.676
-154.94,970.144,98.576
-150.792,987.468,101.748
-148.84,989.908,111.508
-159.088,988.2,121.268
-163.48,976.244,123.464
-175.192,966.728,124.684
-173.484,969.412,115.656
-162.748,966.484,111.02
-165.432,962.092,120.78
-178.852,959.896,137.616
-187.636,954.528,143.716
-190.808,944.036,139.324
-183.488,947.94,130.052
-182.512,958.188,125.416
-173.484,969.168,113.46
-168.36,978.928,104.676
-166.164,982.832,105.896
-168.848,977.464,113.46
-185.44,965.752,123.22
-204.228,954.528,142.252
-217.404,938.912,148.596
-197.152,931.836,140.544
-162.504,925.492,132.004
-142.496,924.272,146.156
-160.796,927.932,165.432
-185.928,940.62,180.316
-197.152,956.236,174.704
-187.88,974.536,150.06
-157.38,991.616,114.436
-142.008,1001.376,91.012
-133.468,996.496,86.62
-139.812,992.348,93.208
-159.576,977.952,106.628
-177.876,964.532,112.972
-189.832,953.064,111.508
-178.852,952.576,98.332
-172.508,964.532,86.132
-148.108,979.172,79.544
-139.812,986.248,77.836
-143.96,981.612,89.792
-149.572,979.172,103.7
-160.796,974.048,108.092
-159.576,970.388,97.356
-154.208,972.34,81.984
-140.056,973.56,73.444
-148.108,970.388,86.864
-145.18,969.168,103.944
-161.284,966.484,119.56
-160.064,979.66,114.924
-143.228,997.228,98.088
-144.204,999.18,92.964
-147.376,996.252,90.768
-167.872,990.152,101.748
-173.484,987.956,110.288
-172.508,983.32,107.116
-174.216,976.976,103.212
-180.56,978.928,110.532
-184.708,977.22,117.852
-190.564,972.584,128.588
-194.224,965.996,133.712
-188.124,969.9,132.98
-183.244,973.804,131.76
-183.732,973.316,130.052
-198.372,965.264,144.448
-213.744,943.792,152.988
-250.344,908.412,171.288
-283.04,862.54,186.66
-317.2,807.396,203.008
-340.868,738.1,211.06
-371.856,661.728,208.62
-396.744,579.256,193.004
-443.592,491.416,149.816
-484.828,434.564,109.068
-441.884,389.668,90.036
-431.392,315.492,69.54
-351.36,334.524,51.24
-158.844,328.424,14.64
-48.8,274.988,4.392
240.096,179.34,-71.004
702.476,95.892,-313.54
995.032,24.156,-484.828
1236.592,-39.528,-411.14
1592.832,-65.392,-382.592
1598.2,-214.72,-183.732
1674.084,-297.192,-15.616
1914.424,-362.584,-168.604
1872.212,-218.624,-155.916
1746.796,-47.092,-128.1
1640.168,82.228,-151.28
1503.528,109.068,-150.06
1345.172,76.372,-71.004
1303.204,38.796,-38.064
1458.388,-10.98,-112.24
1492.304,6.588,-109.556
1527.196,57.828,-139.08
1495.964,116.632,-113.948
1522.072,137.86,-103.456
1614.304,118.096,-117.608
1642.364,87.596,-118.584
1740.452,104.432,-196.176
1728.008,119.804,-187.148
1742.404,108.336,-251.076
1704.828,82.96,-308.66
1652.368,41.724,-345.504
1579.9,-5.856,-361.608
1484.984,-49.044,-379.42
1350.052,-105.652,-405.04
1194.624,-146.4,-429.44
1008.696,-173.484,-440.176
860.344,-171.776,-486.048
735.416,-154.94,-556.076
624.884,-131.272,-610.244
511.424,-117.12,-624.884
385.764,-113.948,-553.392
271.084,-114.68,-459.452
192.516,-113.948,-382.348
141.52,-99.308,-299.876
134.932,-75.152,-232.776
169.824,-42.944,-181.292
197.884,-10.248,-101.992
209.596,40.016,1.952
263.276,95.892,112.728
332.328,142.984,237.412
414.556,182.756,366.0
474.092,203.496,494.1
539.972,203.008,619.028
649.284,205.448,727.364
722.728,191.54,867.908
785.68,196.908,949.892
855.464,203.008,949.16
935.008,216.672,900.36
1032.12,226.92,860.344
1148.508,245.952,784.216
1226.1,254.004,715.896
1254.648,250.1,698.816
1287.1,202.52,706.136
1299.544,146.4,686.616
1342.0,134.2,556.564
1373.964,168.604,385.764
1419.104,212.036,194.468
1417.396,234.972,33.184
1385.188,258.396,-110.288
1340.536,275.476,-230.58
1284.416,281.82,-338.428
1237.324,273.036,-403.332
1194.624,256.2,-431.392
1137.528,233.752,-423.34
1108.492,211.548,-405.772
1081.164,188.368,-373.32
1042.124,169.336,-323.544
1020.164,149.816,-267.424
993.812,141.52,-193.004
967.46,146.156,-106.872
962.824,152.5,-43.188
966.24,159.82,11.956
969.168,169.58,48.312
1003.816,184.464,74.42
1040.416,183.976,96.136
1095.804,186.172,100.772
1124.84,182.024,105.652
1126.548,187.148,102.724
1162.416,197.884,85.888
1179.252,207.156,87.108
1231.224,210.084,83.448
1290.272,200.812,72.712
1291.736,188.124,76.372
1272.216,189.344,89.548
1257.82,220.332,89.792
1256.6,251.808,75.396
1299.056,284.26,62.22
1323.7,288.896,49.044
1357.616,303.78,57.584
1324.92,292.312,113.948
1286.368,285.236,108.336
1118.496,317.2,153.72
978.684,386.008,117.12
728.828,451.888,174.948
551.44,515.084,212.28
289.628,531.92,252.784
71.736,550.22,266.204
-172.02,561.932,328.668
-363.56,553.88,347.456
-538.996,533.14,353.556
-623.42,539.972,337.94
-618.052,608.78,308.172
-557.54,642.208,233.264
-531.432,691.74,173.24
-448.716,752.252,122.976
-407.968,820.084,108.58
-387.472,882.548,99.552
-349.408,950.624,107.36
-344.284,988.444,116.876
-315.736,1010.404,117.12
-258.64,1016.748,114.192
-200.812,1011.136,100.528
-141.52,1011.38,89.792
-132.004,1007.232,87.596
-138.592,1002.84,90.28
-152.744,1001.376,108.58
-154.452,990.152,108.824
-144.936,974.78,122.488
-116.388,969.656,112.728
-113.216,967.948,109.556
-138.592,967.216,116.876
-161.284,969.412,113.704
-170.068,983.808,115.412
-146.4,987.712,103.456
-127.368,981.856,92.964
-110.532,980.88,90.768
-116.388,984.54,100.04
-142.008,976.976,110.776
-171.776,965.996,113.216
-192.028,963.312,106.14
-185.44,971.364,92.72
-155.428,973.316,73.2
-150.548,971.608,78.812
-147.62,980.636,81.008
-169.336,975.024,93.208
-186.172,965.508,100.772
-193.98,954.284,100.772
-174.948,954.04,94.184
-171.288,954.284,101.504
-135.664,968.68,87.352
-128.588,972.34,95.16
-119.316,981.856,81.74
-137.128,991.128,83.448
-161.284,988.688,74.176
-182.024,986.736,77.836
-181.292,978.684,73.688
-169.824,972.096,69.784
-149.328,974.536,74.42
-132.248,975.756,72.224
-138.592,973.316,82.228
-151.28,969.656,90.28
-166.164,961.848,91.744
-169.824,959.408,95.16
-158.112,963.8,95.648
-128.344,964.288,87.596
-121.268,967.216,83.692
-126.88,966.24,84.424
-145.18,974.78,92.232
-160.064,978.684,95.892
-155.428,987.712,91.5
-143.472,989.908,91.012
-117.852,994.056,79.544
-119.316,991.128,78.324
-137.86,983.564,79.544
-159.332,978.196,82.716
-166.164,976.244,89.304
-153.476,972.828,72.956
-160.552,965.996,78.568
-156.648,959.896,72.224
-170.556,959.164,71.004
-174.46,951.112,77.104
-178.608,947.94,80.276
-182.024,944.768,83.692
-187.148,951.6,86.132
-175.192,966.484,81.984
-156.16,974.048,77.348
-129.564,981.368,68.564
-130.296,991.372,73.444
-145.424,997.96,79.788
-169.824,999.668,86.376
-182.512,998.448,77.836
-183.732,1003.328,70.272
-184.464,1004.304,60.268
-189.1,998.936,58.316
-198.128,989.664,60.512
-208.864,978.44,67.832
-218.624,974.048,75.396
-216.672,977.464,79.056
-208.62,981.612,83.692
-205.204,985.028,82.716
-198.616,990.152,82.716
-207.156,996.984,88.572
-225.212,991.616,104.188
-239.608,982.344,123.464
-250.344,966.728,142.008
-256.688,951.844,154.208
-252.296,937.448,151.036
-258.152,906.46,148.108
-271.328,864.736,148.596
-304.268,816.424,160.796
-343.796,751.276,175.436
-356.484,661.484,172.996
-379.908,562.664,163.48
-405.772,477.02,147.132
-417.972,402.6,130.296
-415.776,395.524,123.952
-337.452,425.78,103.944
-249.368,407.724,57.096
-204.96,371.856,7.564
-171.532,334.036,-35.868
-81.74,316.956,-35.38
200.812,293.776,-43.432
554.124,180.316,-159.576
951.112,60.512,-341.844
1251.72,-46.604,-470.432
1574.776,-115.656,-221.796
1722.64,-250.344,-101.016
1627.724,-366.488,23.912
1579.9,-364.048,246.928
1827.56,-372.1,-35.38
1899.296,-195.688,-123.952
1744.112,-79.3,-138.348
1653.344,-6.344,-162.26
1543.056,-4.392,-191.54
1391.044,-9.76,-143.96
1311.256,-28.06,-97.844
1326.14,-40.992,-94.916
1281.976,-39.284,-91.256
1250.5,-24.156,-76.616
1270.752,-37.576,-80.764
1268.068,-45.872,-35.868
1318.088,-40.016,-32.208
1355.42,-8.296,-34.648
1412.516,50.996,-19.032
1459.608,103.212,-5.368
1554.28,122.976,-36.112
1609.668,108.58,-31.476
1624.796,90.768,-4.392
1666.52,61.976,-23.18
1706.536,40.992,-77.836
1666.032,22.692,-109.312
1575.508,18.544,-139.812
1479.86,17.812,-165.188
1392.264,3.172,-174.704
1299.544,-32.94,-184.464
1167.052,-75.152,-201.056
1014.308,-81.74,-209.596
878.644,-91.012,-235.46
756.4,-77.104,-284.748
672.22,-62.464,-366.244
573.888,-39.284,-439.444
492.636,-4.392,-483.608
426.268,25.62,-531.92
358.192,62.464,-573.156
296.948,89.792,-596.58
281.82,95.16,-602.436
273.036,95.892,-560.224
298.9,77.592,-479.948
311.344,61.488,-377.956
323.544,75.396,-243.756
329.644,103.456,-122.732
347.944,130.54,3.66
350.14,169.824,149.084
367.952,205.448,274.5
399.428,199.348,409.188
507.276,189.832,498.492
592.92,198.616,589.992
611.952,201.788,726.876
671.0,207.4,816.668
730.292,201.3,862.296
823.012,193.736,857.416
937.692,224.968,830.576
1025.288,252.54,796.172
1106.296,278.404,769.088
1130.452,269.376,782.996
1153.388,219.112,830.576
1206.092,191.296,845.46
1260.26,198.616,785.924
1351.76,214.476,636.84
1427.644,228.628,489.464
1465.708,230.58,380.64
1462.78,224.724,273.28
1418.372,225.212,138.348
1411.54,240.34,-10.248
1366.888,242.78,-101.016
1317.6,246.928,-203.496
1268.8,244.976,-257.908
1231.468,206.18,-297.192
1203.896,218.38,-352.092
1175.836,220.82,-374.052
1138.26,202.764,-352.824
1052.372,172.02,-286.212
997.228,144.936,-209.108
968.436,119.804,-116.632
953.552,116.388,-49.532
943.06,116.876,18.544
945.012,118.34,62.464
939.156,134.688,89.548
954.284,163.236,107.36
973.804,180.316,126.88
1000.888,184.952,143.228
1035.78,180.56,153.72
1051.884,169.336,165.676
1085.556,166.896,170.8
1141.432,158.844,172.752
1214.388,149.084,172.996
1276.608,139.812,176.168
1319.064,131.272,159.82
1238.056,140.3,176.9
1282.464,192.028,168.36
1344.684,195.444,157.136
1346.148,210.572,158.6
1375.916,235.216,144.936
1479.128,259.86,70.272
1458.388,249.612,34.16
1420.324,262.3,107.848
1364.936,280.356,111.508
1174.128,287.676,61.0
799.344,328.424,119.072
421.632,360.144,183.0
223.748,397.964,164.7
95.16,402.6,149.084
73.444,441.64,181.048
127.124,464.088,142.74
24.644,467.504,125.416
-170.068,563.64,239.364
-300.608,660.752,312.32
-435.784,747.616,360.144
-464.82,793.244,321.104
-536.312,810.324,266.692
-527.772,839.116,175.192
-453.84,888.648,112.24
-439.2,972.096,77.592
-441.64,1032.364,69.54
-454.572,1067.988,71.248
-447.74,1062.376,90.524
-385.764,1041.88,96.624
-321.104,1028.704,103.944
-255.468,1012.112,95.404
-207.156,1011.136,86.376
-194.224,1011.38,101.016
-182.024,1012.112,119.316
-171.288,990.64,124.684
-154.696,968.924,132.98
-157.136,943.304,149.328
-162.26,919.88,148.352
-160.064,911.584,133.468
-165.188,917.44,130.052
-142.74,945.988,112.972
-137.372,962.58,114.192
-149.572,973.804,124.44
-177.388,968.924,140.3
-210.572,954.528,147.864
-218.38,948.916,127.124
-197.64,956.236,114.436
-179.34,972.584,91.012
-167.872,980.392,103.456
-175.924,980.88,130.784
-183.244,977.952,152.988
-192.272,962.58,164.944
-192.516,957.456,152.256
-186.172,965.02,129.32
-167.628,975.512,107.116
-162.992,973.56,104.432
-164.944,973.316,120.536
-190.808,960.628,142.008
-207.4,950.38,157.624
-211.06,946.476,145.18
-203.252,951.844,130.296
-187.392,960.628,106.14
-192.272,959.408,103.212
-196.42,958.188,104.92
-195.688,953.552,117.12
-199.836,952.332,133.956
-195.932,948.428,137.372
-204.472,943.548,137.86
-210.084,947.696,127.368
-206.668,953.796,118.828
-207.644,955.016,120.78
-197.64,955.748,118.34
-201.788,956.236,129.808
-211.304,956.236,139.568
-237.168,953.552,148.596
-238.388,950.624,142.252
-224.724,959.408,126.636
-203.008,965.264,106.628
-191.54,961.36,99.796
-206.18,961.604,108.092
-231.312,949.892,124.44
-250.588,943.792,129.808
-253.76,939.888,131.272
-237.9,936.96,120.292
-218.38,934.764,111.508
-200.08,944.768,101.016
-202.032,948.916,110.776
-212.524,949.16,120.536
-233.752,951.844,134.932
-243.268,957.212,131.028
-241.56,962.824,120.292
-225.7,960.14,104.432
-211.304,961.36,93.696
-219.844,959.896,102.724
-231.068,958.676,111.752
-246.684,953.796,118.096
-249.368,952.332,116.876
-246.196,954.04,107.604
-232.532,955.26,98.82
-225.212,952.82,99.552
-221.796,948.672,106.628
-225.7,946.232,118.584
-234.972,942.328,127.612
-238.144,940.864,131.272
-238.876,941.596,127.856
-227.408,947.208,121.268
-217.16,953.308,111.752
-214.964,959.652,109.8
-236.68,964.776,114.68
-248.636,970.144,115.656
-252.296,972.584,116.388
-234.728,964.288,112.972
-222.772,952.82,114.924
-223.992,948.184,116.876
-233.752,953.552,116.388
-236.68,958.188,114.192
-230.58,955.992,114.924
-223.504,952.82,118.096
-238.388,944.768,129.808
-245.952,932.324,122.488
-254.248,928.664,120.536
-241.072,938.668,111.996
-225.7,952.576,105.164
-219.844,957.456,114.192
-230.336,955.992,125.904
-249.368,945.744,141.276
-276.696,918.66,148.352
-292.8,880.352,148.596
-322.568,842.776,151.768
-354.532,803.736,158.844
-393.816,740.54,170.068
-440.42,637.084,182.512
-473.848,535.58,184.22
-549.0,450.668,201.788
-565.104,398.208,196.908
-556.808,346.48,191.052
-456.768,290.36,174.948
-384.788,199.836,137.616
-313.296,152.012,96.624
-25.132,144.204,30.256
345.016,45.14,-84.912
982.588,-37.332,-357.704
1375.184,-86.132,-636.596
1391.532,-187.88,-280.844
1613.816,-323.056,-19.276
1868.308,-359.656,-175.924
2038.132,-282.796,-385.032
1971.52,-118.34,-387.472
1886.12,6.344,-456.036
1788.276,42.456,-409.676
1565.016,60.024,-360.388
1323.7,40.748,-178.364
1338.584,9.516,-140.056
1350.784,15.372,-91.012
1380.796,47.824,-77.592
1473.76,63.684,-156.16
1440.82,87.352,-168.604
1458.876,120.536,-172.264
1587.952,123.464,-148.352
1729.716,103.212,-135.176
1765.34,92.476,-121.024
1771.928,70.76,-185.928
1728.984,74.42,-245.708
1691.652,86.864,-292.068
1674.816,58.804,-352.092
1641.632,17.812,-400.648
1585.268,-9.516,-428.22
1445.944,-73.2,-411.628
1300.52,-138.836,-415.288
1150.948,-193.004,-445.544
993.568,-212.036,-482.144
847.412,-225.7,-514.352
691.252,-236.924,-526.552
535.824,-228.872,-534.604
410.896,-203.252,-537.044
289.14,-170.556,-524.112
178.364,-131.76,-500.2
89.304,-93.452,-464.088
-0.976,-60.512,-393.328
-12.2,-43.676,-303.048
72.956,-26.352,-222.772
137.616,-0.488,-114.68
211.304,35.38,-3.66
243.024,75.64,128.344
250.344,122.244,273.768
364.048,171.288,385.032
473.604,185.684,487.024
534.36,197.884,579.5
630.984,190.076,669.78
667.584,171.044,784.948
788.852,148.596,834.48
964.776,136.152,832.284
1080.188,139.812,831.064
1188.036,122.244,808.128
1265.14,108.336,808.616
1331.752,124.928,768.112
1367.376,166.408,712.48
1422.032,199.348,624.884
1487.668,247.172,445.788
1555.5,266.204,230.824
1573.312,284.26,14.396
1548.668,307.684,-196.176
1588.196,349.652,-386.008
1541.348,352.58,-510.692
1457.656,352.092,-575.352
1340.78,322.324,-574.376
1225.612,274.744,-540.46
1141.432,229.848,-487.756
1088.484,185.928,-461.892
1048.224,161.772,-418.46
1015.528,140.544,-361.12
1005.768,112.972,-276.94
970.876,103.212,-202.764
914.512,112.972,-113.704
905.484,120.536,-43.188
924.516,116.144,-1.464
928.176,121.512,28.548
909.632,140.788,47.092
910.608,165.432,49.532
950.38,171.288,44.896
1003.084,173.972,32.452
1053.592,166.164,22.936
1119.472,151.768,13.176
1169.98,142.008,1.22
1237.568,130.296,-10.492
1254.16,118.34,-9.028
1293.444,109.068,-13.176
1325.164,101.504,-14.396
1376.404,84.18,-4.636
1463.756,59.292,-9.028
1479.86,36.844,15.616
1531.1,40.26,18.3
1565.992,52.704,-10.004
1612.596,77.836,-94.428
1345.416,72.712,-43.676
1056.276,154.208,47.092
825.452,202.52,-15.128
693.448,281.088,-29.036
517.036,339.892,-4.148
287.92,392.596,34.892
250.588,464.82,37.576
9.028,528.504,133.468
-368.44,632.692,309.88
-616.588,689.544,385.52
-690.52,680.028,386.984
-595.36,722.728,332.084
-557.784,717.36,264.252
-457.5,774.7,143.228
-394.304,833.26,78.812
-380.64,898.164,53.68
-394.792,955.016,30.012
-442.372,993.568,23.912
-413.092,1004.304,30.744
-368.928,1010.892,12.444
-310.856,1006.012,0.244
-254.248,1018.7,9.76
-228.14,1001.132,30.012
-240.828,971.12,73.444
-215.208,946.72,82.472
-231.068,926.712,104.188
-223.26,919.148,106.628
-199.836,930.128,100.772
-197.884,936.96,114.192
-197.884,940.62,120.048
-216.184,927.688,133.224
-245.464,909.388,139.08
-247.904,915.0,118.096
-234.728,927.932,99.308
-226.92,933.056,97.112
-236.436,933.056,101.504
-246.44,955.504,121.512
-255.956,963.312,127.856
-249.856,962.824,119.56
-243.024,964.288,101.748
-224.48,972.096,80.52
-219.6,970.632,73.444
-225.212,962.336,76.616
-240.828,950.38,103.212
-251.564,939.644,120.292
-264.252,926.224,136.884
-257.908,926.712,131.272
-247.416,935.74,114.436
-226.432,951.112,97.112
-214.476,952.82,89.792
-225.212,945.744,96.136
-241.804,938.912,111.508
-247.904,927.932,141.032
-234.728,921.344,154.94
-226.92,912.804,159.088
-209.596,927.444,133.712
-194.224,949.648,112.24
-173.728,971.364,89.548
-178.608,985.272,93.208
-199.104,971.608,103.456
-222.04,948.184,116.388
-232.288,947.452,115.412
-223.504,955.992,106.14
-204.96,977.464,93.208
-185.44,995.764,78.324
-171.776,1005.768,78.568
-180.316,1005.28,87.84
-193.248,983.564,99.552
-225.7,956.968,120.048
-233.508,941.84,112.24
-234.484,936.228,106.872
-204.228,941.596,85.888
-187.88,947.696,95.16
-184.464,960.384,102.968
-189.588,961.36,120.536
-197.396,954.04,125.416
-201.544,954.04,122.732
-199.592,956.236,118.34
-176.9,966.728,107.116
-154.696,975.268,108.824
-143.716,977.708,104.676
-162.26,968.192,110.532
-181.292,962.092,116.144
-200.568,961.36,119.804
-193.98,961.848,116.388
-181.292,965.264,112.24
-170.556,969.656,106.384
-169.824,970.876,107.116
-176.168,963.8,107.848
-188.368,954.284,114.192
-197.64,953.552,114.924
-204.716,956.724,117.12
-202.276,962.58,103.7
-187.88,964.288,93.452
-176.9,958.676,84.912
-181.536,959.652,93.208
-190.076,971.608,102.968
-189.1,976.976,104.432
-177.876,981.612,106.628
-168.604,975.756,104.188
-178.364,977.22,107.848
-188.856,970.388,99.796
-190.564,966.484,94.184
-188.856,960.628,85.644
-192.272,962.092,90.036
-194.956,967.704,92.72
-192.76,967.216,93.696
-190.808,965.02,102.968
-186.416,965.264,102.48
-191.052,972.34,101.26
-185.44,988.2,89.06
-191.052,999.424,84.912
-188.368,1004.548,78.324
-192.028,1003.572,88.084
-193.248,991.372,99.796
-207.156,976.0,117.12
-216.672,972.096,123.464
-221.064,972.828,123.464
-220.82,971.364,116.388
-229.36,965.752,122.0
-246.196,950.38,124.928
-273.768,932.324,139.812
-292.8,919.88,147.62
-304.268,897.676,155.428
-315.736,870.592,163.236
-336.72,836.676,176.168
-368.196,791.78,194.224
-395.768,736.88,212.524
-422.364,656.848,217.16
-433.832,563.884,206.912
-441.152,488.732,185.44
-467.992,408.7,164.456
-503.616,333.548,132.98
-480.924,286.944,71.004
-470.676,274.988,40.016
-326.228,280.356,17.08
-123.708,315.004,-29.768
45.628,254.492,-61.488
508.496,85.156,-161.04
1191.208,-40.504,-534.116
1413.98,-178.12,-563.152
1753.628,-310.124,-164.212
1976.156,-233.264,-69.54
1780.956,-148.352,-157.868
1662.616,-20.984,-119.316
1692.628,29.28,-186.904
1664.568,56.608,-228.384
1473.028,4.392,-118.34
1382.26,-61.732,-57.584
1350.052,-68.808,-50.996
1292.224,-49.044,-40.748
1321.26,-20.008,-51.728
1301.252,-8.052,-55.144
1290.272,-16.836,-13.42
1366.644,-29.28,5.124
1508.408,-18.3,4.636
1586.0,13.42,6.832
1673.108,51.24,5.856
1793.644,59.048,-67.1
1861.72,48.312,-154.94
1904.664,58.56,-224.48
1903.2,75.152,-286.7
1846.104,48.312,-316.468
1730.936,-14.396,-335.256
1579.412,-60.756,-336.232
1428.864,-93.94,-359.168
1302.472,-103.944,-429.684
1162.172,-118.096,-503.616
1017.48,-119.072,-564.128
894.992,-132.736,-579.012
774.7,-150.06,-577.792
620.492,-163.236,-556.808
487.756,-152.744,-538.264
370.636,-128.832,-510.692
277.428,-101.748,-485.316
170.312,-90.036,-422.852
88.328,-76.86,-354.776
65.392,-70.516,-268.888
121.268,-76.86,-170.8
183.488,-78.324,-58.56
218.868,-60.512,73.688
225.944,2.928,206.912
315.492,82.228,304.024
376.004,142.74,395.768
416.752,175.924,479.704
480.192,185.44,565.836
572.668,179.828,666.364
734.196,167.14,767.136
845.948,152.256,857.904
910.608,147.62,915.0
961.36,138.348,984.296
1115.568,153.476,990.884
1220.976,179.096,995.032
1336.388,177.632,931.592
1424.716,185.684,798.612
1482.3,209.352,619.516
1496.696,219.6,434.808
1535.98,237.168,192.272
1532.564,259.616,-50.752
1515.728,288.896,-288.164
1499.136,340.868,-500.932
1408.856,353.068,-597.8
1299.544,327.692,-611.952
1198.284,278.892,-563.64
1123.376,211.06,-474.58
1114.836,152.256,-396.744
1068.72,126.392,-320.372
1012.844,131.76,-247.904
971.852,144.936,-191.54
951.112,150.792,-125.416
962.824,143.228,-67.1
966.24,140.788,-6.832
987.956,131.272,26.108
1005.036,142.008,61.732
1023.092,149.816,71.492
1054.324,158.844,77.592
1095.804,159.332,70.76
1124.84,145.424,78.324
1171.688,133.956,81.252
1181.936,128.832,70.76
1203.896,135.42,72.224
1281.976,143.228,69.052
1380.064,127.612,56.852
1428.376,110.776,72.468
1504.016,101.992,77.104
1560.38,115.412,67.1
1619.672,98.088,40.504
1597.468,74.908,27.084
1462.78,87.108,74.664
1281.732,153.476,78.568
1016.26,228.14,106.872
758.108,350.628,137.128
483.852,387.716,167.384
303.536,479.704,188.368
195.688,570.472,227.164
87.596,602.436,242.78
-203.496,577.304,339.892
-524.6,548.512,433.588
-681.248,501.176,431.88
-696.62,539.728,407.236
-647.82,542.168,332.572
-610.0,584.136,271.572
-555.344,615.612,223.992
-517.768,674.904,186.172
-522.892,729.072,193.736
-529.236,779.58,208.132
-498.98,822.28,205.204
-435.296,868.884,186.172
-364.536,926.224,164.456
-294.02,981.124,123.22
-277.672,1012.112,117.12
-238.388,1036.512,110.776
-246.684,1026.752,128.832
-234.972,1001.62,137.128
-239.364,959.652,140.544
-250.832,936.96,160.552
-261.324,922.808,144.692
-282.308,916.708,140.788
-282.796,909.876,137.86
-289.628,913.292,142.008
-258.152,924.272,145.18
-216.672,930.86,142.984
-193.492,924.516,140.788
-215.94,930.86,154.94
-239.608,947.696,152.256
-261.324,962.824,150.06
-238.144,978.44,131.028
-229.36,980.392,125.904
-224.968,970.632,130.54
-243.268,964.044,145.668
-271.328,948.184,150.304
-268.888,949.16,147.376
-259.372,954.04,126.148
-256.2,959.408,123.464
-242.048,968.924,106.872
-256.444,963.312,119.072
-267.424,955.992,129.564
-277.184,943.548,129.076
-291.092,925.492,131.272
-283.528,921.832,126.148
-290.848,907.192,121.024
-282.796,898.652,126.88
-285.48,904.264,128.588
-270.84,909.632,137.86
-268.156,909.876,137.128
-258.884,915.0,151.524
-269.376,916.952,159.82
-270.108,924.76,162.748
-279.868,930.128,161.772
-268.4,938.18,145.668
-256.444,952.82,130.296
-251.32,959.896,129.32
-253.272,962.092,125.904
-251.808,964.776,130.784
-254.736,964.288,132.736
-243.512,963.312,130.296
-252.296,956.48,133.712
-254.736,945.744,128.588
-257.176,938.668,127.612
-253.272,939.4,117.852
-246.44,944.036,117.608
-235.704,953.552,113.216
-232.532,955.748,120.292
-240.584,949.16,131.516
-256.444,938.912,149.084
-261.812,937.448,151.768
-256.932,937.692,142.74
-247.172,939.644,133.712
-214.476,943.304,109.068
-206.424,952.576,106.14
-207.4,954.284,111.996
-245.708,950.624,122.976
-271.328,950.868,133.468
-269.376,951.6,129.32
-248.148,947.94,117.364
-227.652,950.136,101.748
-220.332,956.968,98.332
-234.484,960.384,102.48
-248.392,952.82,110.288
-258.396,948.428,119.316
-260.104,942.816,121.268
-256.444,937.204,122.732
-238.388,932.08,112.24
-233.996,929.396,114.924
-227.164,935.252,115.656
-228.384,939.644,122.0
-232.532,946.232,122.976
-235.46,951.112,121.268
-238.388,954.772,118.828
-227.408,957.212,109.8
-236.68,955.992,112.484
-234.972,961.36,107.604
-247.172,967.948,115.168
-254.98,974.536,116.876
-254.004,971.852,116.876
-249.124,967.948,125.172
-228.628,970.144,132.98
-211.548,972.34,136.884
-196.42,962.58,127.856
-201.544,947.94,125.172
-210.084,938.668,123.464
-229.604,926.224,122.244
-242.78,911.096,116.876
-246.196,894.016,110.532
-243.756,894.016,102.968
-254.492,907.924,99.552
-271.572,933.788,107.604
-280.112,962.58,114.924
-280.844,978.684,126.88
-262.544,983.32,123.464
-237.656,987.712,115.9
-228.14,990.152,111.752
-230.336,992.104,113.46
-246.196,983.32,113.46
-255.956,962.58,120.78
-264.008,938.668,127.368
-253.272,926.468,129.808
-249.124,914.024,127.368
-248.88,903.044,133.224
-257.664,894.504,142.984
-274.256,881.328,155.672
-301.828,852.048,166.652
-334.524,806.664,172.02
-362.584,744.688,172.508
-392.352,666.12,170.312
-424.072,581.696,172.752
-436.516,502.396,174.948
-437.248,453.596,184.464
-400.892,403.576,180.072
-389.424,313.54,165.188
-364.536,238.632,152.988
-294.02,186.904,104.92
-261.08,193.248,79.3
39.772,155.672,45.872
326.472,54.412,-60.024
684.42,-94.184,-255.956
1388.36,-221.796,-553.88
1715.564,-244.0,-347.7
1966.884,-519.72,-100.528
2047.892,-476.776,-52.948
2032.52,-273.768,-160.552
1999.336,-67.588,-313.052
1855.864,108.58,-323.788
1783.884,175.192,-322.324
1589.66,134.932,-291.336
1368.352,75.152,-157.38
1378.6,59.048,-144.936
1369.328,52.46,-101.26
1375.916,65.88,-133.956
1395.436,75.152,-178.12
1419.836,84.18,-172.996
1463.268,123.952,-182.756
1574.532,143.716,-178.608
1613.816,142.74,-143.716
1696.776,163.236,-176.168
1763.144,151.28,-233.752
1751.676,145.912,-304.268
1818.044,120.536,-415.044
1802.428,56.364,-406.748
1685.308,-9.516,-380.64
1540.372,-82.228,-351.36
1393.728,-133.224,-336.476
1240.252,-164.7,-331.596
1099.464,-179.828,-349.164
986.004,-187.148,-427.732
864.736,-188.612,-482.632
728.34,-181.048,-486.536
605.12,-170.556,-479.216
485.072,-154.208,-457.012
385.52,-122.488,-448.96
307.44,-69.052,-450.912
257.176,-30.5,-457.5
195.2,-10.736,-432.856
152.012,-3.416,-384.544
150.06,5.124,-300.364
175.192,28.792,-218.624
199.836,62.708,-91.012
259.372,112.972,28.548
288.896,156.16,177.876
286.456,204.228,317.932
343.552,225.7,423.34
456.768,256.444,517.524
567.544,269.62,613.416
657.092,276.94,699.792
725.412,239.608,773.236
833.748,193.248,821.792
996.496,191.784,807.152
1118.496,225.944,802.272
1188.524,283.284,772.992
1247.572,314.028,726.388
1318.332,301.096,691.252
1381.04,285.236,678.564
1400.804,254.98,654.408
1387.872,201.056,654.652
1411.54,181.536,532.896
1433.988,199.104,320.128
1433.012,244.0,79.056
1397.144,240.584,-118.096
1339.072,253.76,-264.496
1257.576,263.764,-404.064
1158.268,273.524,-505.08
1080.92,278.16,-581.208
1051.64,276.208,-629.032
1046.76,248.148,-618.296
1001.864,203.252,-533.14
1020.652,149.816,-433.1
998.204,103.212,-317.444
983.32,100.284,-215.208
968.924,118.096,-133.956
949.648,144.692,-67.344
970.632,154.94,-22.692
999.912,165.92,2.928
1016.504,177.144,28.548
1017.48,184.708,46.604
1039.928,185.684,54.656
1053.592,191.784,48.556
1070.916,199.836,35.38
1093.608,207.644,23.912
1115.568,206.912,21.96
1170.468,189.832,28.548
1225.124,170.068,34.16
1277.34,157.38,40.016
1326.14,146.644,38.308
1292.956,123.22,48.312
1254.16,149.816,62.952
1288.076,167.872,56.608
1341.268,155.184,54.168
1424.716,138.104,34.648
1476.932,138.592,40.992
1481.812,178.608,35.38
1428.132,198.128,15.128
1348.588,206.668,-10.98
1225.368,200.324,-46.848
1128.012,166.408,-79.3
768.844,98.82,-22.936
472.628,169.336,71.004
240.584,266.692,63.928
-33.672,362.828,170.068
-189.588,484.34,227.164
-400.648,505.568,293.288
-531.188,592.188,349.408
-589.016,648.064,390.644
-600.24,663.436,405.772
-641.232,672.952,361.12
-604.144,716.872,247.66
-528.748,793.0,199.104
-435.54,906.704,146.4
-347.212,988.688,65.392
-315.248,1031.876,67.1
-304.024,1052.372,82.716
-316.224,1063.108,109.8
-335.988,1042.368,147.376
-329.156,992.104,144.936
-292.068,970.876,126.636
-262.544,946.964,123.22
-259.372,917.928,115.9
-276.94,888.16,118.584
-304.024,872.544,142.252
-318.908,868.884,148.352
-307.928,880.596,152.744
-242.048,912.072,133.956
-193.736,931.348,122.0
-174.704,941.596,121.024
-173.24,958.676,127.612
-192.516,968.436,124.44
-206.912,983.808,131.516
-209.84,984.052,122.976
-208.376,987.468,127.612
-206.912,991.372,132.98
-198.86,985.76,128.588
-200.812,992.348,137.616
-173.24,989.176,119.804
-177.144,974.048,117.852
-180.316,965.02,118.584
-208.864,957.212,123.952
-226.188,954.772,126.88
-216.184,959.896,123.464
-177.876,972.096,116.144
-152.5,975.024,115.168
-157.136,971.12,125.416
-164.944,972.096,132.492
-178.852,958.188,133.712
-188.856,941.352,137.86
-210.816,925.492,134.932
-229.36,917.196,132.736
-232.044,938.912,125.904
-221.308,961.116,114.436
-195.932,969.9,104.676
-192.028,964.532,105.896
-198.128,959.652,113.216
-214.72,960.872,119.804
-220.088,959.164,123.952
-209.108,962.092,115.168
-200.568,965.752,113.948
-195.444,962.336,112.972
-206.424,954.04,115.168
-216.672,937.692,113.46
-217.16,934.52,110.532
-212.524,933.544,107.604
-215.94,935.008,108.824
-206.18,944.524,108.824
-202.52,958.432,115.168
-194.468,966.484,122.976
-199.836,969.168,126.392
-207.156,968.436,131.028
-219.356,971.12,134.932
-220.332,975.024,130.784
-218.868,980.148,118.34
-212.28,984.54,103.456
-209.352,981.612,98.82
-220.576,962.824,103.212
-228.872,947.696,114.924
-237.9,936.472,128.1
-230.092,938.18,127.612
-213.256,948.916,126.148
-192.76,963.312,123.22
-183.244,968.924,117.852
-195.444,973.316,122.488
-211.548,980.636,123.22
-231.8,981.856,118.828
-236.68,992.348,117.608
-241.804,1014.308,119.316
-241.56,1027.484,128.344
-262.3,1018.944,142.984
-288.164,1000.888,157.868
-315.98,976.488,174.46
-340.624,947.208,188.612
-372.588,899.872,201.544
-386.252,845.704,202.52
-415.288,773.48,207.4
-419.68,687.348,187.636
-438.712,590.48,170.556
-465.796,507.764,151.036
-485.56,439.2,133.712
-493.124,376.492,112.484
-546.072,307.196,130.296
-461.892,257.908,119.316
-437.98,189.344,86.62
-373.076,205.692,98.576
-98.576,174.704,70.76
109.068,69.54,66.124
444.08,-64.172,-52.46
983.808,-172.264,-369.416
1323.944,-189.344,-452.864
1294.42,-271.084,-137.616
1722.152,-355.508,-223.016
1785.348,-339.648,-229.604
1828.048,-294.996,-201.3
1840.492,-276.94,-182.024
1767.292,-192.272,-142.496
1709.708,-138.348,-134.688
1613.816,-129.808,-79.056
1568.676,-127.612,-90.524
1572.092,-125.172,-94.916
1415.444,-110.044,-50.264
1388.36,-108.58,-69.052
1384.944,-105.652,-87.108
1353.224,-88.572,-92.964
1363.228,-90.036,-62.22
1426.668,-102.48,-79.056
1487.18,-86.62,-68.32
1604.3,-55.632,-113.46
1686.528,-30.5,-103.456
1770.952,-31.476,-140.3
1832.928,-36.6,-187.148
1820.484,-61.0,-220.088
1794.62,-80.276,-243.268
1738.744,-87.108,-252.784
1637.484,-114.192,-289.628
1529.88,-143.716,-325.008
1417.152,-166.408,-393.572
1302.716,-168.36,-476.532
1178.52,-178.12,-546.56
1027.728,-188.368,-566.08
864.98,-189.1,-585.356
737.612,-189.588,-605.608
592.188,-183.244,-591.212
465.064,-171.532,-561.688
351.116,-146.644,-550.464
266.692,-123.464,-542.168
194.956,-118.34,-516.304
131.516,-121.024,-447.008
90.036,-103.7,-357.948
56.608,-101.748,-243.268
79.544,-85.644,-145.912
136.64,-50.996,-55.388
173.24,-3.416,65.148
201.544,45.872,198.128
209.596,73.932,346.968
296.46,78.568,451.644
408.7,114.436,560.712
488.488,130.784,705.648
613.416,128.588,820.572
691.008,87.108,942.816
799.344,44.164,1015.772
936.472,22.936,1091.9
1097.024,31.232,1113.616
1281.976,64.172,1094.828
1438.136,118.828,1041.636
1586.976,180.804,919.636
1657.492,206.18,757.376
1698.484,199.592,545.34
1708.488,235.704,289.872
1707.512,248.148,10.736
1650.416,280.356,-253.028
1581.608,308.172,-479.704
1473.76,331.596,-621.468
1354.2,342.088,-707.844
1212.68,294.996,-667.828
1117.52,199.592,-570.96
1123.376,99.796,-453.108
1086.288,24.156,-317.444
1010.404,10.248,-202.032
933.788,40.504,-111.996
887.916,69.784,-45.14
863.028,97.356,2.44
886.208,112.484,29.28
922.32,124.196,50.264
950.624,133.956,63.928
970.876,155.184,76.86
995.764,165.676,92.232
1029.192,157.868,101.26
1051.884,152.744,105.652
1097.268,135.664,90.28
1129.964,126.88,64.66
1125.572,122.976,66.856
1101.172,132.736,71.004
1085.8,132.492,75.884
1062.132,125.904,77.592
1038.952,125.904,69.54
1019.92,126.88,55.876
1000.4,124.196,48.8
1000.156,122.488,49.776
995.52,116.876,61.732
1000.644,111.02,76.86
996.74,106.14,92.964
1023.336,107.604,89.06
1048.468,121.268,71.004
1099.22,130.296,53.924
1210.972,134.2,42.212
1347.124,106.628,24.4
1433.744,74.176,68.808
1617.476,70.028,58.316
1864.404,64.66,-21.228
1847.08,49.532,-20.496
1747.528,89.548,8.296
1609.18,88.816,9.272
1252.696,122.244,61.732
862.296,217.16,127.612
577.304,322.08,80.52
280.112,419.192,128.832
26.352,509.228,196.664
-130.296,600.728,301.34
-172.996,612.44,313.784
-352.336,595.604,410.408
-394.06,590.968,396.012
-319.64,602.192,302.804
-362.096,605.12,265.716
-364.536,627.812,244.732
-362.096,659.532,213.744
-392.108,731.512,207.156
-396.012,794.464,192.516
-390.4,851.804,170.8
-330.376,903.044,142.496
-289.384,956.968,129.076
-285.724,987.956,122.976
-256.932,999.668,121.512
-248.88,988.688,121.268
-266.204,986.736,157.624
-248.392,980.88,159.576
-263.032,968.924,172.02
-244.732,969.9,177.388
-205.204,974.536,171.044
-201.788,960.14,174.216
-239.364,938.424,188.368
-243.268,935.008,184.708
-264.984,945.256,175.68
-260.836,962.824,153.232
-234.972,986.98,147.132
-222.528,975.268,147.864
-243.268,948.672,166.164
-239.12,919.392,185.928
-247.172,907.924,193.98
-232.532,919.148,183.488
-215.208,936.96,169.824
-199.836,951.844,162.748
-210.572,952.576,167.872
-233.264,940.62,178.852
-246.196,935.74,171.532
-244.976,937.692,155.428
-232.288,950.868,154.208
-214.72,955.016,157.868
-222.772,958.676,168.604
-237.412,949.892,183.732
-244.0,937.936,194.956
-235.948,924.76,188.612
-228.872,923.052,177.876
-213.5,934.032,161.284
-192.76,955.016,142.984
-188.124,968.192,150.792
-187.148,964.288,163.724
-193.98,956.968,172.508
-212.524,937.448,182.756
-217.404,939.644,191.052
-213.744,925.492,175.436
-202.764,931.592,169.092
-200.812,943.548,156.892
-200.324,962.336,153.232
-208.864,970.876,151.768
-217.16,963.068,159.576
-228.384,950.868,171.288
-242.78,937.936,185.196
-247.66,927.688,183.0
-243.268,926.956,175.68
-223.748,936.716,155.916
-215.208,945.988,157.136
-209.352,946.72,158.356
-206.18,944.768,167.872
-213.744,940.132,177.388
-218.624,938.912,179.828
-220.82,941.352,175.924
-207.4,947.94,160.308
-210.328,951.844,159.332
-200.08,945.5,146.156
-205.448,946.232,149.572
-213.5,945.5,152.012
-221.064,953.064,157.624
-216.672,956.724,157.624
-211.548,961.36,152.5
-203.74,966.24,138.348
-204.96,965.508,133.468
-208.864,958.432,138.836
-215.696,949.404,148.108
-207.888,944.524,148.108
-206.912,946.964,152.744
-200.08,946.476,148.84
-200.08,952.576,145.18
-203.496,955.992,136.396
-204.228,964.044,129.564
-204.472,962.336,124.44
-208.376,955.748,131.028
-211.06,955.748,134.932
-213.744,955.748,135.664
-215.208,954.528,132.98
-213.988,949.648,134.2
-214.476,953.796,137.372
-212.768,956.968,141.032
-214.232,953.552,147.864
-221.552,950.38,148.108
-222.528,954.772,145.912
-228.872,959.408,138.836
-225.212,964.288,127.124
-221.308,968.436,128.588
-224.724,966.24,132.248
-224.236,964.044,136.152
-229.604,964.044,140.788
-224.968,959.408,136.152
-228.384,953.796,138.104
-226.676,952.332,140.544
-228.872,955.992,147.864
-235.46,955.016,150.304
-247.416,956.236,149.328
-245.464,962.824,140.056
-244.732,977.22,136.64
-236.68,990.152,142.496
-241.072,997.472,162.016
-254.736,997.228,183.488
-282.552,983.564,197.152
-309.148,963.8,212.036
-324.764,934.52,215.94
-326.472,893.528,205.936
-332.816,834.968,201.788
-358.68,768.6,207.4
-396.012,700.524,217.404
-433.1,613.416,221.064
-466.772,510.692,214.232
-493.612,424.804,200.08
-503.372,353.8,183.0
-499.468,275.476,172.264
-495.808,195.444,162.26
-490.44,119.316,129.808
-422.364,95.404,80.276
-286.7,96.624,26.108
-153.72,114.436,3.172
68.808,67.588,29.524
414.068,-116.388,-10.98
1203.164,-261.812,-332.572
1957.856,-348.676,-945.256
2092.3,-333.06,-742.492
2073.268,-258.884,-314.272
1932.48,-230.092,-325.74
1911.496,-228.14,-254.736
1827.804,-203.252,-179.828
1810.968,-183.732,-264.496
1731.912,-124.684,-287.432
1514.996,-74.664,-219.356
1310.768,-66.124,-169.824
1317.112,-96.868,-175.68
1243.424,-119.56,-139.812
1152.168,-122.244,-81.496
1168.516,-133.956,-108.092
1181.936,-146.4,-120.048
1155.828,-158.844,-88.816
1212.924,-161.284,-80.52
1366.888,-164.456,-104.92
1393.24,-137.616,-67.832
1448.872,-107.604,-50.996
1532.32,-94.428,-42.944
1622.356,-73.932,-59.78
1698.484,-55.876,-78.568
1708.732,-59.536,-104.432
1722.152,-73.688,-164.944
1735.084,-99.308,-220.088
1664.812,-118.34,-210.328
1596.98,-148.84,-225.212
1517.924,-169.336,-285.968
1430.572,-173.484,-378.2
1348.832,-176.656,-469.944
1202.92,-197.884,-520.452
1061.4,-216.428,-560.712
926.224,-236.436,-596.336
780.312,-229.848,-615.856
642.94,-209.84,-636.352
517.036,-183.488,-650.016
411.384,-154.94,-634.644
299.388,-140.544,-595.848
210.328,-133.468,-558.76
121.512,-131.272,-489.464
73.688,-113.704,-412.848
49.288,-80.764,-324.764
44.896,-50.752,-234.24
63.928,-32.208,-129.808
136.884,-13.908,-34.648
207.156,14.64,107.116
274.5,51.972,264.008
374.54,83.692,403.576
448.472,81.74,541.924
540.216,55.876,659.776
665.388,37.332,784.948
760.792,39.528,889.38
853.024,48.556,956.724
994.056,52.948,975.512
1147.776,53.436,963.8
1277.096,63.684,929.152
1367.62,98.088,877.18
1454.484,145.912,770.796
1514.264,179.096,654.652
1536.956,177.388,560.712
1575.264,159.332,438.224
1616.744,129.32,263.276
1624.552,126.148,61.488
1597.224,142.496,-134.2
1520.608,163.724,-321.104
1443.748,198.616,-481.412
1371.768,213.012,-574.132
1277.34,208.132,-623.908
1160.708,162.504,-599.264
1095.072,100.284,-537.776
1065.304,45.628,-470.188
1014.064,3.172,-385.764
993.812,-12.444,-320.372
972.828,-16.836,-255.224
945.5,0.488,-187.636
935.008,25.132,-123.22
962.58,48.556,-71.736
984.296,65.148,-23.18
1013.82,81.496,8.052
1052.616,94.672,17.812
1087.02,102.724,28.548
1122.888,106.384,36.356
1140.944,99.552,44.164
1154.852,85.4,46.848
1156.804,80.764,45.384
1161.196,76.86,30.012
1169.492,78.08,17.324
1190.476,70.516,1.708
1242.448,61.732,-7.808
1275.632,46.604,-1.952
1327.848,33.916,16.592
1359.324,3.66,37.332
1332.484,-16.104,69.784
1348.588,-12.2,73.444
1340.292,-2.928,79.544
1356.64,37.332,67.1
1479.616,69.784,24.4
1573.312,68.808,-89.304
1347.856,37.332,6.344
1080.92,69.052,26.352
736.88,130.052,48.8
423.584,249.124,118.828
186.904,357.216,127.368
24.888,448.716,154.452
-108.336,531.432,186.904
-254.98,628.788,231.312
-317.932,660.264,275.232
-528.504,706.136,385.032
-676.368,701.256,395.28
-639.768,711.016,298.9
-580.476,741.272,259.616
-490.44,805.2,188.368
-414.8,882.06,121.512
-365.268,944.524,82.472
-330.376,983.076,49.044
-347.944,1001.864,71.492
-336.72,995.276,78.568
-324.764,970.388,97.112
-299.388,953.064,96.136
-257.176,939.156,91.988
-222.284,933.788,102.236
-191.784,929.396,105.408
-188.124,934.52,122.732
-193.98,935.496,123.464
-201.544,954.04,132.248
-208.62,954.04,121.268
-205.448,959.896,119.56
-197.152,948.184,105.164
-156.892,961.604,97.844
-163.236,953.796,99.552
-200.324,957.456,127.612
-241.804,946.964,128.588
-256.688,954.04,118.584
-250.588,949.892,103.456
-208.376,971.608,88.084
-181.78,983.076,85.156
-148.108,993.568,94.428
-146.888,982.832,102.968
-168.116,979.416,127.368
-191.784,977.22,129.564
-205.448,972.584,127.612
-204.472,957.944,118.584
-173.728,953.796,100.04
-171.288,955.748,101.504
-153.232,958.432,103.7
-150.792,962.336,102.236
-149.816,962.336,110.532
-155.184,967.704,110.776
-159.82,978.196,111.996
-164.7,992.592,111.752
-172.508,986.98,113.46
-167.872,980.88,117.364
-159.576,969.412,109.556
-166.164,967.704,112.24
-186.172,961.848,113.704
-211.06,952.576,111.02
-221.552,947.452,105.652
-214.232,952.576,106.628
-195.2,954.04,107.36
-175.68,952.332,111.752
-170.068,946.476,114.192
-183.244,947.696,120.048
-190.564,956.236,119.56
-190.32,957.456,116.144
-194.224,954.284,115.168
-172.752,958.188,112.728
-158.112,961.36,108.092
-152.988,964.776,109.068
-150.304,967.704,102.236
-163.724,973.316,104.432
-176.656,981.124,103.212
-184.952,981.856,101.016
-173.24,990.152,101.748
-152.5,985.76,99.308
-140.3,976.976,101.992
-148.84,968.68,104.676
-166.652,960.872,109.312
-195.932,953.308,114.68
-207.4,948.428,109.068
-201.3,955.992,106.872
-181.78,965.752,108.336
-158.356,965.996,102.968
-152.988,965.752,111.508
-157.624,964.044,114.436
-167.872,965.264,116.632
-175.68,967.46,105.408
-174.216,973.316,96.136
-167.14,984.54,89.304
-158.356,984.784,92.232
-161.528,979.904,100.772
-172.508,965.02,109.8
-189.1,957.212,113.46
-193.004,958.432,106.384
-176.9,973.072,94.672
-170.312,979.416,89.304
-168.116,982.588,87.352
-179.096,982.1,93.94
-184.952,980.148,104.432
-179.096,977.22,106.384
-175.436,987.224,113.46
-172.264,1005.524,117.12
-179.34,1016.504,120.78
-184.952,1020.896,125.416
-200.568,1018.7,132.492
-211.304,1016.504,138.592
-224.236,996.008,138.104
-236.924,961.604,142.496
-264.984,918.416,149.572
-293.288,876.448,158.112
-330.132,825.452,170.556
-374.052,770.064,183.0
-404.308,709.064,193.004
-433.344,625.616,190.076
-457.256,535.58,172.508
-474.336,463.356,154.94
-489.708,395.524,143.96
-515.572,332.084,122.0
-594.384,284.26,116.632
-503.616,245.952,100.04
-329.4,179.34,54.168
-198.616,135.42,51.972
-11.468,66.368,33.428
432.124,-51.972,-140.788
915.244,-157.624,-505.812
1093.608,-181.536,-508.252
1181.936,-368.928,-85.644
1762.412,-552.904,-244.244
2079.368,-586.332,-505.568
1983.964,-373.32,-391.62
1854.888,-215.452,-382.348
1723.372,-125.416,-297.924
1619.428,-156.892,-155.184
1675.548,-265.228,-172.752
1590.88,-243.024,-113.948
1451.8,-181.292,-120.048
1397.876,-114.924,-174.46
1345.904,-71.492,-214.476
1239.032,-68.808,-208.62
1162.416,-93.452,-165.676
1184.62,-126.148,-162.992
1197.064,-125.904,-143.96
1193.404,-141.032,-69.052
1251.232,-176.656,-2.928
1406.416,-198.616,-34.892
1509.872,-154.94,-95.648
1609.668,-92.72,-127.124
1766.316,-64.904,-163.236
1926.868,-94.428,-182.268
2044.72,-185.196,-225.456
2065.948,-234.484,-219.6
2048.868,-271.328,-215.452
1913.692,-287.676,-209.84
1712.88,-308.904,-181.536
1548.18,-325.74,-143.716
1409.344,-370.392,-104.188
1256.356,-390.156,-86.132
1071.892,-375.028,-75.396
904.264,-353.068,-103.7
705.16,-313.54,-139.812
542.412,-254.98,-197.884
438.224,-183.976,-308.172
353.312,-93.208,-435.54
279.38,-19.032,-540.704
218.136,37.332,-601.948
184.464,75.396,-652.944
162.748,82.228,-685.396
125.416,73.444,-660.996
116.388,84.18,-620.736
105.408,112.728,-561.688
135.42,137.86,-512.888
151.28,155.184,-411.628
201.788,172.02,-283.528
278.648,182.756,-142.008
332.084,191.54,37.576
399.672,186.172,211.792
439.688,174.216,370.148
480.924,191.54,491.416
556.076,207.644,596.336
638.792,188.124,701.5
703.94,149.816,825.452
814.472,108.824,919.392
978.196,86.376,963.068
1074.088,101.016,984.54
1144.604,145.912,1001.132
1217.56,199.104,1007.964
1258.796,195.2,1022.116
1305.644,164.7,1001.376
1396.168,157.624,889.136
1433.012,187.88,759.328
1460.584,206.424,570.96
1451.312,196.176,425.048
1468.148,198.616,215.94
1433.744,219.356,-9.028
1372.256,237.412,-207.888
1338.34,273.524,-429.684
1290.028,297.436,-569.252
1244.888,302.316,-643.672
1184.376,279.868,-638.792
1117.032,229.36,-577.792
1068.964,158.112,-471.408
1041.148,99.796,-360.632
1010.404,73.688,-266.936
982.344,82.96,-192.028
986.736,103.212,-138.592
987.712,123.952,-72.224
991.372,139.812,-21.472
1005.28,154.696,22.448
1008.208,179.584,50.752
1001.864,196.908,75.152
1026.752,195.2,96.624
1056.032,185.196,106.384
1066.524,168.604,104.432
1078.48,155.672,102.48
1106.784,153.232,86.132
1130.208,151.036,75.64
1168.272,143.228,69.052
1218.536,134.2,79.3
1300.276,124.44,62.22
1342.0,111.752,46.116
1330.776,111.996,48.556
1380.308,138.836,5.612
1434.232,151.036,7.076
1567.7,207.888,-28.548
1739.232,217.404,-125.416
1652.124,187.148,-116.632
1364.448,184.952,-8.296
1131.916,285.48,-47.092
705.404,317.932,21.472
383.568,421.144,119.316
278.648,474.336,75.152
46.116,499.712,132.98
-194.468,521.184,212.768
-382.836,526.064,273.768
-500.932,545.34,301.096
-609.756,576.816,337.208
-605.12,612.684,307.928
-596.58,625.616,271.816
-531.432,665.876,210.572
-469.944,721.996,169.092
-435.052,777.14,146.888
-453.108,836.92,149.084
-439.444,899.872,140.3
-454.328,931.592,156.648
-432.856,943.548,167.872
-401.868,937.448,164.944
-369.416,931.348,155.916
-321.836,935.496,152.744
-285.968,932.324,137.372
-263.764,941.596,145.668
-250.588,958.92,154.208
-243.268,960.14,161.528
-265.96,946.964,180.072
-269.132,932.812,183.0
-270.108,928.42,171.288
-245.22,935.496,164.944
-233.996,926.956,158.112
-231.068,926.712,170.068
-256.444,923.052,176.656
-269.376,931.104,182.024
-278.404,931.348,170.312
-261.812,948.184,165.188
-242.048,954.04,157.136
-230.58,949.404,166.652
-240.096,944.28,179.34
-252.784,938.668,183.976
-269.376,934.764,183.0
-255.224,937.936,168.604
-252.296,934.032,161.284
-246.44,935.252,156.892
-255.712,946.72,165.188
-232.532,944.768,150.06
-230.824,933.788,146.156
-226.676,928.176,138.836
-236.924,941.108,149.816
-245.464,941.596,153.964
-257.42,958.432,169.824
-220.332,960.872,153.476
-212.768,962.092,158.356
-193.492,960.384,145.912
-178.852,960.628,130.052
-186.172,959.408,125.416
-206.424,961.848,133.224
-233.264,962.824,136.884
-235.46,964.776,136.64
-229.36,960.628,136.884
-206.424,959.408,134.932
-201.056,958.92,137.372
-203.984,959.408,142.496
-217.404,956.724,150.792
-224.968,957.456,151.28
-219.844,955.504,146.156
-223.748,947.452,143.716
-227.164,943.06,141.764
-239.364,940.62,146.644
-244.488,941.84,142.496
-247.172,935.496,137.86
-237.412,938.18,140.788
-226.188,937.692,143.96
-220.088,933.3,152.744
-227.896,936.228,157.868
-231.068,938.668,148.596
-229.116,951.6,146.888
-221.308,962.336,133.468
-215.94,963.556,135.176
-218.136,964.044,141.764
-225.456,963.556,143.228
-246.684,962.092,148.84
-255.956,955.992,143.472
-264.496,950.868,151.036
-260.836,954.528,146.888
-253.516,961.36,148.352
-250.832,965.752,151.524
-255.224,957.7,153.72
-268.644,954.04,159.088
-266.692,954.284,158.844
-265.472,952.088,164.456
-264.496,949.16,165.188
-279.38,941.352,171.532
-292.8,943.304,174.216
-297.436,937.936,178.608
-297.924,918.66,181.048
-307.684,888.892,189.344
-341.6,850.096,203.74
-376.736,799.1,217.892
-410.652,731.756,224.724
-430.416,669.048,222.04
-428.708,649.284,218.868
-401.38,635.132,190.808
-377.468,603.168,156.16
-343.308,550.952,120.292
-321.348,498.248,101.26
-306.708,446.764,90.28
-259.372,457.012,69.784
-148.84,477.264,50.996
3.172,416.508,-18.056
112.728,323.056,-79.056
231.556,202.764,-125.904
473.116,99.552,-162.748
798.856,-15.616,-187.636
1070.428,-173.24,-254.492
1271.24,-321.836,-317.444
1497.428,-392.352,-250.344
1598.444,-447.74,18.544
1643.584,-438.956,-5.124
1789.252,-348.676,-155.916
1879.288,-265.472,-187.636
1819.264,-197.152,-179.828
1680.672,-162.748,-168.36
1566.724,-149.328,-161.772
1403.976,-118.828,-120.048
1336.144,-91.5,-113.704
1383.48,-96.136,-137.86
1353.956,-85.4,-146.644
1295.396,-74.664,-121.024
1265.14,-87.108,-110.288
1285.392,-81.252,-108.824
1341.024,-68.564,-103.7
1471.076,-60.268,-109.312
1579.9,-58.804,-111.752
1663.836,-45.628,-130.296
1722.64,-32.696,-174.704
1753.14,-33.916,-197.884
1768.512,-56.364,-215.94
1770.708,-85.644,-243.512
1737.524,-122.732,-244.488
1635.044,-138.104,-220.088
1528.66,-172.508,-193.98
1414.956,-204.472,-190.076
1287.832,-225.7,-204.96
1161.196,-228.872,-225.7
1029.436,-234.972,-246.44
891.576,-229.36,-279.624
754.448,-223.748,-322.812
634.888,-197.152,-392.596
533.872,-136.152,-481.9
445.544,-81.74,-549.0
349.652,-32.94,-566.568
272.06,-5.612,-549.488
251.076,-13.176,-531.676
217.16,-11.468,-477.508
174.46,9.76,-406.748
152.256,40.26,-324.276
147.376,82.716,-231.556
161.528,141.52,-138.104
190.808,195.444,-16.104
207.156,216.672,138.104
265.716,223.504,292.312
370.636,219.6,406.504
446.52,230.336,523.136
519.964,230.58,619.272
573.4,219.356,692.472
657.58,194.712,757.132
817.888,166.164,799.588
967.704,169.092,807.64
1077.016,191.052,820.572
1206.336,205.204,806.176
1288.076,205.448,825.208
1335.9,197.884,846.436
1348.344,143.472,871.324
1362.008,108.092,839.604
1389.824,129.808,688.568
1389.336,160.308,507.764
1419.836,200.324,314.76
1433.988,220.82,125.904
1431.06,211.792,-1.464
1398.852,181.048,-101.992
1352.492,145.18,-188.612
1297.348,139.08,-283.284
1258.308,165.92,-418.704
1215.608,186.904,-519.232
1174.616,186.66,-549.976
1115.08,173.484,-526.552
1049.688,152.988,-457.256
1009.916,127.612,-378.444
979.416,119.804,-287.432
969.168,118.34,-202.032
955.504,124.928,-136.884
959.896,146.156,-79.3
969.656,151.28,-25.132
987.712,166.164,14.884
1022.116,172.264,41.48
1040.172,184.22,71.004
1038.464,185.684,108.092
1055.056,179.096,130.784
1067.012,165.92,134.2
1051.884,157.868,119.56
1064.816,160.796,108.58
1085.556,155.672,88.328
1106.052,153.476,99.308
1170.956,139.812,92.964
1217.072,112.728,102.968
1266.604,89.06,126.88
1387.872,69.296,105.652
1473.76,46.116,109.068
1545.252,39.04,98.576
1647.244,58.316,82.716
1678.72,103.456,30.012
1490.108,133.468,6.1
1083.36,223.504,82.96
833.992,355.264,73.444
584.136,466.04,120.048
455.792,572.424,148.84
335.5,595.848,131.272
43.676,605.608,188.612
-212.28,597.068,224.724
-474.58,620.736,315.736
-720.288,616.588,380.152
-803.492,598.288,358.924
-828.136,585.6,331.352
-760.792,601.948,233.508
-630.496,654.652,157.136
-532.164,734.44,109.8
-463.6,813.74,91.012
-422.608,883.28,96.38
-420.168,923.54,127.368
-374.296,945.5,144.692
-326.472,953.064,151.768
-280.6,941.108,142.008
-258.396,940.62,128.588
-248.88,944.768,118.828
-255.712,955.504,126.636
-241.804,945.256,112.484
-235.948,931.592,129.32
-199.836,925.98,126.392
-200.08,934.276,147.132
-219.112,918.172,158.6
-218.868,920.612,159.576
-249.856,903.532,155.916
-229.848,927.2,158.112
-198.86,948.184,129.564
-188.612,974.048,137.372
-149.572,991.128,112.728
-176.168,993.812,125.66
-203.008,985.272,140.3
-229.848,975.512,138.836
-238.632,971.12,141.764
-209.596,973.072,127.856
-192.76,971.12,123.708
-191.296,962.58,126.392
-215.452,955.26,135.42
-243.756,940.62,140.544
-234.24,954.528,135.664
-214.232,958.676,125.66
-186.66,955.992,109.8
-186.904,951.356,117.852
-203.74,945.256,125.904
-217.648,938.668,130.784
-218.624,936.472,127.368
-221.064,932.08,118.828
-216.428,942.084,117.364
-226.432,942.816,120.048
-224.724,947.94,118.828
-202.764,962.092,114.192
-186.172,973.56,111.508
-168.848,980.148,104.432
-162.748,993.08,102.968
-172.264,1004.792,100.04
-187.148,999.424,105.164
-204.472,984.296,111.508
-208.376,969.412,117.364
-201.544,958.188,114.68
-194.712,953.064,118.584
-190.32,946.964,117.852
-199.348,938.18,120.536
-208.132,935.496,122.0
-221.796,934.764,127.856
-220.088,936.96,129.32
-215.94,934.52,129.808
-202.764,938.424,127.368
-196.908,945.744,128.1
-194.468,954.528,124.684
-179.096,969.168,114.68
-187.636,972.584,110.532
-188.856,974.048,112.24
-195.932,973.804,114.192
-200.324,971.12,123.708
-205.692,963.556,128.832
-212.036,963.068,127.612
-208.864,964.288,117.852
-205.448,966.728,114.192
-199.348,963.556,105.896
-203.008,960.384,114.924
-208.376,957.944,119.316
-214.72,958.92,121.268
-209.108,957.944,116.144
-210.084,956.724,109.068
-200.568,963.068,102.724
-200.08,965.508,97.112
-199.592,964.288,106.14
-206.912,957.456,112.728
-213.988,954.04,122.976
-221.308,954.04,124.684
-216.428,952.088,111.996
-210.816,954.772,101.992
-200.568,961.116,93.208
-202.764,962.336,95.404
-219.112,953.796,104.676
-247.416,938.424,120.536
-272.548,919.392,134.932
-286.212,893.284,142.984
-306.708,859.368,152.012
-330.864,810.812,158.356
-340.868,752.008,143.228
-337.94,688.08,107.116
-357.216,634.888,78.812
-382.592,583.648,59.78
-405.04,536.8,50.508
-422.608,498.736,67.832
-419.68,460.184,76.372
-403.088,430.172,82.472
-283.528,380.152,57.34
-158.844,322.08,9.272
-62.22,249.612,-7.564
176.412,157.136,-29.524
435.052,-11.956,-116.144
926.224,-116.632,-314.516
1373.72,-180.316,-549.244
1566.48,-200.568,-614.636
1393.972,-339.648,-171.532
1567.7,-448.716,-30.988
1931.016,-519.232,-277.428
2137.684,-425.048,-505.812
1850.74,-250.344,-366.732
1728.74,-88.572,-411.628
1621.868,-27.084,-403.088
1380.796,-32.94,-281.576
1283.684,-101.26,-209.596
1269.532,-147.864,-163.236
1243.668,-141.032,-141.764
1223.904,-118.096,-174.216
1174.616,-107.116,-173.484
1118.252,-111.264,-178.608
1120.936,-141.764,-129.564
1233.176,-185.928,-94.428
1333.704,-204.228,-86.132
1372.256,-171.288,-59.78
1438.868,-141.276,-44.164
1516.216,-115.412,-25.62
1656.516,-101.992,-88.084
1770.464,-61.488,-142.008
1852.936,-50.508,-218.38
1834.148,-73.444,-244.0
1739.72,-97.112,-278.648
1677.988,-119.804,-333.792
1595.76,-138.104,-358.924
1479.616,-154.696,-385.764
1375.184,-193.248,-411.628
1266.604,-210.328,-413.092
1156.804,-224.48,-404.796
1035.78,-243.756,-396.744
906.46,-233.02,-408.7
792.512,-210.084,-443.104
690.276,-173.24,-492.392
598.532,-139.08,-514.352
519.232,-104.432,-537.776
438.956,-71.736,-554.124
369.416,-29.768,-559.492
311.832,-21.96,-527.284
284.748,-10.98,-486.048
239.364,5.612,-409.432
208.864,35.38,-364.78
186.416,65.392,-313.54
182.512,107.36,-252.052
193.004,134.2,-149.084
244.0,145.668,-47.58
306.22,155.428,63.44
337.452,177.632,191.296
364.292,210.084,306.708
408.944,244.732,405.284
457.5,277.672,501.908
560.712,291.824,582.184
656.36,283.04,658.068
802.76,253.272,710.772
928.908,231.068,765.672
1040.66,238.144,765.916
1113.86,254.98,730.292
1175.348,282.552,692.228
1206.58,319.64,675.636
1230.736,331.108,653.188
1235.372,303.292,666.608
1253.184,257.42,690.764
1260.504,203.984,682.224
1270.996,190.564,616.588
1274.168,198.86,504.836
1296.128,215.208,415.776
1334.924,217.16,321.104
1329.556,166.164,287.188
1304.668,82.716,248.148
1315.404,13.908,139.568
1308.572,14.64,-14.152
1280.268,54.9,-202.52
1258.308,117.12,-406.26
1221.464,167.14,-546.56
1178.764,195.932,-599.508
1132.648,201.788,-584.136
1078.48,154.452,-518.744
1027.484,98.088,-417.972
996.984,82.472,-334.28
963.312,101.26,-241.804
947.208,115.168,-162.748
952.576,131.028,-110.776
943.792,142.984,-57.096
968.924,165.432,-31.72
966.972,183.732,-3.66
976.0,198.616,28.304
1002.108,189.1,58.804
1046.272,167.628,93.94
1075.552,146.644,122.0
1122.4,129.076,130.784
1179.008,125.172,118.584
1256.356,125.172,92.476
1341.268,127.368,67.588
1384.7,96.38,74.42
1374.208,90.524,96.868
1402.756,99.308,87.108
1498.16,99.552,104.432
1670.668,119.072,53.192
1629.432,95.648,61.732
1546.228,132.248,89.06
1421.788,145.668,81.74
1243.18,203.984,47.092
903.532,275.964,122.0
528.26,370.148,182.512
400.404,454.572,148.108
172.508,468.968,167.872
-130.052,504.104,179.828
-378.2,538.264,204.228
-492.392,593.408,244.976
-608.78,610.244,280.844
-660.752,591.944,242.048
-742.248,586.82,244.244
-756.888,617.076,220.332
-620.004,690.276,146.156
-510.936,752.008,106.872
-454.084,807.152,91.5
-461.16,865.956,108.092
-479.46,905.728,122.0
-449.448,928.664,130.54
-386.496,945.256,130.54
-314.272,957.7,138.592
-257.664,949.16,132.492
-243.024,935.984,162.016
-270.108,934.52,196.176
-264.984,937.936,208.864
-232.288,930.616,200.568
-224.48,922.076,192.516
-200.324,922.564,175.436
-200.568,919.88,164.944
-224.236,927.932,163.236
-229.604,936.96,156.16
-228.872,962.58,147.864
-227.164,965.996,146.156
-214.964,974.536,132.492
-211.548,970.632,117.852
-218.868,974.78,116.876
-213.256,982.344,105.408
-216.672,986.248,112.972
-224.48,981.856,127.856
-219.6,970.144,134.688
-211.06,961.848,130.052
-210.572,961.848,135.908
-192.76,961.36,118.096
-177.876,958.432,125.416
-164.7,956.968,126.148
-176.9,948.428,138.348
-210.328,946.964,162.748
-220.576,943.304,166.652
-210.572,939.4,162.748
-173.972,903.532,102.724
-193.736,957.7,165.676
-218.624,948.916,141.52
-189.832,947.208,109.312
-209.108,956.724,112.24
-203.008,968.924,95.16
-206.668,981.612,86.864
-218.624,997.472,86.864
-217.16,999.912,90.036
-207.888,992.836,89.548
-206.18,984.052,99.796
-227.652,975.512,111.264
-221.308,960.872,121.024
-228.628,960.384,136.884
-234.484,967.46,158.6
-198.372,952.332,138.836
-208.864,936.228,145.18
-198.616,932.812,141.764
-178.852,925.736,133.712
-177.388,928.176,132.248
-164.7,936.716,120.292
-167.384,956.48,109.312
-193.004,990.152,110.044
-190.564,977.464,90.036
-207.4,985.76,96.136
-214.232,977.464,100.528
-200.812,955.992,87.596
-199.836,956.48,88.816
-208.132,976.244,102.724
-207.156,961.604,111.02
-209.596,961.116,123.22
-216.428,958.92,126.636
-211.304,956.724,121.268
-223.26,952.576,119.804
-234.972,962.336,120.78
-232.776,958.92,120.536
-228.872,952.088,119.316
-247.416,943.792,124.196
-265.472,940.376,124.928
-287.676,941.352,133.956
-290.604,940.132,130.54
-284.748,929.884,125.416
-272.06,919.392,123.708
-274.012,912.804,127.368
-276.696,916.952,131.028
-295.24,914.756,135.908
-295.972,918.904,134.2
-299.388,922.564,132.736
-283.528,926.224,123.708
-286.456,929.152,125.172
-288.896,918.416,119.072
-303.292,904.996,119.56
-316.956,879.376,122.0
-345.016,848.388,138.592
-381.128,807.884,157.38
-417.728,753.472,170.556
-447.984,690.032,163.724
-477.02,615.124,133.712
-502.64,555.344,115.656
-504.836,489.708,87.108
-501.42,409.432,60.268
-523.136,312.808,56.852
-539.24,221.308,45.628
-519.232,175.924,7.076
-482.876,146.4,-4.148
-336.476,89.548,-73.932
-149.084,28.06,-89.792
56.608,-169.336,-88.084
529.968,-480.924,-88.328
1159.0,-792.268,-207.4
1896.612,-949.892,-376.492
2526.62,-734.44,-366.732
2332.884,-585.844,-198.86
2140.856,-467.26,-96.868
2130.852,-388.692,-55.388
2105.964,-368.928,-47.092
1911.984,-307.928,44.652
1853.912,-250.588,-16.104
1736.792,-181.292,-67.344
1535.736,-121.024,-51.728
1424.472,-107.36,-68.808
1381.284,-124.928,-70.76
1303.936,-118.34,-26.352
1248.548,-118.584,-5.368
1280.756,-144.692,17.324
1353.712,-142.984,-11.712
1439.844,-115.412,-17.568
1574.044,-96.136,12.444
1722.152,-92.476,-23.912
1752.896,-77.104,-51.24
1760.948,-51.484,-76.86
1789.252,-48.556,-114.192
1817.068,-54.656,-200.08
1751.92,-73.444,-237.168
1662.86,-89.548,-247.904
1568.188,-126.392,-235.704
1455.948,-169.092,-225.212
1321.504,-198.372,-202.764
1178.032,-232.532,-179.584
1020.896,-262.056,-187.148
854.732,-272.548,-218.624
704.184,-240.096,-284.992
569.496,-177.144,-356.972
454.572,-118.828,-429.928
355.02,-61.0,-483.364
283.04,-4.392,-507.52
211.792,34.892,-513.62
148.352,50.02,-514.108
126.392,70.76,-519.476
123.22,105.164,-511.668
152.744,148.596,-506.788
201.3,188.612,-467.992
225.7,210.328,-371.612
259.128,194.956,-232.776
298.168,200.08,-89.304
312.808,202.032,46.604
364.78,210.084,151.28
403.576,226.92,284.016
457.988,223.992,399.184
517.036,217.648,502.396
559.492,185.196,602.924
626.104,141.032,730.048
741.028,85.156,827.892
843.264,68.808,930.128
922.808,79.3,976.244
986.98,98.332,955.016
1050.908,131.76,915.732
1115.324,152.988,900.36
1197.308,151.28,891.576
1263.676,140.788,891.82
1346.392,137.616,833.016
1417.64,141.276,755.912
1451.068,126.88,683.932
1478.396,91.5,587.308
1523.292,118.096,379.664
1519.632,164.456,153.964
1477.908,176.168,18.788
1439.356,174.704,-120.536
1398.608,179.584,-237.412
1352.492,179.584,-329.156
1304.668,160.308,-356.484
1244.644,135.176,-359.656
1164.856,120.536,-341.6
1110.444,85.644,-301.096
1050.664,66.124,-263.764
1023.58,77.104,-257.42
990.396,88.084,-238.144
981.856,97.356,-221.308
983.564,115.168,-192.028
971.852,130.784,-126.636
962.58,132.248,-54.656
1000.156,116.632,12.688
1046.516,112.972,52.216
1089.46,114.68,79.788
1140.212,117.608,93.208
1201.456,113.46,109.8
1235.128,106.628,129.808
1258.796,94.916,146.156
1286.612,99.552,156.404
1345.172,100.04,139.568
1423.74,89.792,143.472
1472.052,111.996,144.204
1532.076,135.664,96.136
1538.664,155.672,78.324
1459.852,191.296,55.388
1245.62,205.204,45.384
968.436,269.132,85.4
823.5,344.772,81.496
749.08,383.324,26.596
567.056,401.136,46.604
489.708,474.336,59.048
310.856,505.568,82.96
48.068,554.856,179.34
-212.036,615.368,274.988
-427.732,684.908,346.968
-563.152,655.628,379.908
-617.076,635.62,354.044
-740.052,638.06,320.86
-746.64,638.792,235.948
-711.748,676.124,162.016
-626.348,779.336,99.308
-514.352,854.244,90.768
-449.204,901.336,95.892
-400.892,955.504,132.98
-344.772,1010.16,142.008
-319.64,1037.244,141.764
-278.404,1039.44,128.344
-218.868,1020.652,125.904
-200.568,996.984,123.22
-205.936,962.336,129.076
-241.072,939.4,148.596
-252.052,933.544,152.988
-259.128,918.904,165.188
-250.344,907.68,149.084
-237.656,903.776,131.76
-227.896,917.44,118.828
-200.812,934.032,110.288
-207.156,938.18,113.704
-231.068,956.724,131.272
-252.784,963.556,128.344
-261.812,962.58,116.388
-268.4,951.6,108.336
-271.328,933.056,105.652
-282.552,921.832,118.828
-291.58,926.468,125.416
-276.94,940.62,126.148
-268.644,940.132,119.56
-250.588,941.596,117.12
-267.18,948.428,120.292
-262.056,953.308,119.56
-248.148,951.112,107.36
-247.904,935.008,106.872
-263.276,923.54,115.168
-269.376,917.684,129.32
-265.716,920.124,138.836
-259.372,931.836,127.856
-259.128,953.064,114.68
-255.468,972.096,94.916
-256.932,963.8,95.892
-261.324,946.232,105.652
-273.28,941.352,119.316
-264.008,954.04,117.852
-261.324,960.14,116.876
-244.732,962.58,103.7
-250.344,961.604,104.188
-256.932,953.308,111.02
-271.572,939.888,122.244
-280.6,929.64,129.808
-279.38,922.076,133.956
-262.788,922.076,124.44
-255.224,929.396,115.412
-256.2,936.716,112.728
-251.32,946.232,108.336
-254.492,944.768,111.264
-257.176,948.428,114.192
-265.228,955.26,111.02
-255.712,951.6,105.896
-248.148,948.916,103.7
-249.856,943.548,106.872
-263.276,944.768,114.436
-269.132,950.136,112.972
-266.936,952.576,110.776
-256.932,954.04,98.82
-249.124,950.624,96.136
-243.756,949.16,99.796
-250.588,938.18,107.116
-267.668,933.056,115.168
-274.5,943.06,113.948
-270.84,948.672,113.704
-268.888,946.72,112.484
-270.84,934.276,119.316
-286.456,917.44,125.66
-306.22,903.532,133.712
-320.86,899.872,140.788
-323.056,895.724,146.644
-315.98,879.62,145.424
-320.616,850.828,147.132
-333.792,814.96,149.816
-361.608,760.792,150.06
-397.964,711.748,146.644
-404.064,685.152,114.68
-375.76,641.964,41.724
-393.084,582.916,26.84
-395.768,505.324,20.252
-407.968,433.344,48.556
-395.036,357.46,86.864
-327.692,315.248,118.828
-233.752,253.516,92.72
-59.048,205.204,72.956
244.0,108.092,-22.204
579.256,7.32,-207.888
877.18,-67.588,-324.52
993.08,-188.368,-178.608
1352.98,-363.56,-144.448
1764.852,-450.912,-302.316
1886.12,-470.92,-267.18
1844.396,-396.988,-119.56
1789.496,-378.2,-40.504
1925.892,-377.956,-65.392
1906.86,-362.096,-60.024
1737.036,-281.82,-50.996
1653.344,-209.108,-141.52
1540.128,-154.452,-183.244
1387.628,-100.528,-198.128
1216.584,-77.836,-155.184
1186.084,-101.748,-157.624
1109.956,-126.392,-115.9
1053.104,-151.036,-83.204
1037.488,-189.588,-87.84
1038.708,-211.792,-99.552
1015.772,-237.9,-74.176
1030.168,-249.856,-51.728
1103.124,-255.712,-41.48
1145.58,-234.484,-25.62
1197.552,-199.348,-21.96
1278.804,-158.356,-34.404
1406.904,-139.08,-48.556
1530.368,-137.128,-32.452
1654.32,-131.272,-42.212
1702.144,-84.668,-45.14
1741.428,-65.636,-46.36
1789.74,-75.64,-76.616
1810.48,-99.552,-118.828
1815.848,-147.132,-178.852
1761.924,-185.196,-186.66
1645.292,-197.64,-179.34
1523.78,-221.064,-148.84
1424.716,-236.436,-127.368
1364.204,-270.108,-117.364
1258.308,-313.784,-83.692
1095.072,-337.208,-64.66
894.748,-320.616,-75.884
723.948,-271.328,-123.22
565.348,-198.616,-194.712
428.708,-113.948,-258.884
343.308,-47.824,-315.248
302.804,2.684,-344.772
264.008,39.772,-384.056
263.032,77.836,-431.392
284.504,119.804,-500.688
306.22,152.744,-557.784
301.828,189.1,-561.688
278.892,214.72,-546.804
244.0,241.316,-495.808
219.356,256.688,-380.64
215.696,249.124,-230.58
252.54,213.012,-36.356
325.252,214.476,133.712
395.524,235.216,291.824
426.756,260.348,455.304
480.68,268.888,557.052
551.928,281.82,648.064
613.416,264.252,754.204
715.896,233.752,821.06
834.724,222.528,866.688
900.36,247.904,875.472
972.828,278.648,815.692
1013.088,320.86,769.576
1075.308,350.384,745.664
1132.16,347.212,772.504
1194.136,332.816,803.248
1249.768,294.508,818.132
1305.888,258.152,764.208
1387.628,266.448,626.104
1420.324,303.048,438.956
1384.212,342.332,226.432
1360.3,358.436,53.192
1337.852,369.416,-111.508
1264.408,357.216,-204.716
1245.62,316.468,-266.204
1227.564,275.476,-294.02
1218.78,239.12,-301.828
1169.248,238.632,-305.244
1104.832,235.216,-295.972
1056.032,229.36,-272.06
1009.428,211.548,-222.04
1006.988,196.42,-154.696
1022.604,172.752,-106.872
1015.284,176.168,-69.54
996.496,192.272,-44.896
982.588,215.94,-26.84
983.32,231.8,3.66
1011.868,231.8,31.476
1059.448,225.944,65.636
1126.304,224.48,77.592
1188.036,218.136,84.668
1212.68,219.844,110.532
1214.144,220.82,123.952
1225.856,229.848,120.78
1266.116,243.756,106.628
1263.188,270.352,86.864
1284.904,312.32,49.776
1315.648,359.9,24.888
1309.548,383.812,13.42
1253.916,401.868,25.376
1124.108,414.8,106.384
1042.612,490.44,170.556
980.88,585.356,174.704
829.356,658.312,246.928
704.916,694.912,211.548
601.46,667.096,166.896
420.168,654.652,178.608
223.504,621.712,138.836
-38.308,557.296,164.212
-402.112,513.864,251.808
-744.688,543.876,303.78
-772.992,520.94,279.624
-848.388,568.276,320.86
-796.904,578.28,215.208
-681.736,628.3,143.472
-594.628,691.74,126.88
-523.624,764.696,115.656
-488.0,825.94,130.052
-441.64,882.548,142.008
-379.42,934.764,139.812
-323.056,987.468,122.244
-256.2,1024.068,89.06
-226.92,1030.656,89.792
-213.988,1007.476,104.676
-219.844,976.0,119.072
-242.536,954.04,138.836
-253.76,909.632,112.24
-237.656,923.54,104.432
-251.32,928.664,99.552
-235.948,937.936,96.136
-239.608,928.908,110.776
-235.216,927.444,118.34
-222.04,937.936,115.656
-224.968,946.476,113.704
-218.868,957.7,109.8
-225.456,967.948,110.776
-214.964,978.44,104.432
-233.752,979.904,116.876
-233.02,965.264,116.144
-247.172,957.7,133.956
-232.288,959.408,115.168
-239.364,958.676,125.416
-214.476,958.432,112.728
-218.868,952.332,108.824
-201.788,952.332,112.24
-222.284,948.428,112.728
-216.916,950.868,113.704
-229.604,941.352,112.728
-223.26,947.208,102.968
-232.776,942.328,101.992
-217.16,954.772,100.284
-220.576,959.896,102.236
-206.424,962.58,104.92
-210.084,962.824,109.068
-203.984,963.556,108.336
-207.644,959.652,104.676
-210.328,968.436,97.356
-213.5,967.216,92.232
-214.476,964.532,88.084
-207.888,966.484,92.476
-190.808,966.24,91.5
-192.272,959.164,99.308
-206.18,953.064,104.92
-222.04,946.964,104.432
