acc_x[mg],acc_y[mg],acc_z[mg]
-121.756,752.74,79.3
-147.62,680.76,141.276
-106.14,627.08,186.66
-46.848,777.14,105.652
9.272,956.968,-10.98
-108.092,860.588,29.036
-286.212,778.848,91.5
-402.6,760.304,85.156
-408.7,759.084,49.288
-322.812,795.196,11.224
-305.488,811.544,19.276
-247.172,773.968,112.24
-183.732,687.836,231.068
-268.4,675.148,194.956
-330.864,746.396,89.06
-302.316,809.348,16.836
-297.192,756.888,70.272
-217.404,712.968,112.972
-315.492,660.02,199.104
-414.068,678.076,154.94
-326.228,845.704,-5.368
-347.944,911.828,-30.988
-378.688,833.748,73.2
-405.528,817.4,138.104
-355.02,853.268,117.12
-293.532,937.936,71.98
-317.2,938.668,70.028
-280.844,946.964,34.404
-274.5,962.58,41.236
-373.076,912.56,105.408
-413.824,854.732,145.18
-400.648,823.256,147.864
-382.836,860.1,133.224
-376.248,913.048,45.872
-384.788,925.98,31.476
-413.092,934.032,13.42
-390.644,914.024,41.236
-378.2,840.336,104.188
-282.308,863.76,73.932
-260.348,931.104,44.896
-329.644,922.808,61.488
-305.732,885.476,81.252
-305.244,853.756,117.608
-293.776,903.044,87.352
-291.58,940.864,62.952
-359.9,884.256,109.068
-386.252,829.844,137.616
-405.284,842.044,115.412
-351.116,925.248,101.504
-279.38,957.944,87.84
-321.348,916.464,116.144
-341.112,886.208,125.904
-344.284,911.096,110.044
-311.832,956.968,81.496
-299.876,953.064,78.08
-303.536,928.664,87.352
-323.788,926.224,103.944
-318.176,912.804,117.12
-324.032,910.608,90.28
-305.0,939.4,66.368
-308.904,946.72,78.812
-304.268,937.204,118.584
-320.128,915.244,130.296
-347.212,919.636,116.388
-349.164,927.688,104.676
-317.2,944.768,87.108
-322.812,940.864,91.5
-319.396,937.936,91.988
-318.176,922.564,130.052
-312.076,911.096,140.544
-311.344,935.252,102.48
-319.396,972.828,56.852
-353.312,971.608,60.024
-309.88,947.696,89.548
-329.156,899.628,119.316
-345.748,885.964,109.556
-336.72,921.588,102.968
-322.324,944.036,103.7
-320.616,950.136,82.472
-344.772,901.58,107.848
-349.896,892.552,108.336
-352.092,908.9,99.796
-334.036,925.98,96.868
-312.076,938.912,85.4
-345.504,929.152,115.9
-319.64,931.836,106.384
-336.964,928.664,111.996
-348.92,929.152,68.076
-361.608,928.42,89.304
-339.404,916.22,108.58
-307.44,912.804,127.612
-319.152,899.384,123.464
-344.284,886.696,136.152
-341.844,898.164,135.42
-353.312,906.704,120.78
-332.328,924.028,108.58
-329.4,935.496,99.796
-339.648,920.856,125.904
-325.252,906.216,130.54
-335.5,907.924,125.66
-321.104,934.52,120.536
-305.244,944.768,132.736
-299.144,932.324,141.52
-325.008,914.756,142.008
-326.472,937.448,104.188
-340.136,947.94,90.768
-332.572,939.888,107.848
-315.492,922.808,121.268
-340.624,924.516,137.128
-345.504,923.296,129.808
-345.26,904.996,152.988
-353.556,890.844,161.04
-294.264,931.104,132.492
-332.084,933.3,121.756
-325.496,925.492,119.072
-350.628,895.968,138.592
-337.696,885.964,153.232
-320.86,905.24,134.688
-343.552,918.904,108.336
-349.164,928.908,82.96
-356.728,940.864,71.004
-353.068,935.74,75.396
-370.392,900.604,130.296
-350.384,895.236,135.176
-327.204,908.656,125.904
-303.536,919.148,108.092
-333.06,896.7,134.688
-360.876,869.128,155.428
-328.18,874.74,152.256
-334.28,896.212,134.2
-351.36,888.16,135.664
-338.672,882.06,134.2
-345.504,887.672,169.58
-377.224,898.164,151.768
-354.044,927.2,133.712
-278.892,929.884,132.736
-236.924,939.888,114.436
-252.54,952.332,113.46
-249.368,936.472,133.712
-227.652,951.844,138.592
-214.72,991.128,81.008
-252.54,994.788,94.428
-311.344,982.832,75.64
-345.992,973.316,77.104
-326.472,963.312,75.396
-325.74,926.956,120.78
-325.252,896.7,121.268
-326.228,901.092,159.088
-420.656,911.34,134.688
-624.884,835.212,-104.676
-961.848,713.212,-202.52
-906.704,621.224,-147.864
-459.452,565.348,-103.456
-393.084,538.752,244.732
91.5,99.796,521.672
1136.796,-364.048,545.828
2044.964,125.66,411.872
1921.744,483.608,-124.196
1358.592,353.068,-294.752
1154.12,137.616,127.124
1108.98,239.608,10.736
1148.752,366.488,-99.064
1044.076,484.096,-187.88
852.78,514.108,-46.848
766.648,458.72,26.352
806.908,327.448,27.328
885.476,357.704,-34.404
917.196,301.584,-15.86
802.272,284.504,26.596
728.34,266.204,-12.2
693.204,210.328,-35.868
680.76,180.316,-84.424
608.292,179.34,-108.58
477.508,221.552,-83.936
412.116,195.688,-71.004
325.496,101.504,58.072
247.416,-45.628,222.528
111.508,-35.624,151.768
210.816,-24.156,-15.616
448.472,-15.128,-159.82
436.028,-45.872,-181.292
518.744,-177.144,-26.596
759.328,-266.448,-67.832
884.988,-314.516,-90.28
913.048,-350.14,-111.752
999.424,-448.228,9.516
1289.296,-434.32,87.108
1555.256,-382.836,40.748
1421.3,-334.28,-27.328
1057.008,-290.604,-101.992
1386.408,-292.8,-99.064
1750.456,-335.012,-160.308
1810.48,-323.788,-74.908
1668.228,-428.952,110.776
1439.356,-436.272,71.736
1524.512,-339.16,-109.312
1731.424,-375.76,-119.804
1792.424,-415.044,-81.74
1679.94,-457.5,21.472
1511.58,-457.988,137.372
1247.572,-402.112,40.992
1321.504,-300.608,-61.488
1351.028,-334.768,-54.656
1209.752,-343.308,23.424
1075.552,-349.164,31.72
1058.716,-371.368,42.7
1202.676,-335.744,64.66
1593.32,-259.86,58.56
2017.392,-170.8,50.02
2143.54,-429.44,-181.78
1831.22,-792.512,-11.468
1479.128,-807.884,93.452
211.304,-522.404,503.86
-936.96,-62.464,70.516
-116.632,783.24,-564.372
603.9,1362.252,-574.864
-350.628,590.48,-17.324
-379.908,518.744,-9.272
-297.68,808.372,-67.1
-117.608,888.404,-26.596
-38.552,911.096,26.352
-101.504,910.12,75.884
-97.112,945.256,135.42
-33.428,943.792,128.588
-24.888,1006.256,110.776
115.9,1132.648,5.368
4.88,1077.992,19.032
-56.852,1037.976,32.696
-50.264,1022.36,8.54
18.3,1104.832,-28.548
2.928,1021.14,10.248
-4.88,984.052,9.272
-31.964,975.268,13.908
25.62,1087.752,-30.5
156.892,1153.876,-66.856
84.668,990.64,63.196
132.736,946.964,96.136
93.94,977.464,116.144
110.776,1027.728,101.016
117.608,1062.62,72.224
106.628,997.716,86.864
61.244,982.1,53.436
-69.052,1002.596,-20.008
3.416,1157.536,-152.012
0.244,1149.972,-87.596
128.588,1135.332,6.832
177.144,1106.296,76.616
230.58,1145.58,48.312
276.452,1169.736,26.352
315.98,1095.316,21.472
225.944,908.9,79.788
186.416,751.032,165.92
122.732,672.952,159.576
-66.612,617.32,166.652
-185.684,622.444,56.12
-284.992,703.696,-44.408
-333.548,821.548,-147.864
-418.46,899.14,-163.236
-491.172,941.108,-118.096
-439.444,923.54,-12.444
-176.168,981.612,42.7
-102.724,1017.236,85.4
-144.692,1035.292,66.856
-210.816,965.752,122.732
-95.648,894.748,217.892
132.248,1001.864,180.072
102.48,1078.724,75.64
15.128,1130.94,16.592
9.76,1133.136,47.336
52.46,1129.232,8.052
6.1,1034.316,61.976
26.108,936.716,95.892
52.948,919.148,46.848
17.08,944.768,0.0
-1.952,1011.38,-8.296
-5.124,972.828,72.712
89.06,965.508,41.236
73.688,971.852,32.94
61.976,976.0,30.5
33.672,963.8,73.688
53.68,996.008,66.124
79.544,1007.72,39.528
79.544,1006.256,30.5
43.188,1018.7,36.6
21.472,1027.24,41.968
19.764,1015.772,52.216
38.308,1005.524,43.432
65.88,996.496,51.484
47.336,1012.6,48.8
21.472,1060.912,-1.464
11.224,1074.576,7.32
9.272,1039.928,27.816
31.232,1035.78,88.816
64.416,1110.444,87.108
-53.68,1180.716,81.496
-178.12,1284.904,89.792
-182.024,1414.224,78.324
-60.268,1539.152,34.404
3.66,1586.244,106.872
-71.98,1531.1,217.648
-184.464,1604.3,162.016
-81.496,1777.052,-35.624
-74.176,1667.008,-11.956
-11.956,1512.8,21.472
-25.62,1444.968,68.32
-70.272,1469.124,148.352
101.992,1441.552,117.608
263.276,1372.744,78.568
11.224,1230.736,204.228
13.42,1039.684,308.904
41.968,993.812,344.528
242.78,1068.72,192.516
184.708,1026.996,-26.84
31.964,666.364,133.468
23.668,576.816,307.196
118.34,703.94,157.868
395.768,731.268,-68.564
343.552,652.212,-103.212
80.032,337.452,190.076
32.452,301.828,167.628
-16.104,493.368,40.992
-76.128,510.448,26.352
15.128,433.344,5.124
-17.324,426.512,19.276
-241.316,418.216,85.644
-382.836,457.256,88.328
-361.12,525.332,28.792
-354.532,584.136,56.364
-372.832,607.316,129.32
-508.496,566.324,162.748
-503.372,618.784,108.092
-480.192,738.344,54.168
-487.268,770.796,62.22
-419.68,780.068,44.896
-374.052,862.052,13.908
-362.584,912.804,-4.636
-425.292,867.908,75.152
-357.216,878.4,101.504
-388.448,910.364,121.756
-453.108,917.928,139.08
-517.036,918.66,138.592
-590.724,919.392,11.712
-553.392,918.904,-134.932
-547.78,775.188,45.872
-470.432,464.82,129.564
-140.788,399.672,8.296
344.772,825.208,-14.396
752.496,1120.936,-223.748
430.904,791.048,-18.3
990.64,522.404,183.488
1015.04,385.032,423.34
812.764,509.228,241.072
1088.972,407.48,33.916
1008.94,249.856,335.988
877.424,385.032,261.812
954.528,479.704,20.984
927.2,454.328,13.42
1035.78,422.364,30.256
1130.208,326.472,51.484
1067.012,352.58,85.888
918.172,418.948,105.408
951.6,408.7,76.128
1063.108,359.9,-43.92
1018.456,308.172,25.132
941.84,345.504,122.244
925.248,391.864,100.04
987.712,385.032,48.068
952.576,351.848,23.912
939.644,354.532,-25.62
912.804,366.732,8.784
849.608,376.736,17.568
829.6,380.152,-7.076
754.448,337.208,2.44
652.456,322.568,-12.688
452.376,305.976,-16.104
200.812,268.888,25.376
-9.028,204.472,209.108
5.856,135.42,281.576
85.156,52.704,193.248
137.86,63.684,101.748
149.572,88.084,21.96
215.696,100.04,6.588
457.012,22.204,-68.564
609.268,-65.636,-171.044
665.144,-205.936,-139.08
783.728,-354.532,22.204
1018.7,-292.068,-34.648
1171.2,-269.376,-113.46
1131.428,-257.664,-183.976
1117.52,-357.948,-163.724
1312.72,-394.792,-13.908
1392.752,-286.944,-136.152
1332.24,-265.96,-192.76
1377.38,-283.772,-223.992
1607.472,-466.284,-73.932
1722.64,-431.148,49.776
1706.536,-426.024,-62.464
1647.0,-361.12,-141.52
1741.672,-310.612,-207.888
1672.132,-310.856,-149.328
1570.14,-279.624,-92.476
1684.576,-295.24,-115.9
1580.144,-352.824,-107.116
1475.712,-340.624,-79.056
1506.456,-383.568,-45.14
1443.748,-329.888,-38.064
1461.804,-292.556,-51.24
1445.944,-320.128,48.312
1581.852,-243.268,122.0
1856.84,-310.368,111.752
1812.92,-277.672,-90.28
1621.136,-696.376,-37.332
1164.856,-477.752,464.088
720.288,-475.312,544.12
-324.276,-351.36,-97.356
-784.704,318.176,-527.284
366.732,1187.06,-559.004
379.176,1157.292,-316.956
-420.168,623.908,-27.816
-90.768,845.948,13.176
-27.816,1130.208,-42.212
46.604,1151.192,-9.272
131.516,887.184,65.88
167.628,803.004,91.744
-22.204,883.28,284.26
-68.076,1025.044,198.616
256.932,1205.848,51.24
333.304,1198.284,-17.812
265.472,1118.984,9.76
224.236,1040.904,67.1
257.664,979.66,122.976
363.56,1062.376,40.26
361.608,1074.088,5.124
309.148,983.808,27.572
285.724,857.416,94.672
323.788,859.612,81.008
351.848,967.216,18.544
333.548,954.284,20.252
372.1,895.236,71.736
454.816,936.228,117.852
516.06,1051.152,77.592
618.54,1162.172,22.692
700.768,1228.296,-13.176
670.268,1161.44,49.044
576.328,972.584,250.1
502.884,910.852,169.336
358.924,981.124,-6.832
206.18,1014.552,-168.36
32.208,880.352,-197.396
-116.876,761.036,-79.3
-176.168,725.656,12.688
-335.5,664.9,26.352
-421.876,697.84,9.028
-299.632,851.56,-184.22
-382.592,922.564,-212.524
-461.404,913.292,-146.156
-319.884,932.568,-72.224
-278.892,916.952,-4.88
-225.7,957.212,-11.956
-61.0,1087.508,-107.36
-115.9,1091.9,-82.716
-152.988,1033.096,-19.52
6.832,987.712,-2.196
66.124,991.372,89.548
108.824,1037.732,42.944
121.268,1132.404,-72.224
-17.568,1079.456,-82.96
42.212,1002.352,-33.184
81.984,974.048,22.692
72.224,990.396,11.956
100.04,1033.096,-62.708
55.388,984.784,-26.84
-29.768,915.488,14.884
-33.184,914.268,52.216
35.868,906.216,66.856
86.62,950.136,51.24
152.744,1012.844,-17.812
64.66,995.764,7.076
28.304,987.712,38.796
4.392,950.624,45.872
4.636,970.876,27.572
64.172,1037.976,-31.72
8.296,1024.312,-44.652
3.172,1027.728,-28.548
-2.196,1025.044,-62.22
5.124,1006.744,-19.032
18.788,997.472,-4.392
85.4,1049.444,-45.628
83.692,1022.848,-26.84
20.008,971.608,-0.244
47.824,948.428,41.968
-3.904,944.768,36.112
75.396,1053.348,-59.292
-41.48,1003.572,-16.836
61.244,1015.772,-15.128
85.156,1030.656,-21.472
-41.724,963.312,25.864
33.916,1008.696,-28.06
-9.516,1005.28,-11.712
33.672,1051.396,-36.6
78.324,1063.596,-44.896
-17.324,1011.868,20.984
22.692,1050.42,-9.028
15.86,1090.192,-5.612
-3.416,1089.216,1.708
-6.832,1088.728,22.936
-29.28,1104.1,24.888
-66.124,1133.624,50.752
-48.8,1199.016,31.964
-66.124,1286.856,-22.692
-114.68,1335.9,-45.384
-188.612,1252.696,5.124
-132.98,1278.804,19.032
-113.704,1364.448,-43.432
-129.808,1481.08,-137.128
-284.26,1531.344,-101.26
-314.76,1443.748,-15.128
-81.74,1306.376,-38.552
129.32,1337.12,-86.376
82.96,1436.916,-121.756
-110.288,1544.276,-19.032
-144.204,1413.004,31.72
5.856,1239.764,50.264
-80.52,1136.796,162.504
-193.004,1155.584,207.888
444.812,1315.16,-87.352
322.08,1187.548,-10.98
49.532,972.096,216.184
-76.372,850.096,274.012
-281.332,847.412,256.444
-154.94,758.84,246.928
525.088,898.652,117.12
284.26,727.852,-42.212
-1.952,652.944,32.208
-228.872,636.352,123.708
-295.728,531.432,140.788
223.748,540.46,38.796
131.516,465.552,-6.588
-121.268,259.372,-7.808
-94.428,468.724,-47.336
-193.004,583.648,108.336
-156.648,518.256,103.944
-235.704,438.956,162.504
-312.808,413.824,172.02
-378.688,564.128,145.912
-427.488,663.68,65.392
-422.12,663.192,40.992
-409.92,662.948,64.66
-495.32,700.524,126.88
-544.608,796.904,58.072
-535.092,813.984,12.2
-477.02,855.22,11.712
-280.844,848.144,-60.512
-136.152,880.108,-75.64
-247.416,993.812,-6.588
-371.124,1040.172,21.472
-389.424,1102.392,46.116
-321.592,1001.376,-43.432
-323.056,969.168,-36.6
-521.916,975.756,36.356
-777.628,1010.404,53.192
-992.836,989.42,-10.248
-999.424,837.408,82.716
-839.848,892.552,42.944
-220.088,708.576,-62.952
-158.6,152.5,520.208
120.78,111.752,403.088
1156.316,88.084,-165.676
1221.708,283.772,79.788
805.444,581.208,67.1
1514.264,568.276,-789.584
1655.54,339.648,-704.428
815.204,393.328,-80.52
471.164,518.5,120.048
714.432,648.552,-16.348
976.244,653.676,-194.468
866.444,660.264,-137.128
727.852,590.968,-81.74
792.512,544.12,-11.224
1005.28,535.58,-72.224
1056.52,516.304,-83.204
887.428,527.284,-27.572
821.06,485.804,-58.56
922.076,403.088,-28.06
976.244,430.66,-48.068
894.748,462.136,-52.216
964.776,432.856,-152.988
851.072,408.456,-137.86
670.512,396.5,-32.696
675.88,392.596,-84.18
571.692,342.088,-79.788
436.516,261.568,-98.82
242.292,159.82,-20.252
-28.06,56.364,167.628
-133.956,44.896,210.572
-97.112,27.572,228.872
-53.68,-50.508,238.876
168.36,9.028,-29.036
425.048,-12.2,-241.316
520.696,-34.16,-190.32
709.064,-132.004,-30.988
985.028,-225.7,-90.524
1140.944,-293.532,-138.592
1210.484,-231.312,-153.964
1330.532,-200.568,-73.444
1315.404,-167.14,-160.064
1542.08,-240.096,-291.58
1584.536,-333.06,-228.628
1389.824,-302.072,-63.44
1384.456,-179.828,-8.784
1317.844,-145.668,33.184
1412.028,-48.312,-11.468
1737.768,-178.852,-179.828
1999.58,-231.312,-391.864
1957.612,-243.756,-321.592
1603.324,-201.788,-132.492
1628.944,-150.548,-109.312
1543.544,-139.812,-90.036
1457.412,-183.732,-40.992
1392.508,-187.148,-110.776
1388.848,-193.492,-139.08
1270.264,-211.792,-101.748
1146.312,-200.812,-19.032
1235.128,-262.056,-34.16
1200.236,-247.904,-74.664
1150.46,-261.568,-97.356
1049.688,-262.788,-93.452
967.46,-253.516,-72.468
1039.928,-297.924,-73.444
1150.216,-331.84,-63.196
1002.84,-356.972,-3.172
871.08,-366.732,-10.492
1060.668,-337.208,-77.592
1387.628,-354.532,-141.52
1588.928,-325.984,-59.292
1776.808,-370.148,-71.736
1559.648,-345.26,-379.664
1219.512,-359.656,-287.188
921.1,-183.488,-19.764
723.704,167.14,-144.448
-313.296,227.896,75.64
-696.62,687.348,122.976
-76.128,843.508,-298.168
-155.428,517.768,-169.824
-345.016,683.444,28.06
-34.404,986.492,-145.912
-160.064,976.732,-182.024
-299.876,1004.792,79.788
-240.34,1001.62,111.752
-80.52,1089.216,-28.548
-62.464,1074.332,-49.288
11.224,1074.82,-72.956
-56.852,1146.068,-79.056
23.668,1231.956,-50.508
40.016,1095.804,-18.056
41.724,1066.768,4.636
41.236,1028.948,-0.732
50.996,1030.168,-10.492
78.812,1057.496,-75.396
115.656,1064.816,-124.44
112.728,990.152,-51.24
132.98,964.044,12.444
101.26,966.24,2.928
86.864,999.18,-51.972
143.228,1017.968,-50.996
219.356,1090.192,-127.368
193.98,1022.36,12.2
188.612,1015.528,3.904
177.876,1085.556,-48.556
156.648,1069.452,-56.852
180.072,1087.996,-110.288
230.824,1062.376,-65.148
184.952,1040.904,-29.524
243.268,1052.86,-44.652
248.88,1045.784,-32.94
169.092,994.3,-24.644
176.168,982.1,11.956
164.7,948.184,-67.588
89.548,947.696,-104.188
5.368,925.004,-86.62
-24.156,847.168,-50.752
-60.268,847.412,-83.692
-158.844,838.14,-136.396
-243.512,846.924,-123.952
-178.608,905.728,-168.116
-173.972,913.048,-153.232
-142.252,916.22,-107.848
-94.428,944.28,-72.956
-50.264,1017.968,-64.416
15.86,1001.132,-77.836
79.544,992.592,-51.728
55.388,979.416,0.244
85.644,998.692,-45.628
98.82,1063.352,-41.48
109.068,1033.584,-48.068
116.388,996.496,-27.084
74.176,970.388,13.176
7.564,982.588,-36.6
6.344,987.956,-77.592
83.692,1005.036,-76.616
136.64,988.444,-38.796
-5.368,943.792,23.912
-4.392,953.552,-2.684
174.216,1004.792,-54.412
130.052,1009.184,-48.8
72.224,983.32,-33.428
51.728,936.96,-44.164
40.504,942.328,-67.588
10.492,947.208,-42.212
-0.488,944.524,-30.744
5.368,982.344,-63.928
52.46,974.536,-39.528
20.252,976.488,-26.84
10.98,992.348,-16.592
9.76,1019.432,-27.816
119.804,1072.136,-114.192
70.76,1032.12,-71.248
-6.832,1029.192,-62.22
15.128,1030.656,-60.268
33.672,1040.416,-83.936
41.236,1032.12,-64.416
24.888,993.812,-53.68
37.088,960.384,0.976
34.892,934.276,1.952
60.024,980.636,-24.644
54.412,971.608,-28.548
57.584,1010.404,-46.116
101.748,1044.076,-135.176
-7.808,1012.844,-37.088
-27.816,1001.132,-11.712
57.828,1038.464,-31.964
31.72,1051.64,-75.884
-8.052,1048.956,-72.956
-18.544,1025.044,-28.548
37.82,1046.516,-61.732
17.812,1072.624,-46.604
-2.684,1107.028,-61.732
22.692,1104.832,-38.796
25.376,1067.744,-19.52
-10.248,1067.012,38.796
5.368,1135.332,13.42
-120.78,1165.588,-30.988
-180.316,1355.176,11.956
-71.492,1517.192,-48.068
-39.772,1595.516,-46.36
-83.204,1639.68,-65.636
-163.724,1703.852,-31.72
-65.392,1517.924,34.16
-36.844,1401.536,111.996
-123.464,1508.896,132.492
86.864,1638.46,-178.12
87.352,1547.936,-168.116
42.212,1253.184,108.336
77.104,1017.968,330.62
-205.936,1101.416,414.8
-209.108,1213.9,286.456
422.852,1118.496,-119.316
263.276,835.944,-33.916
-90.768,645.624,268.644
-123.708,673.684,395.768
94.428,616.344,147.864
457.5,575.352,18.056
410.652,514.352,-101.016
99.308,427.488,39.04
-98.82,460.428,180.316
-118.584,537.532,63.44
1.952,586.82,19.032
234.24,525.82,-21.96
-38.064,509.228,163.236
-143.472,499.224,123.464
-105.652,617.32,52.46
-217.892,703.452,87.84
-253.516,705.16,72.712
-270.108,733.464,41.48
-221.064,747.128,-51.728
-154.208,819.84,-107.604
-202.276,965.752,-5.124
-267.668,884.988,147.376
-219.356,869.616,188.124
-191.784,936.96,169.092
-201.056,1041.148,89.06
-123.22,1093.364,21.96
-78.08,1134.6,37.332
-203.496,1089.948,115.656
-265.716,1057.496,156.404
-296.216,1063.108,183.0
-300.852,1006.988,162.992
-265.96,963.556,113.704
-385.52,1013.332,150.304
-623.42,1020.164,162.992
-635.132,950.38,30.256
-418.46,681.736,-144.448
-271.572,628.788,115.9
-88.816,787.632,210.572
-73.444,795.928,-71.248
543.632,116.388,-64.904
1123.376,-36.6,735.172
1177.056,382.104,280.112
1118.984,327.448,-207.4
432.124,771.528,132.248
621.224,632.204,-90.28
996.496,440.176,-56.364
1056.032,226.432,127.612
788.852,310.368,187.636
691.252,424.804,164.7
874.984,438.712,16.348
1073.112,399.672,-63.44
1011.868,328.668,0.244
864.98,379.42,101.748
864.98,353.312,39.04
1008.208,371.612,-39.04
1043.832,372.832,-61.244
934.52,286.944,33.672
864.248,274.988,28.304
831.552,278.648,32.94
784.948,273.524,5.368
657.824,233.264,-5.856
464.088,195.688,58.072
267.668,167.872,154.452
161.284,123.464,185.928
239.852,71.248,118.828
337.208,11.956,79.788
296.948,31.964,65.636
118.096,80.276,-0.244
304.512,-9.272,-88.816
522.404,-84.668,-67.1
568.764,-88.572,124.684
713.944,-124.196,75.884
661.24,-247.416,-14.884
810.812,-315.492,-7.076
1009.428,-186.172,-81.984
1156.072,-139.08,-148.108
1326.384,-292.312,-233.02
1399.828,-329.156,-158.6
1290.516,-417.24,-9.272
1453.752,-282.552,-3.66
1545.008,-191.784,-305.0
1553.792,-217.404,-272.304
1680.672,-372.832,-105.408
1670.668,-462.38,40.016
1747.04,-373.564,-49.288
1626.992,-262.544,-213.744
1648.464,-225.456,-227.652
1609.912,-373.564,-78.324
1478.884,-354.776,40.992
1539.884,-294.264,-59.536
1275.144,-232.776,-159.088
1376.648,-329.156,-152.012
1353.468,-394.304,-32.696
1181.204,-365.756,78.324
1236.836,-399.916,90.768
1136.064,-378.2,16.836
964.044,-330.864,-7.076
991.372,-377.224,15.372
1086.776,-383.568,-9.516
1128.744,-462.624,101.748
1352.98,-437.248,69.052
1310.28,-400.892,-1.464
1107.516,-503.128,161.284
1249.28,-587.552,152.744
1508.896,-441.64,-48.8
1343.708,-357.46,-283.04
890.844,-245.708,-158.356
620.736,-60.756,165.188
250.1,219.356,23.424
-296.46,305.0,-354.532
139.324,1026.264,-192.516
351.116,1018.212,-259.616
-58.804,662.216,-287.188
4.88,823.5,-135.908
256.688,1077.992,-278.16
238.632,1238.788,-287.676
232.776,1042.612,-133.956
145.424,962.824,-7.808
305.976,1073.6,-52.216
206.668,1141.676,24.4
320.86,1145.336,-63.684
355.508,1018.456,-61.732
288.896,1035.048,-69.54
221.796,1026.752,-132.492
119.804,1086.532,-92.476
356.972,1067.5,-202.764
384.788,985.516,-113.704
401.38,982.832,-145.912
370.392,977.952,-139.568
328.18,909.632,-70.76
379.664,896.212,-56.852
366.0,920.368,-118.34
277.428,964.288,-134.2
280.6,976.0,-116.144
357.704,943.06,-154.452
329.4,951.356,-103.7
348.188,933.788,-101.748
343.552,940.864,-85.888
281.576,923.54,-70.76
296.948,929.64,-73.688
303.536,870.348,-64.416
298.9,864.004,-27.572
324.52,930.86,-73.932
289.14,927.688,-96.868
221.064,894.504,-93.94
150.06,934.032,-119.072
137.372,1027.24,-190.564
120.536,1060.912,-179.34
180.56,1075.796,-154.208
184.708,1056.032,-112.484
184.708,1024.8,-61.244
162.748,1015.284,-10.004
174.46,953.796,-8.052
193.004,906.948,15.616
101.992,862.052,-11.468
-7.564,873.276,-70.76
-116.388,939.888,-130.296
-102.724,1014.796,-232.288
-47.336,1040.172,-179.828
20.984,1015.04,-109.068
39.772,946.232,-47.336
70.272,930.372,-50.508
40.992,927.444,-68.32
56.852,1016.504,-104.676
115.412,1053.836,-142.008
151.768,981.368,-74.908
151.036,968.68,-52.704
122.976,969.412,-81.252
142.008,1037.732,-183.732
100.772,988.932,-114.924
150.06,939.156,-84.18
199.348,929.884,-23.912
203.74,911.828,-37.576
136.64,925.004,-56.852
76.86,907.436,-41.968
145.424,947.696,-25.132
238.632,994.056,-66.856
189.344,990.64,-61.976
190.808,979.904,-54.9
170.068,965.02,-34.404
176.168,970.876,-41.968
184.464,983.076,-98.576
193.248,981.856,-91.744
157.868,964.532,-83.204
101.26,943.06,-61.244
131.76,972.34,-88.328
191.54,997.228,-98.332
195.444,1000.644,-97.356
188.124,1006.5,-90.524
210.084,1022.36,-94.672
189.1,991.372,-58.804
178.364,964.044,-52.704
169.092,962.824,-69.784
136.64,967.704,-68.808
141.52,964.288,-98.088
121.024,956.724,-88.816
108.092,947.208,-93.94
102.724,969.412,-105.164
161.528,1019.92,-124.196
187.392,1093.364,-149.084
186.172,1107.028,-125.904
137.128,1113.372,-87.84
139.324,1218.78,-57.096
150.792,1347.368,-63.684
246.44,1410.808,-2.44
269.62,1511.336,12.2
215.696,1616.5,-10.492
147.864,1771.928,-122.976
-7.808,1856.84,-91.988
-45.14,1846.104,-19.276
39.528,1790.96,2.44
262.3,1717.516,-55.632
215.208,1632.36,-96.624
50.996,1516.216,-23.18
84.18,1466.928,114.68
238.388,1395.924,113.46
336.964,1294.664,150.06
396.744,1203.164,40.992
38.064,1168.028,186.66
-120.536,1139.236,204.96
-89.304,1056.032,169.092
129.32,869.86,122.732
332.328,661.484,162.504
367.22,407.48,157.624
276.208,174.216,187.88
-18.056,243.512,216.916
235.46,378.444,-54.412
392.84,495.564,-267.424
86.864,283.04,-170.068
-98.576,82.716,206.912
-1.22,135.908,322.812
162.748,352.336,173.972
118.096,519.476,100.528
-58.804,540.46,84.912
-237.9,567.788,64.66
-278.892,625.128,117.608
-249.124,749.568,197.64
-124.44,838.14,186.66
-204.96,833.992,165.188
-296.46,866.2,192.76
-291.092,895.724,194.956
-305.244,936.96,174.216
-220.82,959.408,171.044
-94.672,928.42,181.78
-119.56,916.708,221.796
-188.124,904.02,264.74
-255.468,867.664,263.032
-298.168,902.068,220.576
-259.86,901.58,101.26
-335.744,883.036,84.18
-539.24,904.02,80.032
-829.356,936.472,13.42
-741.516,794.22,-76.372
-552.66,410.652,-75.884
-414.556,352.336,131.516
-120.292,408.212,267.424
491.172,276.452,165.676
1428.376,237.412,68.32
1363.96,447.496,462.38
350.14,911.34,17.08
883.28,836.676,-721.508
1611.62,239.12,-150.792
1258.796,38.552,209.596
723.46,261.812,247.416
828.868,386.252,73.688
1018.7,388.692,-11.712
1096.292,245.464,-88.572
1136.064,202.276,-112.484
1095.56,185.684,-36.356
1044.076,330.376,-46.36
1046.028,344.04,-79.3
1107.516,223.748,-43.676
1116.3,87.84,-18.3
998.936,105.896,35.38
905.484,173.728,9.516
865.224,202.52,-70.272
677.344,185.684,14.64
420.168,168.848,115.656
218.868,143.96,176.168
55.144,67.588,153.964
-54.412,105.408,109.312
-90.036,141.52,40.016
-24.4,76.86,-23.424
56.852,74.908,-117.364
340.624,-41.968,-131.272
511.18,-246.196,-49.288
166.164,-299.876,142.984
268.644,-221.064,142.252
622.932,-245.952,-16.348
1148.264,-354.532,-315.004
1416.664,-458.232,-306.464
1305.888,-391.62,-14.152
1035.78,-386.008,36.356
939.156,-264.984,-73.444
1328.58,-323.3,-240.584
1774.612,-411.14,-232.044
1881.728,-542.412,-101.992
1728.984,-529.48,22.692
1764.608,-463.6,-33.184
1892.952,-391.376,-71.98
1882.704,-362.34,-42.212
1777.052,-411.872,78.812
1888.072,-433.344,101.016
2074.244,-311.1,-108.58
1902.956,-307.684,-63.684
1607.228,-271.084,-29.036
1400.072,-249.612,35.868
1335.168,-310.856,146.4
1352.736,-319.64,144.692
1397.632,-328.668,38.064
1358.592,-350.14,12.932
1407.88,-274.988,-73.2
1266.116,-298.656,-34.648
1160.708,-264.74,66.856
1159.732,-256.444,268.644
1647.0,-140.056,90.036
1928.576,-152.256,-206.668
1633.336,-446.764,150.304
1872.7,-459.208,246.196
1429.596,-682.956,76.86
-244.244,-487.756,93.452
-1205.848,399.672,-130.54
235.46,1105.564,-348.432
468.968,771.04,-457.012
-133.956,363.316,68.076
78.08,422.852,90.036
283.04,669.536,-187.88
196.42,882.792,-97.112
325.008,933.544,-46.848
352.336,947.208,-33.184
157.624,942.572,22.692
237.168,872.056,-72.956
339.16,1036.756,-101.992
360.632,1146.8,-66.124
472.872,1026.752,8.052
259.616,970.876,115.168
219.844,948.184,31.476
375.272,1097.756,-117.852
344.04,1115.08,-144.448
362.096,973.072,-49.532
413.092,903.044,61.488
378.444,999.424,-39.528
393.084,1099.952,-138.348
394.06,1068.476,-143.96
428.464,982.1,-28.304
499.712,1013.576,21.472
560.468,1061.644,-25.864
633.668,1166.32,-74.176
646.6,1158.268,-90.768
545.584,1008.696,2.928
473.604,857.66,83.204
406.992,808.616,81.74
390.4,791.78,-12.932
241.56,785.436,-53.436
134.932,805.444,-120.536
65.88,788.608,-95.892
43.188,677.1,-57.096
-65.392,630.252,-53.924
-192.76,735.904,-116.632
-182.268,953.064,-244.976
-206.668,1077.016,-264.74
-206.912,1021.14,-201.056
-53.436,1005.036,-145.668
18.056,957.456,-26.596
90.524,1006.988,-28.304
65.392,1113.372,-111.508
45.384,1095.316,-92.232
120.048,1095.316,-110.776
79.788,946.476,-23.668
100.04,887.672,48.8
137.128,928.908,7.808
168.604,1079.212,-108.824
137.372,1061.4,-139.568
68.076,912.804,-4.636
150.548,914.024,-27.572
153.72,967.46,3.66
224.724,1103.612,-96.624
145.668,1043.832,-61.976
127.612,993.324,-46.36
116.388,969.168,-68.564
157.624,987.712,26.84
185.196,977.708,14.152
189.344,993.324,-6.344
188.124,1040.172,-75.884
76.128,983.808,-30.744
164.456,937.204,-2.684
139.568,898.408,40.26
178.608,958.188,-2.928
236.68,1081.896,-124.684
109.068,1050.176,-31.72
172.508,1016.504,-28.792
161.528,972.096,5.368
116.388,927.2,11.224
135.664,979.172,-30.256
125.416,1009.672,-78.324
70.028,999.668,-47.092
146.4,1010.648,-33.672
187.88,1012.6,22.448
149.572,1012.844,36.112
185.196,1048.468,-13.42
158.356,1037.732,-8.784
193.248,1051.152,-30.256
176.168,1028.704,-6.344
136.396,1013.82,25.864
113.948,1043.344,38.308
128.832,1096.536,-23.912
204.472,1169.98,-71.248
176.168,1156.072,-22.692
102.724,1146.8,36.112
20.984,1171.932,83.692
10.248,1314.184,85.156
98.576,1474.004,-23.18
115.168,1635.288,-61.976
144.448,1675.548,-78.08
173.728,1624.552,-56.608
66.368,1636.752,10.736
-29.768,1706.536,61.0
22.204,1687.992,66.612
159.82,1647.488,47.58
170.556,1514.508,52.216
66.368,1389.336,137.86
10.004,1405.684,194.712
152.988,1473.272,135.908
288.652,1365.668,77.348
196.908,1152.412,192.028
9.516,898.652,312.076
-44.164,757.864,357.948
213.012,768.356,311.344
427.244,842.532,43.188
275.72,660.264,-70.272
102.724,363.072,223.016
194.224,243.024,277.672
225.7,163.968,140.056
94.672,258.884,70.272
12.688,454.328,-46.848
28.792,358.436,-122.244
-224.48,202.52,88.084
-280.356,242.536,157.868
-146.644,290.848,19.276
-261.324,367.952,9.272
-427.488,395.768,1.464
-454.084,458.964,72.956
-417.972,504.836,148.596
-432.856,494.832,137.128
-459.452,678.076,88.084
-395.524,842.288,39.528
-450.668,926.468,87.108
-359.412,999.424,28.792
-412.604,922.32,147.62
-412.116,983.808,202.276
-481.168,1067.256,208.376
-549.976,1120.448,147.62
-510.448,1132.16,103.7
-483.852,1019.188,196.42
-401.868,950.868,203.496
-316.712,922.808,21.716
-438.712,1013.088,-22.936
-781.532,1076.04,97.112
-705.648,874.252,83.204
-215.452,655.384,146.644
290.116,303.78,175.436
1112.396,-150.06,29.28
1808.284,-79.3,579.744
1592.832,422.12,-278.648
861.32,797.88,-503.128
748.592,541.924,-78.568
962.336,158.112,133.712
1089.704,135.176,227.896
1059.204,286.7,133.468
862.296,373.076,142.496
724.192,467.016,96.868
830.088,487.024,-19.032
981.124,447.252,-58.072
1007.72,402.844,39.528
927.932,342.332,135.908
803.248,425.292,149.084
892.796,396.5,93.452
910.364,347.456,123.22
895.968,319.64,131.272
962.336,350.872,55.876
894.504,389.668,1.952
826.428,408.212,-10.004
740.296,343.796,79.788
669.78,304.756,63.684
622.444,293.532,37.82
475.068,235.216,19.52
271.328,158.356,90.768
22.692,1.708,195.688
-8.296,-136.152,248.88
84.668,-78.568,86.132
-31.964,35.136,44.164
-175.924,119.56,63.44
-125.66,78.08,67.1
180.804,-18.788,-68.564
581.208,-14.64,-160.064
757.864,2.196,-162.992
996.008,-217.648,-40.748
1148.264,-471.896,75.152
1357.86,-345.26,-143.228
1670.18,-310.368,-309.636
1709.708,-348.676,-148.596
1686.772,-555.832,77.592
1425.692,-426.756,97.6
1321.016,-288.164,-40.748
1497.672,-411.14,20.496
1753.628,-498.98,-7.32
1877.336,-526.308,-106.14
1561.844,-489.464,-53.68
1422.032,-347.456,-24.644
1640.9,-327.448,-114.192
1727.52,-374.54,-80.276
1650.172,-404.308,-4.392
1559.892,-349.408,-26.84
1375.916,-262.056,-102.236
1458.632,-385.764,-45.14
1411.784,-417.972,27.328
1345.66,-403.576,44.408
1316.38,-382.592,47.092
1082.384,-391.132,15.372
850.096,-309.392,-37.576
966.972,-352.336,-52.948
996.008,-330.864,-77.104
961.36,-333.792,-101.992
1021.872,-340.136,-152.012
1042.612,-296.948,-170.068
995.276,-353.068,14.152
1210.972,-337.452,112.484
1430.572,-320.86,-197.64
1199.016,-479.704,53.924
1000.644,-424.316,-46.116
1035.536,-113.704,-27.328
1283.44,90.768,-49.044
1181.936,-26.352,-15.86
871.08,-105.652,59.048
5.856,-12.688,-83.204
-720.532,686.616,-370.148
-387.96,1403.976,-300.852
-5.124,1303.204,-220.088
40.748,827.16,106.384
136.884,919.636,227.652
257.176,1124.84,-73.932
190.808,1161.928,-50.996
36.6,1034.316,148.84
181.048,1005.036,194.712
453.84,1090.436,44.652
352.092,1120.204,39.284
321.104,1128.744,-7.076
223.016,1153.632,-22.692
273.524,1116.056,-25.376
403.332,1031.388,-25.132
366.244,961.848,10.492
348.92,977.708,-59.292
381.128,1005.036,-34.648
422.852,981.368,31.964
503.128,963.556,10.248
511.18,900.36,65.392
552.416,884.256,34.648
551.928,917.44,31.232
489.22,875.96,47.092
380.152,791.78,92.232
367.708,825.696,-48.8
155.184,776.164,-43.92
142.252,880.596,-76.616
146.4,922.808,-118.34
148.596,998.448,-93.696
74.908,840.58,56.852
66.124,872.3,16.836
19.276,1061.644,-154.94
-83.936,1082.628,-199.348
-174.216,988.932,-143.228
-114.68,940.864,38.064
123.708,995.276,19.52
248.636,972.584,-82.228
200.324,1028.948,-83.936
110.532,1015.284,-28.792
166.652,1004.792,-28.06
182.024,948.184,25.62
236.436,991.616,20.74
306.22,1076.04,-92.476
183.732,1006.988,-109.312
197.64,1020.652,-67.1
187.636,1015.04,-37.088
225.7,1011.136,-53.68
228.872,1033.34,-90.524
247.904,1047.736,-120.048
254.736,1008.696,-68.808
210.084,976.732,-26.108
256.2,937.448,-21.96
205.448,941.108,4.88
186.172,953.796,-34.404
252.052,959.896,-102.48
191.54,979.904,-53.436
137.86,976.0,-10.98
267.912,999.18,-70.028
307.928,1001.132,-107.36
212.28,919.88,6.1
194.224,923.052,52.704
188.612,961.848,12.688
153.476,969.9,-24.888
142.496,951.112,-36.844
227.408,951.844,-54.168
301.096,972.096,-54.168
188.856,968.192,-31.476
194.224,998.204,-90.036
124.196,968.192,-66.612
144.692,982.344,-48.068
266.936,984.052,-91.012
203.496,976.732,-35.38
193.736,945.988,-34.404
225.456,992.836,-65.392
252.54,1021.384,-109.068
220.088,1010.404,-45.872
163.724,981.368,-16.592
189.1,1059.448,-77.348
175.436,1148.508,-133.468
130.052,1126.304,-78.568
202.276,1181.204,-54.168
91.988,1250.744,-57.828
7.808,1415.932,-135.908
46.604,1603.08,-147.864
99.308,1577.948,-62.708
127.612,1598.444,71.492
134.444,1615.036,60.268
133.712,1619.672,-40.26
106.872,1734.84,-95.404
177.632,1694.824,-63.196
438.956,1541.348,66.612
492.148,1329.556,155.428
435.54,1229.272,226.676
387.228,1349.32,195.444
472.872,1412.028,39.528
513.864,1141.92,115.412
358.192,930.128,365.024
353.068,792.268,278.892
108.336,704.672,268.644
-229.116,777.14,325.984
120.048,905.728,78.324
347.944,1008.696,-264.252
222.772,902.8,-207.156
42.7,645.624,44.652
15.616,403.576,281.576
417.484,383.08,279.868
780.312,562.664,-125.416
530.212,536.068,-348.676
-68.32,373.564,-74.908
-76.372,390.4,-15.372
-24.644,410.408,96.624
-203.252,358.192,211.304
-154.208,393.328,161.284
-167.872,451.4,169.336
-260.104,500.932,213.256
-280.6,627.568,160.552
-283.772,696.132,158.6
-238.144,740.052,221.308
-309.148,738.344,280.6
-294.02,912.316,221.796
-218.624,975.512,253.272
-95.892,1013.576,274.5
-154.452,989.908,285.236
-259.616,1018.456,254.98
-306.708,1005.524,200.08
-522.648,924.028,223.016
-592.676,987.956,215.94
-321.348,924.76,172.752
-105.408,814.716,231.8
-459.696,789.584,376.492
-404.064,531.676,287.92
484.34,607.316,-139.812
901.092,779.824,-146.644
730.536,553.636,556.076
773.724,604.144,521.916
1020.896,673.44,-6.344
942.328,406.992,223.504
577.792,329.644,648.552
673.196,558.76,138.104
958.676,649.528,-18.056
927.444,779.336,-78.812
790.56,794.952,-95.892
715.652,647.088,47.824
633.424,638.792,92.232
738.588,692.96,18.3
786.412,626.836,35.38
712.968,618.052,44.896
799.344,567.788,8.052
857.416,572.424,4.636
797.636,573.156,53.436
710.04,564.128,32.208
689.3,533.14,88.084
665.876,548.268,88.084
601.216,596.824,54.168
511.912,604.876,29.036
348.188,600.728,16.592
219.6,548.512,-8.296
112.24,418.46,-48.556
-24.156,319.396,30.256
-116.388,233.264,103.456
-273.768,88.328,176.412
35.624,-111.02,141.52
447.252,-326.228,91.5
16.592,-366.0,237.656
20.252,-295.484,320.616
554.612,-276.452,45.14
1243.912,-368.44,-154.696
1665.788,-441.64,-140.788
1326.384,-507.764,-74.664
692.96,-404.308,40.992
1373.964,-532.896,246.196
1645.536,-537.532,169.092
1644.316,-504.348,73.2
1386.408,-480.436,102.48
1182.912,-465.308,108.58
1395.436,-435.784,36.112
1771.196,-469.944,-5.612
1784.372,-508.008,93.208
1695.068,-525.82,194.468
1396.168,-502.152,228.384
1580.388,-465.064,199.592
1729.228,-482.144,187.392
1611.376,-390.156,101.26
1415.932,-358.192,122.244
1228.296,-311.344,135.176
1206.092,-289.628,105.896
1326.872,-320.128,87.108
1323.7,-321.592,60.756
1264.652,-315.98,8.296
1099.464,-267.668,-60.024
974.292,-244.0,-63.928
975.756,-307.196,49.776
986.492,-391.132,125.904
1037.488,-447.496,240.828
983.564,-449.204,170.312
877.18,-381.128,183.976
931.836,-258.152,66.856
1078.48,-204.716,-9.516
1173.396,-121.024,-7.076
1136.552,-35.868,25.864
1136.064,17.324,-142.74
405.284,-182.512,-127.856
269.132,705.892,-146.644
747.616,1045.296,-567.3
59.78,854.732,-120.048
152.012,901.092,0.244
552.416,1154.364,-84.18
357.46,987.956,88.816
404.064,949.892,262.056
395.036,1015.528,181.78
358.192,1078.48,61.488
466.528,1136.064,-41.236
393.572,1167.296,-34.16
394.304,1130.452,-30.012
421.144,1038.464,34.404
450.18,1003.328,26.596
452.62,966.24,-64.66
402.844,962.092,-95.648
494.832,968.436,-96.38
614.148,1005.524,-64.904
670.024,1099.464,-63.684
752.984,1154.608,-124.196
707.6,1111.664,-88.816
699.792,988.688,-8.052
753.716,1025.776,-26.84
648.064,1074.82,-118.096
545.584,1112.884,-142.74
516.548,951.356,-56.608
466.772,916.464,-51.972
294.996,923.052,-194.956
-21.716,813.008,-208.864
-209.84,740.54,-133.224
-305.244,685.884,23.668
-210.328,665.632,60.756
-52.216,741.76,-4.148
-123.22,815.692,-31.72
-181.536,889.38,-127.124
-283.528,843.508,-43.92
-282.308,783.728,33.916
-192.028,833.748,-6.832
-141.032,998.692,-134.932
-300.364,991.616,-169.824
-312.808,1034.316,-197.64
-214.72,1097.024,-227.896
-170.556,960.628,-82.228
-21.96,931.592,-7.808
8.54,1000.4,-49.044
-19.276,1030.9,-85.644
-29.036,1050.176,-77.348
-40.26,1058.228,-67.832
-22.448,1039.196,-71.98
43.92,1021.14,-44.652
90.524,987.712,-51.484
36.6,935.496,-28.06
-12.688,952.088,-9.516
-16.836,994.788,-52.46
-13.664,994.3,-60.268
41.48,951.844,30.744
77.348,955.504,17.08
67.344,974.536,-25.62
3.416,983.808,-33.672
-20.984,976.0,-32.94
7.32,945.5,-28.792
-33.428,941.596,36.112
-9.76,950.868,18.544
-9.028,980.392,-21.716
-21.228,1033.584,-63.44
-48.068,1028.704,-86.62
-24.4,1003.816,-40.26
2.928,1010.16,-42.456
-22.448,1010.892,-43.188
-18.3,1034.316,-58.56
-55.632,1021.384,-34.404
-59.536,1006.012,-19.276
-55.632,1023.336,-42.7
-12.688,1021.14,-27.572
-1.952,1044.808,-54.412
-90.524,1057.008,-68.564
-126.88,1039.44,-58.56
-114.192,1026.508,-16.348
-69.54,1009.428,-6.832
-20.008,1048.468,-1.708
-69.54,1100.44,-8.784
-138.836,1150.216,-20.74
-259.616,1180.228,53.436
-129.076,1232.2,14.396
-31.72,1236.836,13.176
-138.592,1261.724,49.288
-263.764,1344.44,1.952
-321.836,1448.872,-17.812
-216.184,1525.488,57.584
7.808,1611.376,-17.324
-109.8,1616.256,-40.016
-173.24,1542.812,-75.396
-155.916,1475.224,-91.744
-128.1,1501.088,-89.792
246.196,1526.952,-92.232
345.992,1302.472,-58.072
209.84,1112.152,59.292
13.664,1101.172,156.648
-118.828,1039.44,194.712
-10.004,869.372,201.3
196.42,788.12,246.928
116.876,824.964,194.956
-33.916,799.344,135.664
-27.572,830.82,58.316
145.424,793.244,-15.616
100.772,646.112,62.464
82.96,528.504,144.692
-23.668,527.04,40.26
-91.012,514.596,-32.94
60.268,547.78,-80.52
-0.976,526.796,-83.692
-236.68,315.004,168.36
-242.292,323.056,230.092
-243.512,450.668,156.16
-81.74,578.768,85.888
133.712,685.152,-55.144
-176.656,539.484,78.812
-428.708,523.868,266.204
-357.46,724.68,209.352
-243.756,877.668,132.98
-287.188,885.476,156.648
-343.796,875.96,160.308
-363.56,927.2,167.872
-257.664,1051.884,154.696
-204.716,1137.528,91.988
-238.144,1057.008,162.016
-246.196,950.868,277.184
-240.34,938.912,277.184
-315.248,918.416,198.616
-506.788,942.816,153.476
-634.888,880.352,46.604
-868.64,743.712,92.476
-590.48,778.848,31.964
3.416,409.432,303.78
419.436,297.192,295.24
902.8,522.404,75.884
1113.616,848.632,-280.6
352.824,682.224,0.0
586.576,343.308,486.048
1535.98,330.864,171.288
1424.228,409.92,-95.892
749.812,437.736,209.84
606.34,559.736,148.84
836.188,526.308,30.5
905.728,388.448,122.732
871.324,354.044,180.072
1045.052,363.072,81.008
980.636,319.884,44.164
993.568,337.94,62.708
1055.3,272.792,70.272
961.36,317.932,76.372
919.148,362.828,54.9
930.616,374.784,-0.976
978.44,356.484,-22.204
1007.964,338.428,-14.152
932.568,324.764,-17.324
781.776,315.98,-31.476
657.58,301.584,-18.544
533.872,226.676,-29.28
181.048,142.984,143.716
-224.236,160.064,362.584
-312.32,125.416,300.12
-78.08,53.192,30.744
-21.472,-58.56,-27.816
28.06,-38.796,2.684
91.744,-41.48,-73.2
392.108,-43.188,-239.364
807.152,-193.004,-112.484
1034.072,-448.716,49.776
1496.452,-570.228,-79.788
1748.504,-541.68,-233.264
1618.696,-418.704,-270.108
1536.712,-434.564,-143.716
1538.664,-455.792,-142.74
1606.984,-552.416,-81.008
1559.648,-530.944,20.496
1311.5,-394.792,-15.128
1367.62,-309.636,-70.272
1422.032,-347.7,-83.204
1452.288,-374.54,-114.192
1472.54,-347.212,-108.824
1330.532,-278.404,-187.88
1307.596,-274.5,-161.284
1373.476,-407.48,-51.484
1496.94,-437.004,-64.416
1414.956,-408.7,-88.328
1097.268,-358.436,-149.572
1114.836,-370.636,-95.648
1156.072,-426.024,-32.696
1208.044,-489.22,-35.868
1320.284,-474.824,10.004
1461.804,-391.376,6.588
1528.172,-201.056,-259.128
1423.74,-507.032,-266.936
1246.352,-466.04,-151.036
1519.876,-377.712,-292.068
1402.756,-336.964,-416.996
1434.72,-512.644,62.464
136.396,-396.256,365.024
-667.828,236.192,178.608
-240.096,934.764,-102.724
474.824,1166.564,-407.48
195.444,902.8,-12.444
349.896,886.94,-50.752
348.432,909.144,-283.284
-55.632,988.444,-202.032
4.392,1085.556,-154.452
199.104,1139.724,-120.536
281.82,1152.656,-108.336
219.844,996.008,-23.424
129.076,941.596,66.124
162.504,983.32,-23.668
231.312,1058.228,-214.476
117.608,1084.092,-208.864
16.836,1113.372,-164.212
94.916,1095.316,-191.296
119.316,1052.128,-196.664
183.732,1039.196,-138.836
213.744,986.98,-50.752
266.204,986.98,-15.86
315.492,1002.352,-16.592
297.68,941.352,-4.148
363.316,958.92,6.1
376.492,1033.584,-32.94
356.972,1019.188,-56.852
355.508,1029.68,-52.216
429.684,1010.892,11.712
555.1,1056.764,52.216
577.06,1091.168,48.556
532.408,1060.18,74.908
582.672,1048.956,5.856
445.056,990.884,56.364
444.324,989.664,6.344
326.472,948.428,-78.324
85.4,780.556,-5.612
1.22,654.896,-15.86
-156.892,567.544,0.488
-270.352,704.428,-102.236
-366.244,862.784,-223.26
-346.48,953.796,-195.444
-277.672,958.676,-157.624
-178.852,887.184,-10.004
-164.944,857.904,83.936
-158.844,977.22,10.98
-97.112,1078.48,-92.232
-44.408,1043.588,-33.184
-12.444,980.148,70.028
82.96,1078.236,-34.892
-61.732,1045.296,24.156
12.444,1117.276,-34.892
77.104,1197.552,-138.836
0.488,1019.92,12.444
148.84,1015.772,58.316
132.98,990.152,59.536
118.34,1057.252,26.108
244.244,1144.116,-91.744
69.784,1000.644,61.244
136.64,956.724,20.252
121.756,971.12,30.5
146.4,981.856,34.648
173.972,1013.088,64.904
92.72,1040.904,65.88
153.232,1119.228,-41.48
118.828,1077.992,-20.008
57.096,1096.78,62.952
103.944,1141.676,79.056
159.332,1128.5,56.852
133.468,1117.276,73.2
15.86,1238.056,55.876
-59.78,1361.276,55.144
-52.704,1379.088,40.992
-22.204,1448.14,48.556
152.256,1554.036,-89.792
144.448,1562.088,-99.796
-33.916,1462.78,11.468
-16.104,1399.34,13.176
123.952,1479.616,-4.148
221.552,1486.936,9.76
179.828,1434.476,-24.888
112.484,1389.092,-36.6
45.14,1403.976,21.228
26.108,1355.664,178.12
172.508,1362.496,232.532
328.18,1492.792,154.696
519.232,1489.376,-7.808
520.696,1301.252,-51.24
221.308,1140.944,74.176
85.644,1137.04,150.548
259.128,816.668,44.652
234.972,747.616,425.78
162.016,587.064,381.616
330.376,515.572,147.864
456.28,660.996,-184.952
274.256,460.672,-216.428
-50.996,169.58,230.092
7.564,39.528,399.428
-62.22,131.272,159.82
-48.068,408.944,-15.86
353.556,462.868,-274.5
19.276,277.916,-19.276
-420.9,235.216,427.244
-422.852,409.188,389.424
-58.56,723.46,-62.22
6.344,763.72,-234.484
-279.38,670.268,55.876
-298.9,767.624,294.02
-243.756,864.98,216.672
-261.08,849.12,86.376
-206.912,886.452,38.308
-115.9,861.32,74.908
-30.744,854.488,205.204
-57.096,846.68,260.104
-246.44,806.664,328.424
-334.524,864.004,288.408
-258.884,945.744,192.516
-230.092,896.944,142.496
-223.748,923.54,115.656
-282.796,894.992,170.312
-314.76,895.968,205.448
-236.68,930.616,238.632
-184.952,952.576,142.008
-243.756,992.836,129.32
-325.008,998.936,123.22
-322.812,988.444,135.42
-283.528,969.168,132.492
-289.14,960.628,156.404
-244.488,977.22,136.152
-251.076,960.14,117.12
-309.636,897.188,164.212
-379.908,843.752,232.776
-490.44,813.984,250.832
-497.516,797.88,232.532
-309.392,781.532,119.56
-126.88,675.148,-92.232
-390.644,1064.328,-34.648
-281.82,1223.66,89.06
455.06,544.608,115.412
757.132,328.912,472.628
803.736,198.616,623.42
559.736,280.112,587.308
1129.964,780.068,-309.148
1792.18,362.34,-339.404
911.828,176.9,282.064
834.48,367.22,298.412
1084.336,440.176,100.284
1072.38,501.664,116.144
949.16,507.52,74.42
881.816,449.204,85.4
878.644,483.12,131.516
1020.896,464.088,111.996
1045.54,408.212,134.932
930.86,342.332,169.092
859.612,314.76,255.712
885.72,325.008,249.856
893.528,352.824,195.2
894.26,365.756,149.572
781.776,355.752,116.876
690.764,356.24,103.944
677.1,310.124,76.128
711.016,332.816,-31.964
577.06,228.14,-23.18
-13.176,136.152,68.32
-100.528,-12.688,227.164
-138.836,4.636,374.296
-28.548,-45.628,324.52
62.464,-7.076,59.78
72.468,0.0,-115.412
155.184,8.54,9.028
398.696,66.856,-100.284
978.684,-49.532,-322.568
1269.776,-164.212,-333.792
1172.176,-104.676,-35.624
1198.772,-43.676,159.332
1527.44,-94.428,131.028
1946.876,-282.308,56.608
1995.676,-365.512,104.432
1921.5,-364.536,171.532
1783.884,-236.192,219.356
1808.528,-128.588,220.576
1687.992,-217.648,172.508
1534.272,-180.316,202.764
1419.348,-181.048,110.532
1422.764,-81.984,73.2
1501.332,-136.64,86.62
1453.02,-177.876,137.128
1452.288,-213.5,57.096
1452.288,-146.644,-4.392
1408.856,-191.54,4.148
1249.768,-216.428,120.536
1069.208,-119.072,217.892
1251.476,-151.768,233.996
1651.392,-138.348,108.824
1453.752,-174.704,-268.4
1371.28,143.96,-99.796
1354.932,-427.244,208.62
1078.968,-421.876,327.448
534.604,-185.928,101.016
-166.652,-24.156,206.424
-247.416,451.4,38.064
-48.8,1121.424,-292.312
268.4,1177.3,-626.592
378.688,1004.548,-197.64
297.436,1051.64,50.996
36.6,1104.344,-67.1
-15.128,1142.408,-196.664
-23.424,1189.5,-95.892
104.676,1097.024,-35.38
270.596,1037.488,-44.896
191.296,1090.924,-77.104
98.088,1101.904,-72.712
95.16,1102.636,-117.608
149.572,1040.172,-122.976
225.212,937.936,-54.656
270.108,946.232,-15.616
312.32,1072.624,-102.968
329.156,1106.54,-90.768
410.408,1046.76,-81.252
457.744,975.512,-14.396
565.348,987.712,-21.716
539.24,1037.976,-62.22
399.184,999.668,-138.104
371.124,942.816,-176.412
270.596,857.416,-133.224
69.296,702.232,-91.988
-48.8,658.8,-76.128
-209.108,658.556,-143.228
-304.512,757.132,-237.9
-370.392,893.04,-262.544
-354.532,1005.28,-286.456
-360.388,911.096,-171.288
-278.16,877.424,43.432
-108.092,977.464,28.548
-128.588,1016.748,-58.804
-138.836,1106.052,-99.796
-147.62,1149.972,-151.524
-210.816,1112.152,-119.56
-144.692,1059.448,-30.5
1.464,1003.572,15.128
72.712,1053.348,-39.772
108.824,1085.556,-165.676
35.868,1030.656,-66.612
3.904,984.54,-43.432
-22.692,955.26,-65.636
-54.412,917.196,-75.884
-29.524,993.324,-120.048
-33.672,993.568,-152.744
8.54,976.732,-127.124
45.384,947.696,-125.416
35.624,1001.376,-96.38
-16.348,985.272,-103.944
45.14,1020.652,-131.272
45.872,970.876,-73.932
30.744,924.272,-16.592
81.74,985.272,-77.104
57.828,976.732,-75.152
76.86,992.836,-71.492
116.144,1032.12,-137.86
58.56,972.096,-53.924
71.98,972.34,-27.084
87.84,1004.792,-55.388
103.212,1008.94,-70.028
116.144,1057.74,-136.396
102.236,1008.208,-74.664
71.98,986.98,-48.068
90.28,1007.232,-84.668
59.292,1030.9,-78.812
60.024,1030.168,-106.14
67.344,966.972,-43.432
128.344,939.888,-18.544
203.252,965.996,-65.88
140.788,981.856,-90.524
75.884,1026.02,-100.284
37.576,991.128,-78.08
54.9,1013.576,-104.432
91.012,977.464,-100.284
36.844,928.908,-53.68
99.308,946.232,-61.0
224.724,991.128,-125.416
49.288,941.84,-37.82
51.24,939.644,-36.844
101.992,1000.888,-83.692
145.668,996.74,-115.168
166.652,969.168,-40.016
237.9,1014.796,-141.764
74.908,1013.088,-56.608
58.316,1028.948,-94.184
101.26,983.808,-110.776
117.364,971.12,-35.868
125.172,953.308,-29.524
112.484,988.2,-67.344
96.624,1010.648,-87.596
107.848,1015.284,-87.108
123.22,1033.828,-100.284
58.316,1047.248,-54.656
103.944,1135.576,-111.264
130.54,1203.164,-89.792
48.068,1265.384,-30.256
52.948,1346.148,-17.324
19.764,1465.952,-36.6
0.0,1603.812,-80.032
-35.868,1690.92,-35.624
-108.092,1704.584,52.216
-1.952,1739.964,-21.96
-44.652,1724.104,-66.612
-178.608,1623.332,-8.784
-180.56,1515.484,37.82
-7.32,1401.048,131.028
191.052,1336.388,211.548
380.64,1422.276,98.088
278.892,1380.552,65.88
31.964,1288.076,181.292
-45.628,1126.06,212.28
-50.508,880.352,263.276
249.612,715.652,370.88
511.912,802.028,345.016
367.708,875.472,115.168
12.688,876.936,27.572
-6.344,685.884,19.276
85.4,464.82,170.312
182.024,314.76,193.004
107.36,450.912,107.36
53.68,619.76,-81.008
204.472,548.268,-155.672
345.26,466.284,-102.724
87.108,356.484,45.872
-163.236,324.52,147.864
-196.908,376.004,114.924
-257.42,437.98,154.94
-281.576,463.844,129.076
-138.104,594.872,111.996
-155.428,641.72,134.2
-303.048,649.772,178.12
-393.084,735.416,201.788
-334.768,792.512,175.192
-322.812,828.136,186.66
-342.088,914.268,145.912
-336.232,1002.352,69.54
-313.784,1028.216,124.684
-246.684,1006.5,212.28
-235.948,1019.92,222.284
-264.984,1100.928,203.496
-307.684,1014.552,196.176
-329.156,898.896,224.724
-310.612,866.688,290.116
-339.404,866.688,311.832
-356.24,862.784,272.304
-448.228,894.016,253.272
-519.964,786.9,121.756
-726.144,567.056,-28.304
-646.6,517.28,-104.432
-376.248,996.496,-5.368
221.552,390.888,223.992
915.488,-416.508,1227.076
1649.684,647.088,734.44
1234.884,891.82,-840.58
1043.1,763.476,-258.152
1175.592,164.456,109.312
985.272,-14.64,479.948
733.22,274.5,245.22
935.984,523.38,104.92
859.612,472.14,171.532
871.568,390.156,165.188
1075.552,330.132,-28.304
899.384,448.96,73.688
944.524,560.956,-67.344
944.524,511.668,-16.348
950.136,296.948,97.356
990.396,144.204,181.292
998.692,209.108,113.216
894.504,334.28,88.084
874.496,384.056,39.772
884.988,361.364,3.416
844.24,325.984,30.012
766.16,326.228,72.956
607.56,383.812,83.448
568.276,374.54,43.188
530.212,267.668,9.028
369.66,163.48,56.364
281.332,58.072,82.228
240.096,43.188,104.188
203.252,58.804,0.732
-56.364,54.412,-11.712
36.356,-14.64,41.968
295.972,-8.784,-39.04
452.132,-198.128,24.888
469.7,-348.676,106.628
474.824,-291.336,52.216
652.7,-160.308,-148.108
989.908,-292.8,-157.624
1099.708,-540.948,78.812
1079.212,-513.62,135.42
1355.176,-364.78,-93.208
1509.628,-362.34,-234.24
1502.796,-427.488,-248.636
1738.744,-597.8,-81.008
1797.548,-531.92,-6.344
1759.972,-434.076,-42.456
1611.376,-443.592,-106.872
1454.728,-402.6,-163.968
1763.144,-348.676,-205.204
1688.968,-273.28,-312.076
1620.892,-283.772,-224.968
1580.876,-418.948,-121.756
1504.016,-467.26,-43.188
1446.188,-454.328,-17.324
1432.036,-459.696,-19.032
1339.56,-478.728,-15.86
1250.744,-509.472,0.976
1218.292,-483.364,6.344
1194.38,-466.772,-48.068
1253.184,-462.868,-40.016
1309.792,-505.324,-41.968
1317.844,-542.9,37.82
1414.712,-477.508,122.244
1539.884,-248.148,-18.788
1455.216,-483.608,-226.188
1265.628,-663.436,-147.132
1354.444,-528.016,-250.344
904.996,-165.676,-274.988
440.42,20.008,-271.816
-137.128,231.068,142.74
-279.624,510.936,236.68
-35.136,687.592,-286.944
335.5,969.656,-346.968
245.22,753.716,-227.652
134.2,733.708,-54.9
320.372,847.656,33.672
454.084,993.812,0.732
489.464,1026.02,-21.96
462.38,986.004,-61.732
449.692,921.588,-89.792
499.468,898.164,-66.856
584.868,1019.432,-115.168
549.244,1025.532,-145.18
456.28,920.124,-50.508
570.96,875.472,-8.052
701.5,900.604,-76.616
706.624,902.068,-34.16
846.192,991.372,-44.652
885.232,1005.28,41.724
864.736,1014.552,101.992
882.304,903.044,27.572
744.444,948.672,-60.756
402.844,884.744,-89.06
292.8,1007.476,-119.316
180.56,928.908,-175.68
-75.152,647.82,48.312
-162.016,556.076,9.516
-272.304,745.176,-51.972
-288.408,829.6,-160.064
-259.128,814.472,-69.784
-207.644,877.424,-0.488
-244.732,850.828,-17.568
-316.956,858.636,-12.932
-334.768,892.308,-74.42
-331.596,880.352,-29.768
-91.988,965.752,-17.324
-96.38,1070.184,-99.796
-177.876,980.148,13.908
-179.34,979.904,-28.548
-132.98,1070.916,-104.676
-59.78,1127.036,-116.388
-48.068,1056.52,-30.744
50.508,971.12,38.796
88.084,982.344,44.896
80.764,1044.564,-81.252
-7.564,1047.492,-43.92
-34.892,1024.556,-53.192
59.536,1005.768,-46.36
29.28,914.756,-23.18
59.292,951.6,-37.088
36.356,997.716,-87.352
-23.668,1028.46,-65.636
-41.724,1025.776,-52.216
54.9,1021.872,-37.332
134.688,1017.968,-18.056
93.696,1025.044,-23.424
24.888,1010.648,-47.336
22.692,977.22,-48.068
5.124,920.124,-23.18
70.272,982.344,10.492
135.664,960.872,50.752
152.256,979.904,44.164
162.748,1041.88,-11.956
165.92,1010.16,-55.632
90.524,1022.848,78.324
154.94,984.296,75.396
276.208,1030.412,-4.148
291.58,1074.576,-3.904
299.388,1077.992,-5.368
359.168,1095.804,-15.372
338.916,1028.704,-20.252
256.444,938.912,90.524
301.584,900.36,96.136
373.808,938.668,21.716
331.108,963.556,-75.396
283.772,942.816,-123.464
214.476,985.76,-10.98
194.468,961.604,75.884
322.812,1025.776,25.132
220.088,925.98,55.144
73.444,842.044,102.236
132.736,967.216,12.444
221.796,1057.496,-168.604
127.612,963.8,-99.796
1.464,862.296,111.264
39.528,909.144,118.584
85.888,897.432,77.104
122.976,912.316,112.728
227.164,1122.888,-142.252
-119.072,1001.62,-160.308
-77.104,1057.008,126.636
129.564,871.568,245.952
425.536,950.136,164.7
322.08,990.64,156.404
178.608,961.116,149.328
202.764,989.908,121.512
114.68,940.62,118.34
104.92,928.664,140.056
174.704,1029.68,45.872
174.216,1043.1,35.38
148.108,979.416,64.172
94.428,908.412,154.452
112.728,879.376,137.372
211.304,1013.088,22.936
197.884,1053.104,-10.004
130.052,966.728,75.152
101.504,943.792,112.728
134.932,1031.144,10.248
128.832,1061.888,-14.64
122.0,1067.256,-30.012
103.7,982.1,28.548
30.744,927.2,89.06
26.352,985.272,36.112
91.5,1039.684,-17.812
157.38,1036.756,48.068
131.028,978.196,72.224
80.276,978.928,72.468
47.336,996.008,105.896
83.448,964.288,-0.732
285.48,959.652,-71.736
94.184,868.396,96.38
-128.832,823.5,190.564
-38.796,1083.848,76.86
77.348,1171.444,-93.94
-19.276,1058.228,-192.028
-92.964,935.008,-52.948
29.524,848.876,81.008
243.512,1001.132,162.26
200.324,1102.636,-19.276
99.064,992.836,9.516
108.092,982.344,27.572
53.924,999.668,48.068
92.476,972.34,54.9
189.1,967.216,20.74
-109.8,940.864,-44.408
-102.724,1064.572,-50.508
