acc_x[mg],acc_y[mg],acc_z[mg]
-133.224,979.416,-31.72
-144.936,977.464,-32.696
-134.444,1007.476,-44.408
-112.728,1029.192,-58.316
-104.92,1034.316,-73.2
-93.696,1027.24,-85.4
-107.848,1013.088,-74.42
-122.0,989.176,-70.028
-128.1,977.22,-67.1
-126.636,972.828,-71.248
-118.584,974.048,-81.008
-115.656,967.216,-77.104
-118.096,953.552,-62.708
-133.224,945.744,-47.336
-134.444,937.204,-49.044
-131.272,940.376,-48.8
-133.468,942.816,-54.9
-130.296,955.504,-55.388
-127.856,968.68,-60.756
-129.076,986.492,-69.296
-123.952,971.364,-90.036
-132.492,986.736,-73.688
-131.76,991.86,-73.2
-130.296,990.884,-67.832
-138.836,983.808,-67.588
-137.86,982.588,-70.516
-136.396,983.564,-69.54
-139.08,978.44,-69.296
-126.88,991.86,-67.1
-122.244,996.008,-63.196
-125.904,980.148,-57.584
-124.684,975.512,-57.584
-132.004,963.312,-63.44
-125.416,957.456,-65.148
-116.876,976.0,-63.928
-126.148,978.196,-60.024
-130.784,979.904,-54.168
-131.516,975.512,-51.728
-132.492,979.172,-42.212
-118.828,982.588,-35.38
-120.78,980.88,-36.844
-126.392,978.684,-41.236
-127.124,977.22,-45.384
-137.86,969.656,-43.676
-141.764,965.02,-47.336
-133.224,971.364,-44.896
-127.612,977.952,-39.04
-119.316,983.32,-46.36
-124.44,979.172,-39.04
-124.928,973.316,-41.724
-133.956,975.268,-35.38
-136.884,981.612,-39.284
-126.636,977.952,-43.92
-124.684,979.172,-45.14
-122.732,985.76,-42.212
-123.708,986.248,-45.384
-123.22,986.492,-45.872
-115.412,986.736,-49.044
-120.536,980.88,-43.432
-121.268,986.248,-56.364
-133.712,980.88,-60.268
-126.88,982.344,-68.32
-123.464,980.392,-77.104
-133.224,975.756,-74.176
-135.664,967.704,-71.248
-135.176,974.78,-68.076
-132.98,970.632,-66.856
-128.588,969.9,-56.364
-121.024,976.732,-50.508
-124.684,973.072,-46.848
-126.392,978.684,-47.092
-119.316,982.344,-59.78
-125.904,976.976,-59.536
-129.076,980.88,-62.708
-127.856,988.932,-62.22
-123.22,988.444,-71.98
-135.42,977.464,-65.636
-134.2,983.076,-53.436
-129.564,981.368,-51.484
-131.272,981.612,-51.972
-124.44,984.784,-51.24
-120.536,984.296,-48.8
-123.952,979.66,-46.848
-122.244,985.272,-47.58
-123.952,986.98,-58.56
-135.176,983.076,-61.244
-133.468,985.272,-61.732
-127.612,982.344,-56.608
-128.344,983.32,-55.144
-128.588,981.368,-59.048
-143.716,977.464,-48.556
-142.008,990.396,-48.8
-149.084,999.912,-48.556
-147.132,1028.704,-57.096
-183.0,1055.788,-51.484
-207.644,1070.916,-33.428
-180.072,1074.088,-48.556
-156.404,1074.82,-56.12
-137.86,1080.432,-61.488
-142.496,1097.268,-69.296
-109.068,1088.728,-89.792
-94.916,1053.836,-54.168
-98.576,1010.892,-54.656
-132.736,980.392,-66.368
-159.088,924.028,-72.956
-128.1,948.916,-41.48
-99.796,970.876,-32.208
-77.592,920.368,-48.556
-71.248,987.468,-60.756
-62.22,1026.508,-98.332
-209.352,977.708,-58.316
-175.68,995.276,-41.968
157.868,1041.148,-97.6
54.168,947.696,-142.008
-79.3,909.632,-150.792
-75.396,886.696,-119.804
-69.296,926.468,-67.344
213.744,1002.596,-29.036
464.088,1046.028,-113.216
370.148,896.456,-244.976
73.688,754.692,-10.004
133.712,731.512,91.5
294.996,819.84,128.344
574.62,915.488,128.588
670.024,851.56,-102.236
368.684,820.816,-67.1
261.08,712.968,176.168
617.564,690.276,105.408
844.972,727.12,-61.488
774.944,566.812,76.372
711.992,457.988,-44.164
762.744,546.072,83.448
782.752,551.196,25.864
772.016,541.924,247.66
827.892,477.752,346.48
877.668,444.08,244.976
875.472,439.932,133.224
874.74,493.612,114.436
964.776,417.728,204.228
902.312,369.66,305.244
927.444,306.464,210.816
954.528,307.196,121.512
937.204,310.612,92.72
910.364,263.764,130.296
853.268,250.832,191.296
864.98,254.004,177.632
884.988,204.228,179.584
936.96,162.992,212.036
895.968,206.668,185.44
837.896,221.308,143.228
881.572,215.94,97.356
905.972,256.932,138.836
887.428,279.38,119.316
908.9,270.352,97.356
943.06,220.088,77.348
876.448,184.22,129.564
897.188,155.916,143.716
960.628,166.896,198.128
938.668,132.98,193.248
887.672,108.336,160.552
876.204,127.856,87.352
910.608,163.968,83.936
946.476,160.308,100.284
982.1,97.356,97.844
1004.304,49.044,72.468
960.872,53.436,69.784
1020.164,48.312,91.744
1084.824,60.512,112.728
1047.736,35.38,107.604
1013.576,38.552,55.876
1024.8,39.772,55.632
1056.52,-1.708,88.084
1091.656,-23.668,90.768
1129.964,-18.056,54.168
1133.38,7.808,28.548
1122.644,12.688,58.56
1165.588,-17.568,97.112
1194.38,-38.552,80.276
1194.624,-46.116,40.26
1188.036,-48.556,69.54
1199.016,-58.316,150.548
1221.952,-57.828,119.56
1245.376,-60.268,70.76
1226.588,-61.976,92.232
1179.252,-77.104,132.492
1141.188,-79.788,145.18
1161.684,-72.224,134.688
1146.068,-65.636,124.928
1163.636,-52.948,108.58
1137.04,-70.516,121.024
1124.596,-99.308,95.404
1107.516,-109.8,79.788
1106.54,-97.6,100.528
1134.356,-99.308,89.304
1112.152,-107.116,85.156
1074.82,-105.896,102.48
1098.244,-80.52,128.344
1163.636,-55.876,135.664
1166.32,-36.6,137.616
1085.068,-43.92,110.532
983.808,1.22,39.284
941.108,57.096,84.668
1021.384,85.888,105.164
1063.596,98.576,80.764
1069.452,84.668,117.364
1085.8,79.788,110.044
1134.356,128.588,100.04
1085.556,177.388,142.984
1067.256,225.7,73.688
1072.624,237.168,50.508
1079.944,268.644,25.864
1080.92,307.684,51.24
1053.836,368.684,155.184
1095.804,456.036,219.356
1191.94,420.412,192.516
1118.008,387.228,77.592
918.416,451.888,-17.568
844.972,558.76,113.216
788.364,676.124,262.544
929.396,792.024,265.228
1110.688,752.74,28.548
953.552,611.464,-63.684
996.984,588.528,15.128
714.676,546.072,124.196
304.024,857.172,170.068
550.22,808.372,152.256
611.708,790.072,-1.952
505.812,853.756,48.068
362.096,849.852,44.652
281.088,901.092,21.716
293.044,936.716,57.828
403.576,895.724,15.616
255.956,780.8,48.068
1.708,755.668,7.076
-24.156,823.744,59.292
17.568,818.132,92.476
130.784,783.24,82.472
-15.616,777.872,97.844
-135.42,716.872,173.972
-119.804,687.348,231.312
7.32,761.768,111.508
11.712,782.02,62.22
-117.12,919.148,67.832
-148.108,884.988,142.74
11.468,957.212,95.892
57.828,1018.7,50.752
-67.344,1013.576,122.244
-22.204,1007.964,168.848
-59.78,1007.72,172.752
-28.06,995.52,136.884
162.748,1082.628,32.94
28.06,1074.82,77.348
-14.64,1012.6,148.352
10.492,1017.236,85.4
5.612,1059.204,-17.08
-31.476,1070.672,-10.736
-51.972,1058.472,72.224
-10.492,1069.696,110.288
-8.54,1007.232,99.796
13.176,974.78,-37.332
-2.196,979.66,-15.372
-91.744,971.12,80.764
-93.208,948.428,60.268
-45.384,953.308,53.192
-5.124,984.052,-4.88
-20.984,1003.572,-13.664
-31.232,1008.94,25.62
-58.316,1009.916,49.288
-19.764,1001.376,23.668
-3.66,1014.308,-10.736
-27.572,999.912,0.976
-75.152,971.608,15.616
-71.736,962.824,7.564
-62.464,955.26,-27.572
-64.416,967.948,-8.54
-41.724,959.164,12.932
-33.184,999.424,-11.224
-46.116,989.908,10.736
-23.912,1016.26,4.88
-31.476,1027.484,6.1
-35.624,1043.344,21.96
-47.092,1028.704,34.404
-44.652,1003.328,25.864
-77.348,951.112,-2.196
-97.6,932.08,-16.836
-88.084,939.156,21.96
-83.936,961.116,40.504
-50.508,977.708,16.104
-61.976,978.684,0.244
-53.68,999.668,-22.936
-51.484,1004.304,-9.028
-89.06,1002.108,6.588
-62.952,992.348,-9.516
-25.864,998.692,-11.224
-65.392,987.712,24.888
-81.252,997.96,47.336
-38.064,984.54,37.332
-48.312,969.168,32.94
-55.144,981.124,25.376
-52.948,978.44,29.28
-91.256,962.824,47.092
-75.64,961.36,57.34
-53.192,971.608,82.96
-61.976,986.736,-5.124
-70.76,983.808,10.248
-101.016,967.46,-55.632
-30.256,1017.968,-52.46
-39.284,1028.704,12.444
-52.948,1047.492,-13.664
-94.672,1012.356,0.732
-86.864,1010.16,-41.48
-65.148,996.252,-57.096
-13.42,996.74,21.472
-66.612,996.252,36.356
-82.228,974.78,-8.052
-91.744,956.724,14.64
-71.98,952.332,32.452
-79.788,976.244,43.92
-61.244,989.42,21.716
-76.616,1011.868,3.416
-106.384,984.784,37.82
-58.316,973.072,31.232
-37.82,984.296,29.28
-62.708,982.344,22.448
-76.616,969.168,56.364
-83.936,942.328,81.984
-79.544,945.5,68.808
-70.272,967.216,48.8
-45.14,982.588,19.276
-51.484,995.764,12.688
-79.544,991.86,27.328
-85.4,985.028,40.748
-57.096,976.976,23.912
-44.896,988.2,16.836
-63.44,998.692,18.3
-66.612,990.884,34.16
-56.12,985.272,40.26
-38.064,975.756,23.424
-72.468,986.736,17.568
-66.856,994.3,1.952
-69.052,988.444,21.472
-45.384,996.008,20.008
-34.892,995.032,9.516
-66.368,991.128,16.348
-67.344,977.22,34.16
-46.604,981.612,27.328
-50.508,1000.888,17.324
-52.46,1012.6,16.592
-44.164,1012.112,10.98
-36.356,998.936,7.076
-64.416,991.372,10.004
-77.836,984.296,-2.928
-59.536,988.2,-2.196
-54.168,993.324,6.832
-42.212,994.544,7.32
-33.184,992.836,11.712
-39.772,1003.572,15.372
-44.408,996.008,5.368
-50.508,983.564,7.564
-56.364,977.952,12.444
-51.484,984.052,0.976
-43.676,998.448,3.66
-42.456,995.276,7.076
-50.752,993.324,4.88
-56.12,997.228,5.856
-58.316,989.176,13.42
-64.172,973.316,25.376
-41.724,980.636,9.516
-30.256,998.448,8.296
-46.36,1006.5,7.32
-70.272,975.024,1.952
-53.924,967.948,16.592
-5.856,1007.72,-17.812
-36.356,1001.376,-32.94
-112.484,1008.452,-28.06
-100.772,981.856,58.072
-65.148,953.308,69.54
18.056,962.58,2.684
28.304,981.368,-9.76
-67.1,1001.376,1.22
-134.2,985.516,12.688
-80.032,996.74,10.004
-59.048,976.488,9.76
-49.776,963.556,-9.272
-30.5,967.948,-17.568
-75.884,981.368,25.376
-78.568,977.708,34.404
-36.112,992.592,15.128
-54.9,992.104,13.176
-52.948,999.424,9.028
-56.12,1012.6,10.492
-52.46,1020.164,6.344
-48.8,1000.156,16.592
-64.66,985.76,6.344
-61.0,974.536,-8.052
-75.884,976.0,0.732
-78.324,981.856,3.416
-69.052,988.2,5.612
-74.42,985.516,8.784
-72.224,973.316,17.324
-56.608,976.732,10.004
-58.072,974.78,11.956
-57.584,980.636,16.348
-65.148,983.076,13.176
-53.436,995.276,3.66
-61.976,1002.352,3.66
-56.852,1003.572,-1.708
-42.456,988.932,2.196
-38.796,983.32,13.664
-61.244,981.124,13.664
-80.032,995.276,5.856
-76.372,999.18,2.684
-65.636,1002.84,2.44
-70.516,997.716,4.636
-80.764,983.564,3.66
-88.084,989.664,1.464
-80.764,995.52,-5.368
-60.024,1012.6,-5.124
-55.876,1028.948,1.22
-62.22,1020.164,7.32
-78.568,1001.132,6.832
-85.644,986.492,0.976
-81.496,983.808,-1.464
-85.4,969.412,5.368
-81.74,962.824,6.1
-71.736,967.704,7.808
-70.516,982.1,13.42
-68.32,982.832,18.056
-63.196,972.096,22.936
-71.492,964.288,15.372
-81.74,955.992,13.908
-77.104,964.044,15.616
-68.564,979.904,15.616
-56.608,992.836,18.056
-39.772,1010.16,10.004
0.0,1027.972,-6.1
-55.876,1023.824,-10.248
-87.596,995.276,-12.932
-95.892,985.76,-9.028
-108.824,962.092,-1.22
-105.652,961.604,6.832
-93.696,975.268,16.104
-81.496,986.736,24.156
-70.028,986.248,18.3
-64.904,979.904,18.544
-79.056,978.196,23.912
-105.408,960.628,29.768
-81.008,958.676,30.012
-21.716,956.968,18.3
-57.584,984.54,46.848
-84.424,1025.288,12.932
-40.504,1016.748,16.592
-41.724,1026.508,30.5
-58.804,1022.848,16.104
-28.304,1053.592,20.252
-11.712,1035.78,26.84
-17.08,1060.424,12.444
-47.336,1034.804,-3.416
-57.34,1067.256,4.392
-89.792,1098.488,14.152
-60.756,1130.452,-0.976
-40.26,1132.16,-7.564
-20.252,1142.652,-17.568
-101.016,1277.096,-4.392
-234.24,1332.972,-40.992
-182.756,1272.216,-15.616
-54.9,1171.688,-61.732
73.444,1244.888,-29.768
-9.272,1250.988,34.404
3.172,1291.248,71.004
-22.448,1321.992,53.68
-97.6,1210.728,-13.176
-15.616,1138.748,-49.288
178.364,1124.84,-18.788
178.608,1116.788,-67.588
98.576,921.1,-58.072
-103.456,816.424,55.876
-18.788,810.568,147.62
287.432,876.204,35.868
264.74,809.592,-16.836
231.556,797.636,84.912
231.068,713.7,193.492
232.044,476.288,312.32
254.736,503.86,186.172
208.62,684.908,67.588
325.496,785.192,159.82
575.596,691.252,64.172
485.804,633.912,97.844
333.548,559.98,133.224
313.784,587.308,78.08
553.88,529.236,172.508
709.064,520.94,256.932
677.832,496.54,189.588
498.492,516.304,158.6
640.5,478.484,36.844
743.468,485.56,59.536
943.304,467.504,-16.104
936.716,440.176,117.852
805.688,337.452,169.824
792.024,390.644,94.184
928.42,406.504,56.12
890.844,387.716,91.988
846.436,400.648,105.652
881.084,357.704,142.252
873.764,324.032,175.68
767.624,312.564,170.312
739.076,287.676,110.776
769.576,298.9,158.844
711.748,246.928,195.2
689.056,279.136,184.708
698.328,241.804,136.396
740.54,260.592,93.696
787.632,193.248,81.252
835.212,185.44,122.732
814.228,146.4,153.72
884.5,106.14,150.548
928.42,93.94,161.772
905.972,129.076,144.692
932.08,167.384,187.88
900.36,96.38,192.272
1012.844,60.512,120.78
1048.468,3.904,178.608
976.488,-11.956,221.796
984.296,-20.008,155.184
984.052,-17.568,125.416
1094.096,48.556,92.964
1133.624,80.032,98.332
1120.936,55.632,108.336
1163.392,-37.576,110.776
1256.356,-81.496,118.828
1346.88,8.052,186.66
1278.804,32.94,197.884
1195.112,4.636,254.736
1220.0,-63.684,246.928
1303.936,-55.876,195.2
1303.692,-62.708,193.248
1303.204,-139.324,174.46
1244.156,-89.792,184.464
1164.368,-73.932,151.036
1181.936,-24.644,150.548
1167.784,-58.56,154.94
1168.272,-78.08,129.076
1169.004,-92.964,128.1
1219.024,57.828,214.964
1128.744,57.828,172.752
1002.84,26.84,161.772
954.528,-24.644,180.316
1011.624,23.912,131.028
1074.82,61.976,91.5
1226.1,151.036,153.964
1176.08,64.416,143.472
1026.264,115.9,97.112
1057.008,204.228,213.988
1154.364,288.652,161.284
1141.188,361.12,176.168
1063.352,307.196,-22.448
1155.584,370.88,-183.244
1062.132,391.376,56.852
981.368,440.664,162.992
1041.392,708.82,90.28
1008.208,848.144,17.08
1034.316,853.024,51.972
996.252,870.348,13.42
947.452,983.076,62.464
773.968,964.044,-143.472
565.348,787.632,-196.176
379.42,718.824,-90.524
496.052,774.944,22.448
581.208,1006.5,128.1
365.024,889.38,27.084
2.196,737.124,-102.236
-144.204,750.788,-166.164
-38.308,954.528,34.648
62.952,833.748,138.836
-20.496,687.104,168.604
-89.548,789.096,29.524
-266.204,770.064,-84.18
-370.636,726.632,-106.14
-356.24,821.548,-51.972
-260.592,874.496,-55.876
-241.316,882.792,22.692
-259.372,925.248,36.844
-240.34,955.992,-36.844
-253.028,967.704,-77.836
-288.652,904.996,-42.7
-300.852,884.012,-25.376
-249.368,953.308,-68.564
-239.852,1016.748,-92.72
-252.052,1012.356,-75.64
-222.284,963.312,1.708
-276.452,900.116,41.968
-238.388,934.52,-70.516
-234.24,916.708,-13.664
-243.268,948.428,-36.112
-251.808,936.716,13.176
-182.024,966.484,15.128
-177.876,990.884,-7.32
-162.016,993.812,1.464
-131.272,1018.7,-33.916
-179.584,969.168,1.952
-153.72,983.808,9.76
-166.652,965.264,24.156
-179.34,971.608,2.196
-189.344,971.364,-13.908
-128.344,994.3,-25.376
-146.156,1022.36,-8.052
-148.596,994.056,-0.976
-119.316,1020.164,10.492
-163.236,974.536,-8.296
-162.748,947.208,0.244
-138.592,997.716,-19.032
-169.336,967.46,-43.676
-153.964,951.112,-32.94
-111.752,1006.988,-31.964
-106.14,988.932,-40.016
-136.152,1003.816,-16.348
-138.104,993.812,-27.816
-165.432,976.488,-31.232
-138.348,963.556,-24.156
-122.976,967.216,-36.6
-133.712,980.88,-31.232
-147.376,992.104,-32.208
-167.384,966.728,-22.204
-162.26,963.068,-38.796
-152.744,967.948,-33.428
-161.528,981.124,-23.912
-140.3,1007.476,-41.48
-160.308,968.68,-22.692
-146.888,996.74,-22.936
-169.58,962.336,-31.72
-162.748,962.824,-14.396
-146.888,983.076,-24.644
-169.336,948.916,-2.684
-150.792,984.54,-13.908
-165.188,968.192,-15.372
-169.336,966.24,-20.74
-158.356,985.76,-46.604
-152.5,983.32,-37.332
-137.372,1003.572,-42.456
-159.82,974.78,-31.476
-159.82,975.512,-28.304
-165.432,953.796,-24.644
-157.38,945.744,-21.228
-140.544,984.052,-47.092
-156.16,958.92,-28.548
-143.472,996.984,-49.288
-161.528,965.02,-31.72
-162.992,959.408,-33.916
-161.284,974.536,-31.964
-177.388,945.012,-17.568
-168.604,968.192,-21.96
-175.924,957.944,-16.836
-156.892,995.032,-27.572
-153.476,1016.016,-41.968
-169.824,994.788,-24.888
-171.776,996.984,-37.088
-175.924,961.848,-23.18
-175.68,971.852,-14.152
-178.608,966.728,-27.084
-164.456,982.1,-33.428
-164.212,970.876,-25.62
-165.92,976.732,-20.252
-174.704,969.9,-14.884
-170.8,964.532,-24.156
-173.24,964.776,-18.788
-164.456,974.536,-27.816
-164.944,987.956,-19.276
-166.164,991.372,-12.932
-168.116,1007.72,-17.324
-180.804,1000.644,-16.836
-183.976,991.616,-18.544
-177.632,995.764,-23.424
-178.364,1001.132,-25.864
-186.904,985.272,-27.816
-183.488,994.788,-15.616
-184.708,1004.06,-13.908
-185.44,1004.792,-18.788
-193.98,1011.624,-25.864
-198.128,1015.284,-22.448
-188.856,1012.112,-5.368
-199.348,1039.684,12.2
-190.808,1071.16,-32.452
-204.96,1144.36,-40.504
-206.668,1168.76,-10.248
-249.124,1129.964,1.708
-228.628,1074.088,-26.108
-226.92,1162.416,-56.852
-168.604,1289.784,-24.888
-188.124,1301.984,18.3
-248.636,1276.852,50.996
-129.32,1231.468,-102.968
-120.048,1289.296,-42.212
-67.588,1236.348,-53.192
-62.22,1253.184,-70.516
-84.424,1238.3,-54.9
-154.208,1204.872,28.548
-125.172,1167.296,66.124
-99.308,1129.232,-0.976
-24.4,1136.796,-20.984
229.604,1130.696,-78.812
83.936,921.1,-33.184
-158.6,850.096,45.628
-84.912,845.216,117.608
-5.368,792.756,167.628
-21.96,673.928,83.936
47.824,734.928,55.632
239.608,765.184,29.28
107.848,720.532,59.536
-71.492,620.736,35.38
20.496,852.536,89.06
226.676,844.24,75.884
264.252,683.932,-30.744
224.236,742.98,-25.864
166.652,681.248,44.164
21.228,632.448,45.872
193.492,764.696,94.916
443.836,778.604,128.344
479.948,752.74,129.076
385.52,742.248,112.24
339.16,661.484,9.272
400.404,699.06,-7.076
570.472,679.052,82.472
659.776,677.588,88.816
547.048,639.524,94.916
487.268,565.348,-8.296
536.8,561.688,29.28
834.968,488.976,57.828
1035.292,400.16,36.356
865.468,385.032,87.108
674.66,448.716,132.248
667.34,467.504,136.64
770.064,422.12,129.808
793.244,377.224,96.38
798.124,327.692,29.28
702.964,284.016,126.392
664.9,256.688,225.7
832.04,281.332,106.872
776.408,249.856,71.736
682.956,273.28,42.456
671.732,306.708,30.5
661.24,265.716,127.856
797.148,181.78,182.756
859.856,177.144,84.668
719.556,159.088,81.984
624.396,159.576,88.328
756.156,172.752,68.32
1082.384,143.228,65.88
1051.64,68.564,105.896
908.168,84.424,79.056
870.592,107.848,72.956
954.284,151.768,43.432
1131.672,121.024,-27.328
1251.232,87.108,-2.928
1271.484,71.736,90.036
1173.884,77.836,131.516
1146.312,87.108,125.66
1308.816,72.468,51.24
1382.992,7.564,-4.636
1306.376,12.688,46.116
1225.612,60.024,63.684
1257.82,91.012,74.176
1341.268,61.0,33.672
1325.896,8.54,59.536
1285.148,-21.228,93.452
1269.288,-9.516,85.4
1292.712,22.204,97.6
1342.732,72.956,77.104
1329.312,78.324,43.432
1240.496,61.0,33.428
1186.816,35.624,46.848
1238.788,28.06,61.0
1252.452,16.104,76.128
1181.448,19.032,73.932
1113.372,39.04,81.984
1090.192,66.612,31.232
1111.664,110.776,34.16
1104.832,113.46,20.252
1013.576,83.448,19.032
926.468,5.124,46.116
1001.132,0.0,34.892
1090.436,69.296,71.248
1123.376,74.908,121.756
988.688,44.896,40.992
924.76,130.296,-9.028
942.572,149.084,-1.464
960.14,169.092,56.364
966.728,164.7,87.352
1051.396,191.296,76.372
984.54,197.64,34.892
1016.748,286.212,23.668
1019.92,329.888,10.492
996.496,381.128,40.748
1009.184,436.76,131.516
934.764,503.128,43.676
841.312,630.496,50.02
894.504,462.136,150.06
1043.1,437.248,4.392
903.044,622.444,-80.764
877.668,885.964,-27.572
877.424,836.188,13.908
717.604,810.812,89.304
801.784,865.468,-129.32
697.352,754.936,-105.652
650.748,818.864,-85.4
756.888,864.98,-49.532
518.256,861.564,42.7
375.516,1003.328,30.744
351.116,1070.672,-47.58
324.032,1028.948,-166.652
209.108,929.64,-106.14
301.096,942.572,21.96
227.164,936.472,69.296
-29.524,792.268,58.316
-114.68,830.088,43.92
10.492,863.76,-86.864
41.236,913.78,-105.896
-134.688,1024.312,33.672
-159.82,973.56,-50.02
-183.244,997.228,-76.86
-154.208,983.32,-71.248
-196.664,953.064,-50.996
-141.764,892.796,58.072
-127.124,931.836,-41.968
-96.38,1016.748,-115.656
-178.608,946.964,-71.98
-174.948,883.036,-21.472
-136.64,939.644,2.196
-63.684,1003.328,-20.252
-78.08,1056.764,-72.224
-183.244,1007.964,-90.28
-197.396,935.984,-15.86
-157.624,914.512,-9.028
-95.892,1002.84,-76.372
-143.96,965.264,-96.624
-191.296,916.464,-38.064
-158.112,970.144,-14.884
-107.848,1060.912,-56.12
-113.216,1112.884,-43.188
-125.416,1104.832,-47.092
-180.072,1021.628,-28.548
-162.992,1017.968,-32.208
-140.056,1040.904,-31.232
-192.028,1019.432,-49.532
-233.752,1010.892,-83.692
-197.396,1011.868,-18.3
-161.04,1033.828,-40.504
-191.784,997.228,-45.14
-215.696,934.032,-48.312
-210.816,900.848,-49.044
-158.112,914.756,-43.92
-162.26,918.66,10.004
-161.528,903.532,-12.2
-179.34,892.064,-37.088
-185.684,861.564,-19.276
-158.6,875.472,12.932
-152.256,871.568,-15.128
-179.096,856.196,1.464
-195.444,879.132,5.124
-200.08,887.916,-7.808
-195.2,895.968,-31.476
-209.84,890.356,-18.056
-207.4,886.94,-26.352
-177.388,958.676,-60.512
-198.86,967.704,-53.924
-211.548,975.268,-27.084
-197.64,964.776,-40.26
-209.352,969.656,-28.792
-212.28,976.732,-45.384
-230.336,976.732,-56.852
-216.672,964.044,-46.848
-190.808,984.784,-43.92
-172.02,996.74,-57.584
-178.12,1022.604,-55.144
-182.756,982.832,-60.512
-206.18,962.336,-50.02
-184.952,968.436,-38.552
-185.928,986.736,-46.116
-179.828,1004.304,-49.288
-150.792,1006.988,-49.776
-144.936,1010.16,-57.34
-187.636,1046.516,-30.012
-179.584,1046.516,-21.96
-105.896,1017.724,-37.82
-87.108,1111.176,-92.964
-233.752,1207.8,-50.508
-337.696,1192.428,31.72
-243.024,1202.92,101.26
-124.44,1277.096,3.66
-92.72,1264.896,-110.776
-109.556,1253.916,-134.688
-81.74,1338.584,-65.88
-164.456,1404.22,-48.068
-183.488,1463.268,-109.8
-174.948,1457.9,-131.028
-141.52,1449.116,-139.568
-108.336,1360.788,-107.604
-155.428,1221.22,-60.512
-94.916,1101.416,-44.896
-80.764,976.0,20.008
-71.492,952.088,61.0
260.592,1049.932,-4.148
118.828,990.152,-4.392
-118.34,856.684,118.096
-58.316,716.628,153.72
-13.176,655.384,147.376
78.568,627.324,75.152
52.948,629.52,119.56
-110.776,649.528,89.548
42.456,651.724,81.252
169.336,706.624,62.464
171.776,757.376,19.276
50.264,722.484,16.104
-135.42,669.048,125.172
7.076,686.86,129.32
457.5,679.296,48.556
651.724,677.1,168.848
529.236,569.74,98.332
331.352,558.76,109.8
288.896,502.64,46.116
535.58,528.748,115.168
791.292,492.392,30.744
575.108,443.836,122.0
400.892,443.348,18.3
517.524,539.972,-24.644
720.044,416.996,128.832
698.084,336.232,197.396
619.272,303.78,116.144
656.604,378.932,45.14
699.304,444.08,-33.184
703.208,436.028,19.276
761.768,329.4,-4.636
796.66,189.344,71.98
739.564,207.888,163.724
699.548,254.004,53.192
701.744,304.268,-27.084
704.916,299.388,0.976
798.124,192.028,93.696
825.94,122.488,171.044
729.56,96.38,151.036
694.668,62.952,58.316
755.912,36.112,15.128
862.784,69.296,107.848
1052.128,93.94,35.868
1047.248,71.248,-36.356
920.856,-43.92,66.124
1080.676,-100.284,137.616
1278.804,-14.884,106.628
1370.548,62.464,-7.564
1411.784,93.452,-15.372
1544.032,38.308,23.18
1574.776,-14.152,69.052
1598.688,-78.08,18.544
1675.304,-4.392,-2.684
1635.776,44.164,-8.784
1519.388,49.044,11.468
1440.82,43.676,9.76
1337.852,44.164,-7.564
1292.712,83.448,-29.28
1270.996,69.54,-59.048
1252.696,32.94,-57.34
1188.524,28.548,-26.596
1142.652,27.084,13.176
1206.092,60.024,-17.568
1151.436,90.036,116.876
1190.72,163.48,92.72
972.828,79.056,-46.848
892.064,193.004,-30.988
964.044,221.552,13.42
1063.596,408.212,49.288
1173.396,404.552,-0.976
1121.18,277.672,59.048
817.644,511.912,40.748
801.784,686.128,-54.9
1158.268,792.512,-238.144
1016.26,857.172,-198.128
905.484,862.784,-41.48
630.74,568.276,-11.712
520.94,711.016,9.76
640.744,894.992,-54.412
700.524,778.36,-111.02
508.74,781.044,-86.864
378.932,831.308,-50.752
283.772,894.504,-4.148
180.804,910.12,-24.156
127.368,915.244,-19.52
22.448,910.852,81.984
51.728,903.288,16.836
88.084,948.916,-61.488
202.032,1014.308,-103.456
-40.26,954.284,13.908
-81.252,832.04,83.448
70.76,924.272,27.572
-52.46,849.608,-52.46
-164.212,827.16,10.98
-157.868,892.064,9.272
-291.336,885.72,33.916
-289.14,941.596,67.344
-170.8,1008.452,-16.836
-151.768,967.46,-14.152
-122.976,1000.4,-15.616
-142.74,1013.576,9.272
-125.66,1066.28,-38.064
-113.216,1060.912,-35.38
-159.332,1013.332,23.18
-132.492,975.756,54.168
-113.216,955.016,38.552
-92.72,997.472,35.624
-99.064,1028.948,2.44
-102.236,997.472,42.7
-85.888,985.76,71.492
-122.976,922.564,94.916
-18.3,1000.4,-2.928
-91.744,947.696,9.272
-104.432,944.28,15.616
-104.676,951.356,-15.128
-122.976,933.788,-20.496
-66.368,1028.948,-32.94
-70.028,1023.58,-42.212
-89.304,979.904,27.328
-80.276,937.936,3.172
-100.528,923.784,21.716
-70.76,955.992,-6.588
-84.424,977.464,-22.448
-88.816,974.292,1.464
-74.176,990.884,-3.66
-81.008,997.716,-20.008
-54.9,1007.964,-6.588
-83.936,961.848,3.416
-100.528,962.336,-14.884
-99.308,978.684,16.592
-51.24,1011.868,-11.224
-71.736,1013.088,-11.224
-81.008,1009.184,-23.668
-97.844,986.248,-10.736
-97.356,996.74,-11.468
-102.236,1012.356,-19.032
-99.064,1030.656,-17.08
-74.42,1057.984,-19.276
-61.0,1043.344,-8.784
-86.62,1034.56,-2.44
-119.56,1018.212,-4.392
-125.172,1003.816,-0.732
-105.652,1016.748,-4.392
-86.376,1035.292,-13.42
-94.916,1028.948,-4.636
-106.384,1023.336,3.904
-109.8,998.204,3.416
-105.408,1013.82,3.416
-96.868,1024.8,0.244
-109.312,995.764,4.88
-124.44,970.632,10.004
-136.884,949.648,0.0
-114.436,972.584,17.324
-116.632,959.164,-2.684
-125.904,940.864,-8.54
-129.808,925.492,-12.932
-131.028,926.956,5.124
-119.072,928.42,-9.028
-141.032,919.636,7.808
-133.224,953.552,-15.128
-132.492,938.668,0.244
-136.64,956.236,-0.976
-145.912,944.036,0.0
-119.56,962.336,14.884
-116.144,965.264,5.124
-144.692,937.448,4.392
-147.376,945.012,-0.976
-157.38,958.676,-1.952
-133.712,1008.696,-12.688
-132.004,1001.132,-9.272
-150.792,986.98,2.196
-148.596,987.224,2.684
-159.088,995.52,-2.684
-158.844,1018.944,1.952
-137.86,1014.552,-0.488
-136.396,1028.704,5.124
-133.468,1055.544,7.808
-153.964,1047.004,10.004
-153.476,1055.3,36.112
-126.636,1060.424,33.672
-133.956,1105.076,45.628
-214.964,1159.488,28.304
-284.016,1241.472,88.084
-202.032,1355.42,10.736
-184.952,1427.156,-1.952
-214.964,1443.26,33.184
-158.356,1420.324,68.076
-119.072,1383.48,11.468
-119.072,1381.04,-17.568
-123.708,1297.104,4.392
-222.04,1231.468,73.444
-129.32,1212.924,-11.956
-84.424,1171.932,11.956
-47.336,1129.964,25.62
-145.424,1078.724,108.58
-101.016,945.5,65.148
-97.356,889.136,-24.4
-137.86,939.888,38.064
72.956,925.98,-43.188
84.424,802.028,-106.14
146.156,684.176,-57.828
32.452,701.256,215.696
-163.48,650.016,119.072
132.492,746.152,-65.636
207.4,563.152,-54.656
2.684,528.992,44.896
-108.58,559.248,276.452
68.32,499.956,236.436
274.012,631.228,-61.0
367.952,709.796,-127.368
239.608,650.504,-62.464
139.08,565.104,-40.016
233.02,479.704,103.944
525.82,534.848,104.676
640.988,480.192,93.208
549.488,433.344,130.54
463.844,409.676,82.228
569.74,448.96,56.12
865.956,500.932,69.54
919.392,477.508,82.228
748.836,429.684,87.108
569.252,361.608,61.976
568.276,344.528,88.816
672.708,328.668,123.708
641.964,360.144,41.48
496.052,305.976,16.348
515.816,266.936,33.428
567.544,170.556,127.856
601.46,126.392,146.156
713.456,149.572,49.532
719.8,97.6,23.424
823.012,107.848,86.62
917.196,15.128,121.512
875.228,-9.516,87.596
1013.82,106.628,-8.784
1200.968,148.108,-38.552
1257.82,61.976,27.084
1199.992,81.496,99.064
1153.144,71.736,69.784
1208.044,157.868,70.76
1420.324,220.576,50.02
1496.94,221.552,45.384
1441.796,177.876,61.244
1459.608,236.68,66.368
1509.628,238.876,39.528
1520.12,241.804,33.428
1438.624,208.864,26.352
1384.944,178.852,-0.244
1419.104,223.748,5.612
1402.268,238.388,12.688
1382.748,224.48,-3.904
1337.608,215.208,21.472
1267.58,162.748,8.54
1199.504,132.248,4.392
1180.472,131.028,-10.492
1162.66,119.804,-10.98
1138.26,122.244,27.328
1076.04,85.888,34.404
1038.464,75.152,0.976
1066.036,113.216,9.516
1095.316,89.548,1.952
1104.1,99.064,4.392
1080.92,87.108,-5.124
1066.524,82.228,2.44
1090.192,163.724,50.264
1163.636,225.944,78.812
1070.428,262.788,104.188
940.132,286.944,27.816
892.552,323.056,-81.984
929.64,326.472,65.636
953.064,396.988,32.94
1037.976,513.864,-51.24
872.544,495.564,82.716
858.88,563.64,173.728
767.136,575.596,-14.884
759.084,538.508,-40.016
861.808,555.344,-8.54
851.56,635.376,10.492
663.68,697.352,77.104
602.436,766.648,51.484
645.868,915.244,11.468
638.548,906.948,77.592
648.064,859.856,119.56
641.476,927.932,23.18
563.396,929.884,25.132
430.416,882.548,110.288
289.628,803.736,190.076
593.652,908.656,12.688
445.3,1038.952,48.068
-91.256,1039.196,259.128
35.38,938.18,132.736
139.812,963.068,-43.188
196.664,941.84,66.856
40.992,879.62,199.592
-24.644,860.588,129.564
-83.692,884.5,23.668
-114.192,884.012,38.796
-132.248,803.98,-5.124
-54.412,848.388,31.232
23.912,909.632,-100.772
68.076,970.632,-163.48
-57.096,1021.384,-53.192
-117.852,978.196,-79.788
-136.152,992.348,-91.5
-89.548,988.444,-52.704
-41.48,1043.344,-73.932
-98.088,1003.084,-63.44
-85.156,984.296,-33.184
-48.8,970.632,-10.248
-43.188,965.752,7.564
-92.232,920.368,6.832
-73.444,967.948,-16.836
-77.104,998.692,-89.792
-76.372,1026.752,-57.096
-38.308,1089.46,-94.184
-108.336,1020.164,-34.16
-97.844,1025.532,-23.424
-134.444,985.028,-22.936
-74.42,1048.712,-64.66
-36.112,1052.128,-25.132
-52.948,1029.436,-6.1
-50.02,998.692,-21.472
-78.08,995.032,4.148
-104.188,964.288,-26.352
-78.812,983.32,-47.58
-77.836,994.544,-18.3
-83.204,946.72,-1.464
-115.168,918.416,25.132
-118.828,920.368,-14.64
-97.356,952.576,-3.416
-45.14,1001.376,-6.1
-85.644,955.748,1.22
-109.556,930.128,8.296
-140.056,892.552,-1.708
-149.572,881.816,11.956
-95.16,959.408,-14.64
-43.92,987.224,-32.452
-143.228,932.812,1.952
-122.244,934.276,-21.716
-133.224,954.772,-55.144
-116.632,944.28,-52.46
-71.004,1009.672,-50.02
-81.496,1020.652,-41.724
-92.964,1044.808,-23.668
-75.396,1045.784,-12.688
-74.908,1036.756,-8.54
-102.724,998.448,-3.904
-110.288,964.044,-5.612
-130.052,944.768,-16.592
-151.036,943.06,-26.84
-152.012,933.788,-15.616
-85.644,1030.656,-41.48
-25.376,1129.72,-31.72
-15.128,1171.932,-31.964
-36.356,1150.216,-22.692
-100.528,1031.144,-18.3
-130.052,927.688,27.084
-125.904,892.064,37.82
-98.82,937.448,2.684
-70.272,1009.672,0.732
-60.756,1070.184,6.832
-61.488,1059.448,-5.124
-82.96,1027.24,9.272
-89.304,1005.036,22.936
-105.408,979.416,17.324
-101.992,977.952,20.984
-96.624,975.024,56.608
-78.568,1023.092,41.724
-137.86,1029.192,24.156
-134.932,1066.524,6.832
-140.544,1042.612,8.052
-148.596,1049.444,7.076
-144.448,1114.348,31.232
-84.668,1200.968,-2.928
-12.688,1260.016,-25.864
-93.452,1256.844,48.8
-170.068,1156.804,89.792
-132.248,1131.428,92.72
-91.988,1185.352,98.088
-89.06,1131.184,83.448
-88.816,1152.412,75.884
8.296,1195.356,43.92
-11.468,1088.484,155.916
13.42,1068.232,147.376
-10.492,1096.536,83.936
157.624,1045.784,16.104
247.904,938.912,-44.164
210.572,910.852,-12.2
161.04,940.62,60.268
126.392,890.112,160.064
318.908,988.932,42.7
254.98,847.656,-115.412
274.744,782.508,-77.836
284.26,768.6,-2.196
134.444,631.716,33.428
10.248,705.892,201.056
289.872,768.6,45.872
415.044,793.732,18.544
497.516,819.108,-13.42
602.436,827.16,-77.348
547.78,678.076,-57.828
223.016,679.54,118.34
11.224,572.424,74.42
-91.5,589.504,-5.124
600.24,556.564,-59.292
1075.552,536.8,172.02
886.696,468.968,169.824
692.716,333.304,154.208
726.876,331.84,175.68
859.612,378.688,155.916
970.388,391.864,224.236
1029.436,373.808,214.232
1005.036,368.928,126.636
958.92,364.78,100.04
991.128,362.584,131.76
1003.084,369.416,148.352
963.312,379.664,147.132
930.372,390.4,117.608
996.984,400.648,58.072
1024.8,405.04,126.88
978.196,374.54,144.204
858.88,330.864,159.088
816.18,319.884,180.804
830.82,316.956,142.496
841.556,349.164,116.388
777.384,334.768,115.9
706.136,343.308,79.544
664.168,347.944,67.588
782.264,277.428,105.652
727.12,230.336,166.896
647.088,209.596,109.312
642.452,227.652,34.648
705.648,195.688,38.796
793.0,179.584,127.368
764.696,125.172,169.092
720.044,90.524,104.188
772.992,47.336,51.24
840.092,28.792,137.128
918.172,35.624,123.464
879.376,51.972,85.156
968.192,21.472,56.608
1004.792,-38.064,124.928
1066.524,-21.716,88.328
1083.604,-12.932,59.048
1082.628,-27.572,57.828
1159.0,-4.392,42.212
1277.828,-55.388,62.708
1309.06,-48.312,129.808
1259.284,-45.628,21.96
1218.536,-7.076,-18.3
1302.472,0.976,-20.496
1451.068,-64.416,-9.516
1479.86,-55.876,-4.636
1349.076,-46.36,61.244
1269.044,-43.188,90.768
1334.68,-52.46,61.488
1382.992,-59.048,74.42
1313.94,-87.596,59.292
1228.052,-137.128,38.064
1245.62,-108.824,46.116
1224.148,-106.14,81.984
1202.92,-88.084,59.536
1174.128,-79.056,32.452
1176.568,-74.176,51.484
1151.924,-56.364,64.416
1141.432,-50.996,82.716
1127.768,-20.008,120.048
1140.456,-1.22,82.228
1187.792,78.324,87.596
1231.224,31.476,-2.196
1039.684,128.1,-1.22
883.28,189.1,124.684
982.344,420.168,44.896
1306.376,340.136,97.112
1222.44,354.288,191.784
1075.796,587.308,-106.14
936.472,623.42,-74.42
873.764,672.952,96.624
885.232,653.188,182.756
1009.428,762.744,27.816
772.26,726.388,-43.432
605.608,702.476,54.9
642.452,836.676,172.996
796.904,905.728,26.108
450.424,882.06,15.616
208.62,883.036,15.372
140.3,904.02,-4.636
128.1,908.168,63.196
195.444,886.452,4.88
87.596,878.156,69.54
95.648,931.836,-14.396
-81.252,823.012,33.184
-179.096,799.832,43.188
-110.288,800.808,-24.156
-82.228,876.204,-28.548
-122.976,867.908,-38.308
-168.36,890.356,-31.964
-214.964,878.156,-30.988
-153.232,964.532,-11.468
-172.996,944.524,-55.876
-112.484,974.048,-26.596
-113.46,947.94,-47.336
-147.376,940.132,23.18
-132.248,941.84,6.588
-199.104,972.096,12.2
-115.168,1013.332,-44.652
-99.064,1057.496,11.712
-125.172,1008.452,-3.904
-176.9,952.088,44.896
-206.668,899.628,45.628
-188.124,939.156,38.308
-78.324,1033.34,-31.72
-121.024,1013.576,-22.204
-168.116,995.276,-9.516
-211.06,960.14,8.54
-200.324,956.236,30.012
-153.72,992.348,25.376
-127.856,1006.5,15.616
-146.644,1022.36,-6.1
-198.616,997.472,16.104
-236.192,992.104,40.504
-196.664,1039.928,26.108
-149.328,1085.8,-3.172
-139.812,1108.98,-0.732
-147.62,1059.448,-2.928
-177.876,1010.648,25.62
-180.316,939.644,71.004
-192.76,900.848,80.52
-151.036,921.1,60.756
-144.692,903.776,49.532
-133.712,905.728,19.032
-144.204,870.104,36.6
-178.12,829.112,55.388
-174.46,823.744,51.728
-158.356,837.652,38.064
-152.5,869.128,18.056
-163.236,889.136,8.052
-157.136,889.136,35.868
-145.912,892.308,34.16
-165.432,885.232,43.432
-173.24,894.748,36.112
-180.072,920.612,32.452
-174.46,952.82,16.836
-177.388,966.24,46.116
-153.476,991.128,17.324
-158.844,999.912,14.152
-173.972,999.912,9.516
-180.316,1003.572,31.72
-191.052,997.228,40.016
-178.12,1009.672,31.964
-173.24,1040.66,14.396
-174.704,1043.588,-1.708
-188.856,1024.068,5.612
-186.904,1005.768,11.224
-189.344,1008.208,28.06
-177.876,1023.336,12.688
-187.88,1031.388,9.516
-192.272,1021.628,22.204
-193.004,998.692,43.188
-160.308,1028.46,46.604
-125.416,1062.132,21.716
-183.976,1046.516,47.824
-189.832,1066.036,42.944
-204.472,1096.292,61.244
-200.568,1127.524,72.468
-168.36,1165.1,32.94
-229.116,1220.976,22.448
-256.2,1274.168,63.196
-218.38,1269.776,53.436
-177.632,1189.256,39.772
-193.004,1150.216,67.344
-193.248,1149.972,131.76
-157.868,1128.256,118.584
-1.464,1125.572,-2.684
23.424,1084.336,33.916
-97.112,945.988,42.7
26.108,879.864,44.164
133.468,917.196,57.584
130.784,965.02,33.672
104.432,830.576,-7.808
145.18,688.08,-37.088
187.88,749.08,102.48
515.572,704.916,104.92
525.82,727.608,-97.6
298.168,725.656,-97.844
30.744,624.152,-59.048
-54.412,545.34,64.172
289.872,562.176,83.204
454.084,553.636,85.4
588.284,564.372,61.732
592.92,512.4,-70.76
407.48,484.828,-39.772
676.368,438.712,0.488
964.288,411.628,91.744
986.98,435.296,111.508
906.704,454.084,9.516
931.836,462.136,-23.18
1033.096,426.268,30.012
1046.76,376.004,0.732
984.784,389.424,41.724
994.544,450.18,20.496
997.96,497.272,16.836
1016.016,524.844,28.548
968.924,493.856,23.424
946.964,494.1,2.684
943.06,486.536,-15.128
903.532,500.444,-11.712
868.884,514.596,3.172
835.7,516.548,-4.148
818.864,493.124,-4.148
793.976,460.184,-5.856
772.504,404.552,-12.2
731.268,395.524,-13.908
661.972,402.844,6.588
639.768,392.596,16.592
709.796,383.324,-3.66
705.16,339.404,-2.684
695.4,285.724,-10.004
634.644,262.056,30.988
648.308,282.308,49.044
681.98,267.424,57.34
752.74,228.872,30.256
826.428,167.872,16.348
809.592,156.892,13.176
785.436,162.748,5.368
849.364,163.48,-7.564
929.884,118.584,-49.532
907.924,88.328,-81.008
1010.648,81.984,-51.972
979.172,104.432,-3.172
938.668,80.032,39.772
1162.416,93.452,-13.42
1276.364,78.08,-76.616
1258.064,114.436,-81.74
1323.944,131.272,-54.9
1396.168,107.604,-0.732
1406.904,76.86,18.3
1343.708,92.232,-4.148
1372.5,88.328,-72.712
1329.556,86.864,-20.74
1392.996,77.348,-54.412
1385.188,85.888,-33.672
1306.62,84.18,-24.888
1300.764,79.056,-34.648
1294.664,81.252,-35.136
1310.524,71.492,-73.688
1218.78,41.48,-84.424
1262.456,65.148,-119.56
1237.08,94.916,-83.936
1217.072,106.14,-81.008
1112.884,151.524,-59.536
1080.676,190.32,-5.368
1078.724,196.176,-45.14
1068.72,125.416,-102.724
1108.492,132.736,-205.448
1193.404,291.58,-0.976
981.856,356.484,97.6
1058.472,424.804,51.24
1123.864,330.62,-67.588
1024.312,370.636,-145.424
972.584,533.384,-88.328
825.452,489.708,60.268
867.908,627.324,18.544
995.52,710.04,-42.944
790.316,786.656,-48.312
651.968,671.0,104.188
780.8,723.216,-62.22
964.532,754.204,-196.42
608.292,780.8,65.148
466.04,763.476,152.988
450.18,879.376,26.108
492.636,928.176,16.104
471.896,927.444,-130.296
357.704,826.916,-11.712
320.372,839.604,37.82
325.74,780.556,40.016
254.004,803.98,50.996
160.552,809.348,44.652
99.308,896.456,-21.716
-32.208,938.912,39.528
-5.124,930.616,46.848
29.768,920.612,-31.232
-0.732,907.924,-15.86
-11.712,999.668,-40.504
-76.616,914.024,34.16
-37.088,928.908,36.6
-21.472,950.868,4.636
-21.228,958.188,-10.004
-12.2,961.848,-4.88
-58.56,918.172,50.996
-98.088,941.352,46.848
-55.388,945.5,8.54
-62.952,962.336,40.748
-33.916,980.636,80.032
-6.1,995.764,38.064
-37.332,998.448,38.552
-15.372,1006.5,13.908
-19.52,1010.16,26.352
-37.576,997.96,51.484
-41.968,995.032,66.856
-28.304,992.104,-3.66
-47.824,975.024,16.592
-56.608,953.796,30.5
-48.068,996.496,22.448
-60.512,1003.328,21.716
-61.976,1022.604,14.64
-57.828,1006.988,10.492
-75.884,970.876,42.944
-60.268,965.264,27.084
-59.292,963.068,22.204
-57.096,1004.548,17.08
-41.48,1027.728,12.932
-56.852,1003.084,20.496
-80.52,949.404,47.824
-75.884,926.956,45.872
-68.808,974.292,37.576
-46.116,1006.988,0.0
-47.58,998.936,2.44
-61.488,974.048,20.496
-81.984,962.824,34.648
-78.324,971.608,9.028
-74.908,973.804,-2.196
-57.584,977.708,21.472
-49.532,983.32,13.664
-55.876,991.372,27.572
-55.876,1000.888,24.888
-39.772,1040.904,21.472
-26.84,1069.452,25.864
-43.188,1097.268,30.256
-56.364,1077.992,2.196
-54.412,1158.024,-6.1
-22.448,1187.304,17.568
-21.472,1201.7,51.484
24.644,1226.588,81.008
-49.288,1195.6,97.844
-83.936,1130.208,21.96
54.412,1116.3,38.064
-106.628,1139.236,165.92
-82.228,1178.032,190.32
-84.912,1223.416,129.808
-118.584,1242.936,97.112
-107.848,1270.752,91.012
-161.284,1249.036,55.388
-230.58,1256.844,81.496
-220.332,1171.932,115.168
-68.32,1126.06,21.96
15.372,1056.764,4.392
9.516,1017.724,86.376
-143.228,910.364,153.476
-93.208,947.452,141.52
63.684,928.42,5.856
-9.516,865.224,70.76
-131.272,797.148,106.14
32.94,792.512,101.748
277.428,820.816,59.048
139.812,825.208,49.776
143.472,905.728,-30.988
20.74,790.316,59.292
-84.912,747.616,103.212
119.56,828.38,46.604
311.832,872.544,26.108
282.308,847.656,54.168
134.444,832.284,111.508
37.576,756.156,143.228
-33.184,714.92,164.212
-111.752,534.36,82.716
397.232,776.896,13.176
864.98,860.832,-126.148
595.36,766.404,-230.58
141.764,802.76,142.984
17.812,755.668,124.684
270.352,566.568,28.548
515.816,575.596,116.632
603.412,589.748,128.1
596.092,514.108,78.568
449.204,491.172,163.48
557.052,424.072,194.712
823.5,406.26,197.152
938.18,369.66,157.624
947.452,303.536,94.184
952.576,314.76,123.708
1085.556,326.472,208.376
1139.236,330.864,285.968
1107.272,336.964,188.368
1041.148,388.936,72.224
1055.056,430.66,59.048
1105.564,478.24,107.848
1139.236,446.032,122.0
1050.908,403.332,150.06
993.324,404.064,125.66
965.508,421.388,134.688
991.372,424.072,128.832
1001.864,400.404,139.568
950.868,416.264,137.128
830.088,378.444,128.588
713.944,348.676,139.812
628.788,312.076,108.824
528.504,257.908,107.604
552.172,219.844,78.324
504.836,222.772,81.74
515.328,201.544,47.336
535.092,167.872,44.652
538.752,163.48,122.976
572.912,118.096,143.472
666.364,61.0,119.072
906.46,78.812,83.936
1000.888,128.1,82.472
977.952,169.58,67.832
1031.876,131.76,31.232
1207.8,120.292,45.628
1266.848,127.124,48.312
1205.848,117.364,81.496
1268.312,88.084,87.108
1328.824,96.38,75.152
1345.416,118.096,90.036
1399.34,131.028,83.936
1392.02,114.924,96.624
1426.424,116.876,43.92
1399.096,39.528,79.056
1343.22,31.72,213.256
1328.092,76.86,214.476
1288.808,58.072,111.02
1259.772,111.996,117.852
1333.46,106.628,127.368
1250.744,26.352,126.636
1217.072,78.812,161.528
1191.94,133.712,176.656
1142.408,159.332,167.384
1067.988,125.416,140.3
948.428,177.876,149.084
887.916,171.776,60.024
950.624,162.016,-69.54
970.388,369.172,37.332
927.932,476.532,19.032
1095.072,481.656,135.176
1069.208,508.74,133.224
882.548,449.692,106.14
897.676,497.272,50.02
1049.2,650.016,-15.372
995.52,626.836,1.952
767.136,604.388,-1.952
641.232,711.992,25.376
720.044,813.74,115.9
844.728,829.356,-94.184
827.404,803.98,-206.912
531.92,791.536,18.788
197.64,712.236,168.848
173.972,787.876,77.104
393.572,913.048,-54.168
296.46,946.72,1.952
271.572,1030.168,-18.056
202.764,1010.16,44.896
86.62,1022.604,37.82
7.564,1015.284,16.104
58.56,1016.016,-48.556
27.084,965.02,-35.136
78.812,957.212,-102.48
-78.568,934.276,56.12
-62.464,965.996,17.812
-18.788,1052.616,-50.02
-29.036,1027.484,-43.92
-0.976,1005.036,16.836
-1.952,991.128,50.264
22.692,986.98,-42.212
-15.128,1012.112,-4.88
-52.704,991.372,31.232
-10.248,943.06,68.808
-5.368,937.204,50.02
-17.324,962.092,-19.276
-20.008,996.984,-31.232
-3.66,1000.888,0.976
6.588,987.712,20.984
-54.656,953.308,-6.832
-42.456,950.868,13.42
7.076,998.692,25.864
-21.96,1000.4,38.552
-41.724,977.708,21.96
-6.344,970.144,11.956
-26.596,1004.792,27.328
-50.02,989.664,-1.708
-58.56,973.56,19.032
-40.504,976.488,16.104
-49.776,996.008,6.832
-44.652,1026.264,-18.3
-62.464,1012.356,-10.492
-71.004,1003.816,-1.952
-61.976,1017.48,-12.444
-54.656,1049.444,-9.028
-27.816,1102.392,-35.136
-80.276,1113.128,-10.98
-118.828,1117.032,2.928
-104.92,1101.172,4.88
-61.488,1116.788,-17.568
-11.712,1147.532,-69.784
-113.704,1141.676,-20.008
-152.5,1106.784,21.96
-155.428,1023.336,6.588
-133.712,1026.996,-1.708
-138.836,1029.192,2.196
-123.708,1045.54,-17.324
-72.468,1064.084,-16.592
-93.696,1035.78,11.224
-137.616,1031.632,45.14
-86.62,1047.248,0.976
-139.324,1006.256,13.664
-148.108,1017.236,17.812
-176.412,1006.256,37.088
-187.636,984.296,42.7
-151.768,989.664,25.132
-169.336,961.116,38.796
-188.124,954.284,47.336
-225.944,930.86,47.58
-203.252,959.164,18.788
-209.352,974.048,18.3
-216.672,990.396,33.672
-199.104,1014.308,64.172
-208.376,1030.168,91.744
-220.332,1041.636,117.852
-159.332,1044.564,75.64
109.312,1102.148,-44.652
172.264,1184.376,74.42
-50.996,1065.548,153.964
-136.884,1027.972,83.936
53.436,761.524,32.452
241.316,640.5,5.856
229.848,685.152,-33.916
371.612,705.16,-43.92
384.3,757.376,-80.52
501.42,747.616,2.684
574.62,740.296,192.516
584.624,488.488,-84.424
511.424,451.644,-126.392
512.4,412.116,18.3
596.336,482.388,5.124
838.872,531.188,-22.448
881.816,480.192,76.372
821.304,420.168,161.528
827.648,396.256,91.988
807.396,419.192,124.44
925.492,423.34,123.464
976.976,453.596,154.208
973.56,435.296,101.504
903.288,441.396,80.276
901.336,490.928,6.344
912.072,511.668,6.832
889.624,502.884,69.296
948.672,447.74,53.924
894.748,407.968,52.46
847.656,434.564,61.0
764.452,457.744,59.78
707.6,457.012,9.516
691.984,458.964,33.672
711.748,421.876,28.304
683.444,365.756,53.192
606.828,339.892,67.344
634.4,308.416,47.58
667.096,311.832,71.98
687.104,303.536,13.42
597.068,280.844,22.204
603.168,236.436,10.004
677.588,185.44,10.98
713.7,139.08,57.584
697.84,97.112,70.028
726.876,85.156,57.828
803.492,46.36,56.852
977.708,37.576,37.82
904.02,58.804,22.692
911.34,58.316,-0.244
1076.284,32.696,-21.472
1291.736,-18.3,-5.856
1268.556,-24.644,9.76
1176.812,-26.352,-1.708
1255.136,-48.8,-47.58
1400.804,-25.62,11.224
1348.588,-10.492,-8.052
1268.068,19.032,-41.968
1359.812,14.152,-37.332
1452.044,32.208,-10.248
1446.92,1.464,-63.196
1273.924,7.32,-65.636
1253.916,5.124,-76.372
1300.764,26.108,-87.352
1348.832,36.6,-99.064
1355.908,6.832,-99.064
1307.352,-4.148,-110.288
1246.108,14.884,-70.028
1185.108,-1.22,-43.676
1139.48,-1.708,-50.02
1077.748,1.708,-50.752
1057.496,29.768,-50.752
1135.332,18.3,-106.872
1191.94,51.972,-160.796
1161.44,113.948,-32.208
1210.24,159.332,-5.368
1189.256,199.592,31.964
1091.412,139.568,-13.908
1000.156,99.796,-57.096
1022.848,127.612,-32.696
1097.024,275.72,-129.32
964.776,287.92,-45.628
986.492,303.78,-11.468
979.904,450.424,85.4
1201.456,576.328,-108.092
1052.372,540.46,-190.564
728.584,585.356,-161.772
675.392,564.128,-142.252
707.356,578.768,-9.76
857.904,683.444,1.22
733.708,721.508,-22.448
416.996,686.86,-49.776
193.736,593.896,70.272
217.648,635.376,23.912
156.16,910.608,-105.652
142.984,1033.34,-113.46
161.772,1082.628,-81.008
47.58,923.052,31.72
15.86,897.432,-32.208
-138.592,862.296,-65.88
-129.076,952.332,-103.944
-85.156,1004.548,-85.4
-70.76,1045.296,-51.972
-76.86,1034.072,-35.868
-93.208,1023.092,-66.368
-98.576,1005.524,-91.988
-107.36,1004.792,-81.74
-79.056,966.24,-36.844
-46.604,947.208,-35.868
-8.296,977.464,-74.176
-20.008,1003.084,-65.148
-52.948,984.296,-25.132
-36.356,986.98,14.884
-4.148,1001.62,-30.5
-6.588,971.608,-48.312
5.124,986.736,-41.968
22.692,1005.768,-4.392
6.1,1007.964,-7.076
-43.188,995.764,-24.644
-14.396,1006.256,-23.912
-6.1,994.056,9.028
13.908,979.66,38.552
59.536,1005.768,-23.668
4.148,995.764,-69.784
-90.036,946.72,-61.488
-59.048,955.26,-25.864
-0.732,951.356,-6.832
2.684,996.984,-33.672
-77.348,1000.888,-35.624
-101.016,990.152,-55.632
-42.7,990.64,-28.06
37.576,994.788,-63.196
7.32,1000.156,-35.136
-10.248,997.472,-49.044
-24.888,987.468,-75.152
-58.072,968.192,-63.196
-40.016,957.944,-46.604
15.86,967.948,-64.416
10.248,990.884,-62.708
-35.136,985.028,-63.44
-37.088,992.104,-68.564
-37.088,988.444,-33.184
-24.888,988.444,-50.264
-33.428,974.048,-73.444
-35.868,974.536,-71.248
-38.308,977.952,-75.64
-41.968,1006.256,-62.708
-20.74,1000.644,-54.412
-5.368,999.912,-54.168
-19.276,980.392,-64.416
-17.812,988.444,-68.32
-35.136,989.908,-55.144
-35.868,1017.724,-79.788
-54.9,1001.376,-55.632
-25.62,1004.06,-79.3
-25.132,995.52,-54.412
-48.068,981.368,-49.776
-47.824,999.18,-80.52
-53.924,996.984,-74.42
-36.112,1032.608,-88.084
-40.26,1023.58,-91.988
-42.212,981.612,-65.392
-14.396,986.492,-52.46
-38.308,969.168,-25.376
-55.388,965.02,-48.068
-28.304,955.26,-68.076
-19.276,965.02,-48.556
-42.7,968.68,-56.608
-57.096,969.168,-75.884
-52.46,978.196,-65.148
-55.876,989.664,-74.664
-60.756,997.472,-88.816
-60.756,996.984,-78.568
-56.12,994.544,-73.932
-61.976,992.104,-77.104
-46.848,989.908,-76.616
-55.144,1009.916,-79.544
-67.588,994.544,-79.056
-47.336,994.544,-67.1
-54.656,980.392,-63.928
-43.676,1002.108,-64.904
-61.0,994.056,-60.512
-57.096,996.984,-60.268
-49.532,995.764,-62.708
-58.072,998.692,-66.856
-83.448,999.18,-63.44
-56.12,992.348,-64.172
-53.436,983.076,-51.728
-47.58,984.052,-48.312
-53.192,986.004,-55.144
-63.44,987.224,-53.192
-62.22,986.736,-50.02
-64.66,999.912,-48.068
-75.884,1000.888,-42.456
-70.76,1011.868,-60.512
-68.564,1024.556,-50.264
-84.668,1033.828,-44.408
-81.984,1035.048,-42.944
-79.3,1047.98,-48.312
-66.368,1067.744,-41.968
-73.444,1078.724,-52.704
-75.152,1122.156,-45.628
-91.988,1120.936,-13.664
-63.44,1122.888,-29.28
-99.552,1179.74,-10.248
-161.284,1217.804,5.124
-76.616,1200.968,-28.06
68.32,1241.96,-166.164
13.42,1240.74,-97.356
20.74,1307.84,-86.376
59.292,1365.912,-38.064
-42.7,1289.296,-0.732
-61.732,1217.072,-1.952
76.616,1173.152,-1.708
122.0,1164.124,-15.128
131.028,1193.404,51.24
165.432,1132.892,-29.28
250.344,1031.876,-73.444
241.56,1004.792,-4.392
269.376,925.248,47.58
382.836,886.452,64.416
284.26,863.516,8.052
151.524,882.548,-6.1
250.1,829.356,-62.22
291.824,750.544,34.892
230.092,685.152,111.02
186.416,593.164,103.944
176.412,624.64,80.52
306.464,717.36,-49.288
388.204,756.156,-58.316
321.104,714.432,-44.164
159.576,639.768,48.8
27.328,554.612,40.016
242.536,603.168,131.028
317.932,786.412,86.62
266.692,706.868,-41.968
216.428,673.196,-35.136
129.32,637.328,112.24
68.076,536.8,96.136
378.932,614.148,74.42
586.332,644.404,56.852
531.432,550.708,-18.544
482.144,581.452,-40.748
410.896,554.124,-32.696
348.92,528.992,-44.652
519.232,585.356,-24.156
688.08,518.5,-150.792
644.648,447.252,-82.716
629.032,422.608,-23.912
539.972,390.4,-72.468
472.14,328.18,-3.904
602.192,252.296,5.124
832.284,156.404,-27.084
1015.772,127.368,-44.896
1049.444,146.156,23.424
893.284,143.228,54.168
681.98,143.716,47.824
842.532,154.696,-61.0
1237.812,69.296,-122.244
1275.876,77.104,3.904
1178.52,56.364,104.432
1138.504,43.432,52.948
1156.316,135.176,13.664
1402.268,131.028,61.0
1454.484,58.56,46.848
1425.204,90.28,43.188
1339.316,71.004,22.448
1463.024,116.388,-27.572
1495.72,163.724,-10.004
1429.108,144.936,-20.74
1400.072,141.276,-61.0
1347.612,135.42,-90.524
1272.216,156.16,-84.912
1225.856,154.696,-93.94
1219.756,155.916,-58.56
1193.404,114.436,-63.684
1201.456,97.112,-79.056
1148.996,119.316,-54.412
1122.156,117.12,-68.32
1065.06,116.632,-63.684
1054.08,111.996,-34.16
1048.468,106.14,-48.312
1062.132,81.496,-63.684
1020.896,73.688,-71.248
965.264,59.78,-53.924
992.592,81.252,-34.892
983.808,80.032,-28.304
980.392,51.484,-43.676
946.964,60.512,-31.964
987.468,115.9,-5.856
1078.236,137.128,-57.828
1101.66,152.5,-110.044
1069.208,180.072,-149.084
1015.772,172.508,-87.108
1037.0,152.988,19.032
1170.224,252.784,-83.204
1164.124,251.076,-56.608
984.54,234.728,-50.508
952.576,344.772,-61.0
924.76,398.696,28.548
930.86,420.412,28.548
941.352,501.42,-55.876
860.588,576.572,-33.184
948.184,574.132,-64.416
1259.772,672.952,-254.492
1016.26,694.668,-218.136
750.544,771.04,24.644
705.892,754.204,22.448
625.372,723.216,-101.748
649.772,781.288,-117.852
621.224,748.348,-17.324
495.32,858.636,61.732
561.444,911.096,-91.256
355.02,920.368,-49.044
343.064,921.588,-116.388
197.64,883.28,-8.784
248.148,900.604,3.904
137.128,858.88,-22.936
-1.22,918.904,-16.592
24.4,980.148,-60.756
110.044,981.368,-89.06
72.468,991.86,5.612
96.136,995.764,-48.8
31.964,980.392,-67.588
-58.56,964.532,1.708
-56.608,929.64,11.712
3.904,904.264,14.64
86.62,950.38,-38.552
64.66,936.228,-25.864
17.324,926.224,33.184
29.036,939.4,19.276
11.956,939.644,-4.148
59.78,1006.256,-60.024
15.372,992.836,-37.088
12.932,1004.06,-55.388
-22.448,950.624,-69.784
12.932,964.288,-35.624
34.404,981.124,-52.46
47.092,1038.708,-34.892
13.42,1044.808,6.1
-10.736,995.276,1.22
25.132,996.74,4.636
57.584,1017.968,-30.988
27.084,1036.512,-59.048
-71.736,992.836,-54.412
-11.956,954.04,-43.188
103.212,910.852,-48.312
65.88,958.676,-76.616
37.576,1002.84,-84.912
23.18,995.032,-84.18
-15.86,976.488,-36.6
16.836,963.556,-29.524
41.236,970.876,-49.532
23.912,1022.116,-71.004
10.492,1031.144,-55.876
28.792,978.928,-3.416
69.052,987.956,-60.512
59.78,1064.816,-80.764
16.348,1020.652,-61.488
-2.44,977.952,-40.016
-4.392,957.7,-16.836
3.66,952.332,23.424
-17.812,973.316,-5.124
7.564,993.08,-72.956
18.544,1004.548,-66.368
27.572,1041.148,-63.928
-3.172,1020.164,-35.868
6.1,974.292,-41.968
41.968,1007.232,-83.936
15.372,1013.332,-89.548
-14.64,983.808,-45.384
28.06,975.268,-53.436
11.224,965.02,-53.436
20.252,976.732,-59.536
16.348,991.616,-54.412
25.376,1004.304,-73.688
8.54,988.932,-64.172
30.012,996.74,-42.456
33.184,968.436,-52.948
5.612,984.784,-47.58
12.444,983.808,-60.512
0.244,985.76,-56.364
1.708,984.052,-56.608
8.54,973.804,-45.384
-9.516,993.08,-49.776
-4.636,1006.744,-53.192
8.052,1028.948,-71.248
-4.88,1022.848,-66.612
-2.196,1025.532,-46.116
1.22,1012.356,-27.328
8.54,1020.408,-31.476
11.468,1079.944,-63.684
-10.98,1112.152,-72.956
-2.196,1119.716,-66.124
-10.492,1142.652,-54.168
118.584,1234.64,-77.348
121.512,1314.672,-76.86
76.616,1353.468,-95.404
89.06,1400.804,-28.06
201.056,1316.136,-18.3
258.64,1362.008,-7.076
172.996,1246.352,-57.828
11.224,1171.2,-27.816
94.916,1175.836,24.644
311.588,1160.22,40.992
341.356,1169.248,90.036
305.0,1185.596,61.976
204.716,1166.32,30.988
106.384,1089.704,86.864
10.004,1012.844,104.676
260.348,1054.324,-19.52
274.744,993.08,24.888
191.296,916.464,114.192
116.144,849.12,73.932
148.84,776.896,41.236
294.996,794.708,31.72
193.004,735.904,42.212
80.276,712.48,74.908
46.116,568.52,50.996
151.28,552.66,77.592
347.944,649.04,-30.256
173.728,592.92,-3.904
-39.772,539.24,132.004
157.868,520.452,56.364
220.088,476.044,-12.444
170.8,322.324,186.172
3.416,479.948,153.964
162.748,407.48,102.724
284.504,454.328,-31.72
643.916,402.6,-199.104
743.712,446.032,-219.112
596.58,392.108,-108.824
432.124,302.56,-2.684
589.016,263.032,-8.784
1001.132,264.984,-55.876
1090.436,239.364,27.328
1057.008,274.5,-15.372
988.444,273.28,-69.052
994.544,257.176,-89.304
1094.828,273.524,-55.632
1249.28,256.688,-21.96
1301.252,226.188,-6.832
1217.316,232.044,-1.464
1149.728,262.3,2.928
1216.096,288.164,23.668
1266.36,270.352,30.012
1247.816,233.508,15.372
1165.832,250.832,37.576
1124.352,237.656,27.816
1096.78,238.632,33.184
1080.92,224.968,26.596
1048.224,193.736,37.82
947.94,155.184,22.936
854.0,127.856,39.528
820.572,122.244,21.472
741.272,124.44,8.052
736.392,119.804,-47.092
784.948,91.012,-21.716
776.164,73.2,-15.86
753.716,39.04,-1.952
772.992,14.396,-3.416
870.104,-32.452,39.772
1004.304,-10.98,0.0
1073.6,-25.62,-6.344
1060.912,-22.448,-38.796
1042.856,-15.372,-46.848
1063.84,-9.76,-44.896
1159.0,-7.808,-49.288
1242.936,-0.976,-67.832
1217.56,-14.396,-88.572
1197.552,-38.796,-102.236
1312.72,-34.892,-68.32
1390.068,-1.952,-55.388
1234.396,17.568,-79.544
1169.004,16.836,-95.404
1320.284,69.052,-173.24
1359.324,66.124,-84.668
1270.264,54.412,-87.352
1255.624,46.604,-71.248
1301.252,87.596,-41.968
1286.124,133.712,-0.732
1077.992,89.792,-10.492
731.756,53.924,-164.456
956.48,285.968,-220.82
1330.776,241.56,-141.032
1153.632,220.82,-62.708
1026.264,358.68,-32.94
898.896,422.852,2.44
792.512,434.32,-24.888
986.004,493.124,-93.696
1222.684,541.192,-159.82
1078.968,571.692,-139.324
931.348,590.236,-32.208
806.908,630.252,54.9
751.764,732.976,37.82
916.22,755.912,-132.98
1078.724,907.924,-167.628
843.264,803.98,-124.44
651.968,797.636,4.88
483.608,878.644,16.104
396.744,893.772,-132.004
355.508,1002.352,-5.612
339.892,1050.42,41.48
421.876,940.864,-106.628
267.912,919.392,-54.168
84.912,885.476,70.516
70.76,888.892,84.912
48.068,889.136,67.588
25.376,804.956,23.668
105.652,868.396,-17.08
81.496,933.544,-18.788
10.004,967.704,21.472
-73.932,936.228,18.3
-50.264,933.788,-31.476
-10.492,943.304,-33.672
-21.96,917.684,-13.42
45.14,949.648,10.736
-36.6,929.64,23.912
-30.012,947.94,-31.72
40.26,961.848,-34.404
26.596,957.7,4.148
35.624,955.016,-0.976
6.588,955.504,4.636
-15.616,986.736,-3.416
29.28,1017.236,-57.34
50.508,1018.7,-38.552
0.732,1015.284,-25.62
-39.772,971.12,2.928
-19.032,985.76,-15.86
3.66,1029.924,-38.064
9.028,1038.22,-48.312
-4.148,1023.824,-30.256
6.832,994.056,-14.884
-24.888,960.384,2.44
-34.648,1004.548,-20.74
-27.328,1021.872,-48.312
-11.712,1033.584,-52.46
-18.788,1020.164,-48.8
-12.932,995.764,-47.58
-21.96,1005.28,-51.484
-14.884,1008.208,-63.44
-15.616,983.32,-46.604
-21.228,958.92,-44.408
-39.772,946.964,-27.328
-36.6,965.02,-32.208
-34.404,976.976,-31.232
-25.132,978.684,-54.412
-46.36,956.724,-46.604
-35.624,959.164,-47.336
-40.26,960.628,-32.696
-57.828,936.472,-34.648
-59.048,945.012,-20.008
-46.116,977.464,-35.136
-47.092,979.172,-39.772
-37.576,970.144,-36.112
-19.032,979.172,-21.716
-45.628,976.976,-13.664
-71.98,993.08,-18.788
-67.832,989.908,-32.94
-52.704,1002.84,-32.696
-53.68,1013.332,-39.528
-70.76,998.448,-30.744
-75.884,986.492,-19.276
-91.988,962.824,-15.86
-71.98,975.268,-28.548
-64.66,1000.156,-20.008
-51.972,1033.096,-28.06
-70.76,1034.072,-19.032
-61.976,1040.66,-6.832
-80.764,1051.152,4.636
-66.124,1067.988,-8.784
-49.776,1082.384,-12.688
-55.144,1087.02,-7.564
-83.204,1118.496,22.204
-116.876,1165.344,-8.54
-69.296,1221.464,-47.336
-10.736,1260.992,-50.752
3.904,1240.008,0.488
3.904,1317.844,9.028
158.6,1414.224,-22.936
193.248,1367.376,-36.844
134.2,1190.964,-89.06
146.156,1070.428,50.264
203.74,1023.824,108.092
101.504,1034.56,126.636
282.552,1167.052,-0.488
400.16,1050.664,29.524
309.392,938.18,12.2
197.884,844.972,-21.472
317.688,788.608,-82.228
423.34,928.42,-87.84
422.12,855.464,-83.448
444.08,676.124,-54.412
366.488,490.684,-10.492
273.524,523.868,15.128
505.568,696.864,-41.724
615.856,622.688,-42.212
573.156,441.64,20.252
268.4,341.356,114.68
136.152,316.224,137.86
507.032,406.26,52.704
748.104,393.816,-44.652
853.268,452.864,-25.376
762.988,390.156,-4.636
649.772,383.568,61.244
733.708,401.136,-11.224
846.68,388.448,-3.172
969.656,386.252,47.824
1002.596,409.188,64.904
944.28,412.604,40.748
899.872,416.508,10.736
900.116,419.68,-0.244
989.176,444.812,-21.96
980.636,431.636,6.588
960.384,457.256,-25.376
862.784,459.452,-56.608
801.296,468.724,-64.904
803.98,442.372,-60.024
764.696,362.828,-43.92
699.792,336.232,-32.696
630.496,311.344,-40.748
573.644,314.516,-50.752
669.78,292.312,-67.832
748.836,274.5,-21.96
721.996,232.288,34.16
639.768,130.052,34.16
601.46,126.636,4.636
583.892,180.56,-61.732
823.744,164.456,-24.156
883.768,52.46,20.984
810.324,0.0,-65.392
806.42,12.444,-123.22
866.2,-6.588,-89.06
1057.496,-41.236,-98.332
1290.272,-75.884,-178.12
1314.916,-32.208,-308.66
1285.148,5.124,-294.752
1230.248,-32.208,-168.848
1256.844,-44.896,-151.524
1435.452,-108.824,-182.756
1472.784,-83.692,-152.256
1388.848,-44.164,-150.792
1253.184,-19.52,-202.032
1232.444,-44.408,-223.992
1317.356,-66.612,-225.7
1364.936,-85.156,-230.092
1313.94,-92.72,-241.804
1204.384,-68.32,-244.244
1140.944,-79.788,-243.512
1167.296,-82.472,-244.0
1228.296,-93.208,-229.36
1192.184,-108.824,-206.424
1124.596,-102.724,-198.86
1126.06,-130.296,-194.468
1086.776,-144.448,-144.204
1051.152,-140.544,-153.232
1026.996,-170.312,-162.26
1082.628,-117.364,-180.804
1087.264,-92.476,-195.2
1021.384,-61.0,-153.72
1003.572,-71.98,-195.932
1053.592,-83.204,-163.968
1179.252,-67.344,-162.992
1166.808,-81.496,-179.828
1033.584,-129.564,-142.008
1039.684,-47.824,-129.076
1186.328,-7.808,-133.224
1191.696,33.428,-124.684
1188.768,27.328,-117.364
1192.184,65.148,-183.732
1035.292,66.612,-130.784
890.844,82.228,-49.288
1074.82,177.632,-112.484
1091.168,190.564,-169.824
979.416,350.384,-150.548
918.66,464.332,-83.692
1042.368,588.528,-152.256
1023.336,550.708,-14.64
789.584,456.524,29.28
703.696,502.884,-11.468
761.036,644.892,-48.8
640.744,701.744,51.484
496.54,756.644,-28.06
532.896,822.768,-59.292
591.944,865.468,-82.472
363.316,804.224,17.08
202.764,848.388,19.764
193.004,987.468,-61.732
153.476,994.788,-132.98
42.944,1057.252,46.848
83.692,1135.576,-78.324
71.248,1079.7,-150.548
-59.78,965.508,-158.844
-191.296,901.58,-99.796
-181.048,841.8,4.148
-106.628,873.032,72.956
-138.348,909.144,5.856
-122.488,873.032,-19.032
-114.192,865.224,9.272
-187.636,805.444,40.748
-263.764,824.72,29.768
-183.488,916.708,-72.712
-157.868,972.828,-150.548
-206.912,921.832,-83.692
-133.468,953.796,-67.832
-201.3,887.916,-18.056
-157.136,927.2,0.0
-119.072,1029.68,-58.316
-134.2,994.3,-32.452
-104.432,1020.164,-69.052
-145.18,976.732,-3.904
-118.584,984.296,-2.928
-159.82,933.544,-10.004
-128.1,995.764,-85.156
-165.676,971.364,-53.68
-159.088,965.508,-44.164
-158.6,956.724,-11.468
-112.972,983.076,-28.06
-155.672,965.508,-34.404
-137.616,984.296,-60.512
-162.016,986.248,-76.128
-133.712,997.96,-81.008
-146.4,1011.624,-76.616
-180.072,1007.232,-44.652
-159.576,1009.184,-53.192
-169.824,972.584,-30.012
-144.936,961.116,-27.328
-125.172,963.312,-45.628
-131.76,999.18,-34.404
-166.164,988.2,-45.14
-165.92,1001.62,-41.48
-165.676,1003.084,-30.012
-153.964,1024.312,-30.012
-162.992,1022.848,-27.816
-135.664,1059.936,-35.136
-181.292,1070.184,-17.812
-211.548,1096.78,-4.636
-212.28,1184.864,-11.956
-219.356,1258.308,-30.012
-176.168,1305.156,-53.924
-134.688,1282.708,-60.756
-175.192,1300.032,37.82
-203.252,1234.884,56.608
-150.548,1226.1,-25.132
-54.412,1218.536,-58.56
3.172,1129.964,9.028
16.836,1122.4,14.396
0.0,1175.836,-42.456
62.952,1122.644,-0.732
83.692,967.948,72.468
198.372,927.932,158.112
143.472,905.484,141.032
414.068,1063.84,-74.664
300.608,886.696,61.976
160.064,768.6,-3.904
146.156,689.056,-10.736
147.62,741.516,98.82
292.556,847.656,43.676
413.336,873.764,-130.296
176.656,745.908,-20.984
176.9,630.984,59.048
180.804,564.86,56.364
457.5,665.876,6.1
552.904,807.64,-82.716
349.164,736.148,41.236
298.168,623.176,66.612
370.88,537.532,139.324
620.736,586.576,-29.036
687.104,676.612,-87.84
351.116,638.304,13.42
428.952,623.664,-8.052
663.192,629.52,-76.616
794.22,597.8,-60.512
822.28,641.476,-91.5
667.096,651.236,-48.312
583.892,647.82,-61.732
676.856,629.764,-75.152
767.38,620.736,-74.908
791.048,620.004,-31.964
803.98,650.26,-35.38
780.068,654.896,-43.92
734.684,632.936,-46.116
672.952,607.804,-27.084
721.508,583.648,-44.896
771.04,542.9,-21.472
813.496,530.212,-25.132
744.932,519.964,6.1
638.792,495.076,-24.888
494.344,450.424,-13.176
479.948,402.112,-53.192
527.04,355.752,-15.616
524.6,332.572,20.496
517.768,296.704,13.42
446.032,246.44,-13.176
377.956,171.532,-32.208
544.364,158.112,-22.692
674.904,121.756,22.936
688.812,69.54,33.916
750.3,43.432,-30.256
796.416,38.308,-111.752
1106.052,32.696,-163.724
1313.696,1.22,-93.94
1358.836,-19.52,-70.028
1387.628,-16.348,-126.392
1394.46,-44.408,-113.216
1575.508,22.448,-181.78
1758.508,25.376,-177.876
1658.712,34.404,-121.756
1529.88,39.528,-193.248
1403.732,52.216,-208.376
1430.816,75.396,-198.372
1526.464,67.832,-186.416
1451.312,16.836,-130.052
1325.408,18.3,-132.004
1224.88,27.572,-148.352
1176.08,65.636,-148.108
1213.168,94.916,-164.944
1173.152,69.54,-170.312
1080.432,77.348,-146.4
1008.208,48.068,-142.74
1019.92,71.492,-132.492
1057.984,111.264,-84.18
1060.424,115.412,-52.948
1004.06,141.764,-75.396
1043.1,188.856,-161.04
1035.048,149.816,-134.444
940.376,206.18,-118.096
879.62,252.052,-124.684
878.888,284.748,-91.5
836.432,316.224,-31.476
856.44,369.416,-48.068
965.02,491.904,-152.5
1062.864,642.696,-137.616
985.516,729.316,-21.96
885.72,648.308,47.58
807.884,618.54,79.3
769.088,688.568,54.412
762.988,734.196,-37.088
772.748,781.532,-7.564
921.344,845.216,86.376
702.72,801.296,105.408
528.016,865.712,197.396
539.24,909.144,192.76
446.764,912.316,131.272
422.852,919.148,121.756
332.328,866.932,168.36
399.916,856.684,89.548
351.604,875.716,104.432
241.56,929.64,167.384
273.036,1053.104,97.356
187.88,976.0,62.708
83.692,902.8,115.656
22.692,858.636,95.404
55.144,893.04,52.216
93.94,962.824,57.096
121.512,1041.148,16.592
28.304,1041.148,-3.172
45.14,991.616,-12.2
38.796,940.376,50.508
53.68,955.26,84.912
44.164,965.752,90.524
22.692,996.74,26.108
3.904,1000.644,-25.864
0.976,936.716,-3.172
7.808,929.64,64.66
10.004,919.392,75.884
42.7,981.124,75.64
43.676,1021.384,-4.148
6.832,981.124,32.452
-7.076,941.352,17.812
-35.38,928.176,20.984
-4.88,958.432,22.448
4.148,954.772,21.472
45.872,1009.428,3.66
14.396,964.776,10.492
3.172,947.452,23.18
-13.908,952.088,56.608
-2.684,985.516,52.216
2.928,995.032,-4.148
-4.148,1018.944,-17.08
0.732,997.96,-7.076
-4.88,997.228,24.888
-22.448,998.692,33.916
-9.272,1008.208,18.544
3.416,1002.352,16.592
3.66,1006.988,17.08
-9.516,975.756,2.44
5.856,979.172,24.4
-8.052,987.468,33.672
-19.276,987.712,21.472
-33.184,980.636,-1.22
-17.324,982.588,-16.836
-0.976,995.032,-11.712
-8.54,978.684,1.708
-12.2,986.004,36.356
-2.684,975.512,1.464
-29.768,988.2,3.416
9.516,992.836,-13.664
3.66,994.056,0.976
10.736,986.736,-2.928
4.148,981.856,9.272
-15.86,988.444,27.084
-5.612,1001.376,-7.808
-7.564,996.252,-1.952
-21.472,981.368,10.492
-10.98,976.732,2.928
3.416,986.004,-7.808
-4.88,998.204,-2.684
-28.304,999.668,4.148
-13.42,1002.84,-10.98
-15.86,1009.428,-1.22
-7.076,1016.016,-7.808
-17.324,1015.528,5.368
-12.688,1036.512,3.416
-13.42,1061.156,9.028
10.736,1111.908,-4.636
-11.956,1101.416,2.928
-35.624,1107.76,27.084
-14.396,1160.708,27.572
-48.312,1241.228,-0.976
-30.256,1321.748,-27.328
8.296,1339.804,-53.436
-25.62,1310.768,-41.236
-74.908,1328.58,13.176
-10.98,1397.632,20.496
34.892,1320.528,-13.42
79.3,1224.88,-66.124
100.284,1114.104,-143.716
25.376,1070.672,44.652
-54.9,1132.892,346.236
322.324,1308.328,-40.992
288.164,1101.904,-70.76
299.876,949.404,8.052
378.932,864.736,121.512
258.64,851.316,123.464
192.028,769.576,67.344
259.372,883.768,-46.848
239.364,759.328,-10.248
306.708,653.432,-11.224
401.624,701.988,28.792
452.864,661.484,-79.544
334.524,611.708,11.224
401.38,642.452,-83.936
427.976,497.76,-34.404
377.468,395.524,64.416
371.368,403.82,45.628
598.532,593.164,-83.936
579.256,510.448,-329.644
188.124,504.348,-14.64
350.628,483.852,-54.168
750.3,390.888,-53.192
965.264,275.72,6.1
987.224,312.564,-45.872
733.952,326.472,-25.864
704.916,341.6,40.504
1033.34,357.704,40.748
1197.064,317.2,12.2
1057.496,290.604,5.124
944.768,349.652,-43.432
870.836,394.792,-31.964
937.204,424.56,-68.808
950.868,380.64,-50.508
935.252,365.512,-81.984
866.444,343.552,-74.42
832.04,328.18,-60.512
825.208,342.576,-42.944
835.7,312.808,-22.204
821.548,246.684,-20.496
758.596,243.512,-82.228
618.784,239.852,-96.38
561.444,248.148,-129.32
693.204,220.332,-112.484
757.132,138.348,-65.88
710.528,72.224,-31.964
618.54,85.156,-64.66
588.772,127.856,-119.316
885.964,148.352,-79.3
1090.436,27.572,20.74
1006.988,-23.18,12.2
932.568,19.032,-136.396
901.336,62.22,-197.884
1263.432,65.148,-151.28
1430.816,21.716,-158.844
1314.672,29.768,-184.464
1206.58,66.856,-255.956
1201.7,94.916,-203.008
1351.272,90.036,-226.432
1364.692,36.6,-254.492
1328.092,20.984,-252.052
1283.44,17.812,-238.144
1258.552,48.556,-224.48
1249.036,47.092,-248.392
1260.26,27.328,-256.688
1308.816,33.672,-242.536
1247.816,23.668,-243.268
1180.716,46.604,-250.1
1162.416,33.184,-256.444
1164.124,17.08,-224.968
1194.136,44.652,-174.216
1230.98,44.408,-151.524
1125.084,20.74,-144.204
1009.672,27.816,-128.588
1001.376,105.164,-103.212
969.412,134.688,-68.808
954.04,166.652,-37.332
1085.8,182.268,-198.372
1126.06,152.256,-204.228
1122.644,282.552,-34.892
1187.548,410.164,-20.008
1064.816,484.096,-94.428
939.4,485.804,11.712
1071.16,656.116,-53.436
1230.492,738.344,-231.312
1209.264,727.12,-148.352
978.684,649.04,-17.812
633.424,571.204,67.588
607.316,663.436,30.744
607.56,802.028,59.78
806.664,829.844,-44.652
621.224,844.24,-60.268
305.244,803.248,-36.356
249.124,882.792,-35.136
248.148,891.088,-54.168
147.864,874.252,-22.204
199.592,831.308,-112.972
121.024,887.428,-36.356
24.156,888.648,-49.776
30.988,912.072,-63.196
15.372,910.852,-63.928
-21.716,884.012,-26.108
8.296,895.724,-2.684
61.488,955.26,-2.44
14.152,906.46,-18.544
-61.976,926.956,-31.964
-21.228,944.524,-86.132
22.448,992.348,-76.616
89.792,1034.072,-59.536
31.72,993.324,-9.272
-9.516,991.128,1.708
5.368,990.64,-36.6
99.308,1015.528,-62.464
62.952,961.36,-23.668
80.276,951.356,5.612
53.436,932.324,-17.568
-7.808,954.04,-34.404
-17.324,961.36,-57.828
64.416,1025.288,-95.892
34.404,962.336,-78.568
-2.196,916.952,-37.088
-0.976,892.552,-33.916
36.6,941.352,-62.708
36.112,1004.06,-101.26
14.152,1031.632,-110.532
26.108,1027.484,-123.464
-10.004,996.74,-67.832
-1.464,957.212,-56.12
1.708,947.208,-62.952
29.768,965.02,-70.028
12.2,976.0,-78.812
10.004,1003.816,-89.06
18.3,1015.284,-62.464
8.052,987.468,-64.416
-1.464,973.316,-69.296
0.488,975.024,-61.976
25.132,1001.62,-84.668
35.38,1009.916,-67.1
44.652,1006.5,-78.568
21.228,982.1,-41.968
-8.052,976.488,-36.6
5.368,980.636,-64.904
20.74,995.764,-78.812
17.324,994.3,-71.248
17.08,1000.644,-56.12
21.716,992.836,-74.176
0.488,996.74,-65.392
-13.908,988.444,-79.544
-3.416,996.74,-84.912
12.444,1007.964,-83.448
1.464,999.912,-65.88
6.588,992.348,-60.268
8.784,981.124,-66.124
-14.396,978.196,-71.004
-10.492,994.056,-86.132
-2.684,1003.084,-85.156
10.004,1017.724,-71.736
16.104,1021.384,-77.836
31.232,1033.34,-72.956
-4.392,1010.892,-53.68
13.42,1027.728,-62.952
10.492,1044.564,-50.996
3.904,1102.636,-68.076
-29.036,1138.016,-80.52
-22.204,1134.6,-109.556
-2.684,1188.036,-122.488
18.3,1194.868,-135.908
2.196,1198.772,-39.04
13.908,1185.108,-3.172
28.548,1168.516,-62.22
1.952,1138.26,-84.18
-0.488,1098.0,-54.412
22.204,1071.648,-66.124
-7.32,1076.772,-63.44
9.272,1085.312,-22.692
39.528,1064.328,-54.9
50.996,1062.62,-45.14
27.816,1044.808,-19.52
-80.764,995.764,2.44
-41.48,1140.944,-21.228
93.94,1241.472,-74.42
119.56,1203.896,-69.54
138.104,1208.776,-46.116
128.588,1121.424,-12.932
-84.18,932.324,39.284
-88.084,886.696,124.928
290.848,923.784,53.436
488.488,1056.276,-42.7
507.764,1000.156,-172.508
452.376,939.4,-131.028
355.264,875.96,-58.56
161.04,694.912,14.884
435.052,765.672,-55.144
649.772,840.824,-210.084
382.836,825.696,-9.76
122.488,546.56,77.104
293.776,603.168,60.756
705.648,562.664,-134.932
759.572,515.328,-203.252
538.264,541.192,-111.996
448.96,519.72,-23.18
575.352,505.08,93.452
632.692,535.824,18.056
607.072,557.296,-34.16
517.768,465.308,-72.712
388.448,458.476,-7.808
498.98,483.852,-42.7
693.692,515.084,6.344
787.876,499.712,-26.596
786.168,509.96,-80.276
752.008,507.764,-102.968
704.184,531.432,-60.024
705.892,546.804,-48.312
681.004,535.336,-41.724
650.504,519.232,-50.264
681.248,512.644,-78.812
715.896,468.968,-40.016
740.784,453.596,-47.58
632.204,440.176,-42.7
585.844,457.256,-88.816
519.232,395.524,-98.82
539.24,320.372,-79.788
668.804,270.108,-44.652
753.96,294.264,-66.856
678.076,335.5,-111.264
670.024,294.996,-109.556
824.476,261.812,-45.872
901.58,194.712,22.692
961.848,159.576,9.272
1041.392,211.548,-115.412
1025.776,220.576,-89.792
1204.14,232.288,-15.616
1271.972,171.044,-9.272
1101.66,134.444,-12.688
1097.756,162.26,-87.108
1256.844,205.204,-126.88
1319.552,117.12,-41.236
1226.1,121.268,-43.432
1152.168,108.092,-135.176
1310.036,122.732,-115.9
1424.228,137.128,-62.952
1328.824,137.128,-103.944
1191.208,141.276,-171.288
1210.24,139.568,-194.468
1296.128,134.2,-138.836
1285.148,107.604,-111.752
1183.4,84.424,-134.444
1122.888,69.052,-148.596
1192.184,83.692,-118.828
1255.38,57.584,-67.832
1211.46,32.94,-98.088
1153.632,31.476,-128.832
1126.548,50.508,-139.324
1136.064,81.74,-159.088
1143.628,104.676,-138.348
1147.532,92.964,-130.052
1078.724,60.268,-112.484
1042.124,40.504,-121.756
1040.904,42.212,-92.964
1053.348,52.704,-87.596
1076.772,107.604,-81.496
1009.672,124.928,-91.5
901.58,136.64,-103.456
761.768,136.884,-58.072
921.344,247.904,-113.948
995.032,405.772,-209.84
1232.932,336.72,-45.872
1187.548,473.848,-181.048
881.328,574.376,-185.44
932.812,682.956,-98.088
989.42,615.856,-96.136
1019.432,631.96,-59.292
908.168,634.4,-82.716
757.132,507.52,-95.404
715.652,563.396,-81.984
750.788,646.112,-107.116
610.976,706.38,-61.976
533.872,712.968,-77.592
466.772,764.94,-61.976
445.3,819.596,-47.336
575.352,1003.328,-66.612
474.824,925.492,-85.888
307.684,886.208,15.128
310.124,912.316,-8.052
322.08,969.9,-73.932
209.352,963.556,-72.956
111.264,949.16,-8.784
187.392,1003.328,-7.32
228.14,1020.896,-59.292
96.38,957.7,-9.76
107.848,947.696,-21.96
143.228,974.536,-18.056
104.92,974.292,-23.18
62.952,961.848,-10.98
88.328,979.904,-35.868
98.82,951.112,-48.068
111.264,943.06,-34.404
49.532,924.272,-10.004
45.628,1022.116,-80.276
68.076,969.9,-82.228
102.236,970.388,-28.304
129.564,960.14,2.928
88.572,926.712,23.18
97.356,1016.26,-13.908
87.352,993.08,-36.844
125.904,1016.748,-6.1
81.74,974.78,-8.052
65.392,937.692,13.908
83.936,949.648,3.66
98.332,1009.428,-15.616
114.192,1018.7,-32.696
142.496,1011.136,-23.668
135.176,1001.864,11.224
190.32,985.272,-15.128
122.976,1009.916,11.224
90.036,1051.396,-23.668
85.4,1051.884,-40.016
64.416,1011.136,-27.084
61.488,1002.84,-12.444
71.004,979.416,-25.864
45.872,950.624,-29.524
117.364,1025.532,-65.636
94.184,1044.076,-81.74
67.344,985.516,-41.236
113.46,975.024,-43.92
96.136,985.272,-3.416
89.304,1040.904,-32.452
108.824,1068.232,-39.528
73.2,1031.144,-27.816
69.54,1014.064,-21.716
67.344,995.032,-8.296
101.016,1018.7,-28.548
97.844,1083.848,-43.92
102.236,1092.876,-42.7
48.556,1027.24,-5.612
59.78,998.692,-6.588
62.952,987.712,14.152
68.32,1020.408,4.88
74.176,1046.028,-15.86
57.828,1012.356,-9.272
59.292,986.004,4.392
26.596,975.512,21.472
31.72,984.296,23.18
51.24,1010.16,20.008
31.232,998.692,-1.464
4.88,951.844,20.496
-4.392,939.644,18.544
0.732,941.596,28.304
32.208,987.224,30.744
36.844,1017.48,45.14
10.98,1005.28,64.172
-8.54,1013.332,68.076
-30.988,1036.512,61.732
21.472,1118.74,48.312
-8.784,1167.54,64.904
-93.94,1188.28,87.84
-133.224,1216.584,82.96
-10.492,1297.104,21.472
19.276,1350.784,-16.104
-98.088,1248.304,69.54
-154.94,1240.252,111.752
-160.308,1173.396,62.464
-104.188,1207.312,14.884
182.024,1265.628,-52.948
95.648,1154.608,93.208
36.356,1003.328,106.14
-23.424,871.08,101.748
96.624,845.704,60.512
327.204,1012.844,5.856
294.264,978.928,-1.464
231.556,758.596,-70.272
250.1,711.504,-100.284
88.572,727.852,94.184
125.172,630.74,46.116
220.088,811.788,4.148
298.412,833.748,-110.776
287.92,573.4,-158.844
-38.308,528.504,37.088
-240.828,511.18,311.344
416.996,640.256,172.02
772.748,511.424,-173.24
357.216,428.22,-55.144
187.636,373.564,-116.632
491.172,518.5,-14.396
924.272,489.708,-64.904
1091.412,365.756,40.016
1121.18,193.004,39.528
939.156,250.588,70.76
889.868,297.924,42.456
1097.756,387.96,32.208
1178.52,371.856,77.348
1099.22,322.08,104.676
1064.084,342.576,8.54
1037.976,363.316,-37.576
959.408,417.484,-12.932
996.74,431.88,-12.444
1006.744,373.564,5.856
947.452,356.728,12.444
890.844,309.392,-5.612
823.744,329.644,-5.124
763.232,327.692,-41.48
837.652,315.248,-28.304
862.296,269.62,7.076
729.56,229.36,40.748
678.32,243.268,-69.052
554.124,209.596,-7.076
599.508,185.928,-32.452
792.268,178.12,41.724
817.4,196.908,79.056
704.184,202.764,-14.396
564.372,155.428,-107.848
715.652,115.168,-70.028
1010.404,159.576,-30.012
1212.924,144.936,-5.124
1075.552,115.9,29.28
825.94,52.948,-106.628
952.088,108.58,-165.188
1329.556,75.64,-89.06
1286.612,46.604,-1.952
1213.412,78.568,-100.772
1104.588,37.332,-188.124
1195.844,87.352,-232.044
1368.84,87.352,-255.712
1340.78,71.98,-208.864
1297.836,69.54,-241.804
1287.832,129.564,-258.152
1271.484,140.544,-253.272
1292.468,146.4,-252.296
1292.712,101.504,-245.952
1226.832,61.244,-236.192
1168.272,46.604,-242.536
1157.78,78.324,-256.688
1165.588,99.064,-239.852
1164.612,97.112,-199.592
1128.744,71.004,-173.24
1074.332,37.088,-161.284
1074.82,27.084,-172.996
1092.876,41.968,-175.924
1063.84,51.484,-165.676
1033.096,46.848,-170.312
1008.452,36.844,-153.232
1023.824,15.372,-165.676
1046.76,21.472,-166.896
1043.344,12.444,-154.696
1024.8,108.824,-95.16
1075.552,171.776,-112.972
1064.816,202.276,-135.908
1051.884,266.448,-102.48
1079.456,329.156,-178.12
1201.212,415.288,-143.472
1240.008,484.828,-152.744
1097.512,451.644,-64.172
892.308,362.584,-40.26
831.308,410.652,-1.464
955.748,408.456,40.992
1069.208,508.74,42.456
982.588,605.852,3.904
805.2,713.7,18.3
630.008,734.44,62.952
655.628,802.76,116.876
502.64,782.996,146.4
437.248,805.688,65.392
423.34,777.384,30.5
372.588,860.588,64.172
379.42,869.128,83.692
261.812,848.144,57.34
203.74,894.26,61.244
245.464,903.044,-20.74
227.164,915.976,29.28
172.996,916.708,39.04
143.96,885.232,48.556
166.164,852.048,-2.928
240.096,916.952,-64.172
266.204,963.312,-46.36
152.744,956.48,29.28
164.7,972.096,71.492
231.312,986.736,14.64
264.496,988.444,-8.296
242.048,946.964,8.784
237.412,968.68,1.708
197.152,941.352,21.96
237.9,978.44,-0.488
278.404,1030.168,6.588
202.52,974.78,12.2
207.156,933.056,15.128
214.232,912.804,31.72
181.536,877.424,33.672
250.1,973.804,24.156
306.22,1012.112,0.976
205.936,975.268,47.58
251.808,934.52,24.156
229.116,958.432,47.092
215.696,962.824,19.276
235.704,984.784,8.052
235.948,1008.94,-3.416
222.284,979.172,0.244
250.344,942.328,-5.856
213.5,939.644,54.9
252.296,965.02,47.092
268.644,1015.284,-5.124
230.58,1030.9,7.564
199.836,1022.848,-4.148
193.248,988.688,-17.08
204.96,975.512,-3.66
217.892,973.316,-25.62
202.764,974.78,-10.492
213.5,983.076,-15.616
203.496,998.204,-23.912
204.716,1006.988,-1.708
205.448,1013.088,5.124
223.992,1036.268,-12.444
260.836,1075.796,-39.04
215.452,1058.716,-10.98
194.712,1060.424,12.444
181.78,1047.492,26.352
221.552,1075.308,23.424
288.164,1131.184,-19.276
286.456,1126.304,-19.276
219.112,1117.276,21.716
166.896,1087.996,28.304
176.656,1090.68,19.276
224.236,1107.516,3.904
261.812,1125.572,5.124
218.136,1119.96,20.008
195.688,1120.692,15.372
179.096,1118.74,22.204
189.344,1140.944,4.148
191.784,1147.044,-4.636
190.32,1203.652,9.272
171.776,1235.616,-20.496
124.44,1199.26,-3.416
121.268,1178.764,11.224
135.664,1164.368,10.736
98.576,1053.104,10.98
91.988,1025.288,24.4
190.808,1093.12,-1.22
127.612,965.508,13.176
34.892,849.852,-21.716
88.328,774.456,-31.232
110.776,739.32,36.6
138.836,668.56,33.916
318.908,749.08,-100.772
292.312,782.508,-199.836
231.556,661.728,-177.144
172.996,657.824,96.868
167.14,587.796,137.128
236.436,518.012,90.036
314.516,486.048,83.692
267.424,404.552,94.184
422.608,308.416,-112.24
439.688,431.636,-295.728
359.168,631.228,-297.924
226.676,608.292,-164.7
493.612,466.04,-72.956
857.416,264.008,-28.792
971.608,108.58,26.84
948.428,117.608,-48.068
952.82,210.084,-56.12
1064.084,273.036,-13.176
1179.252,254.004,-51.972
1223.416,221.796,-109.312
1178.276,190.564,-121.024
1209.996,214.72,-90.768
1214.876,250.344,-67.588
1121.424,283.284,-58.072
1081.164,269.864,-72.712
1117.764,246.928,-91.5
1106.784,236.192,-80.52
1165.344,250.1,-62.22
1123.62,229.604,-34.16
1021.872,223.26,-28.548
1021.384,227.164,-78.324
1035.292,235.46,-64.904
1061.4,217.404,-71.248
1069.208,210.084,-56.608
991.616,184.464,-44.652
917.928,195.932,-44.652
878.4,206.18,-43.188
869.372,225.7,-61.244
850.584,231.556,-65.636
873.52,203.252,-68.808
823.744,148.108,-39.04
801.784,78.812,-13.664
782.752,95.404,17.324
727.364,104.432,-2.44
631.716,115.168,-42.212
663.68,135.908,-75.396
864.004,95.404,-77.348
1009.916,39.04,25.376
964.044,23.424,-0.244
839.848,41.968,-68.076
771.528,62.952,-114.192
950.38,87.596,-172.996
1170.956,37.576,-92.232
1215.12,-29.28,-111.264
1139.724,45.872,-157.868
1016.504,44.164,-200.568
1093.12,87.596,-199.104
1289.296,61.976,-151.768
1329.556,25.62,-128.588
1281.488,-3.904,-161.04
1184.864,23.668,-200.568
1159.732,51.972,-250.344
1213.412,69.54,-269.376
1355.908,64.416,-201.544
1337.852,9.76,-169.092
1194.868,-11.468,-168.116
1137.04,-9.76,-186.904
1130.208,7.076,-180.072
1190.964,36.6,-197.396
1213.168,35.38,-166.652
1127.28,-9.272,-165.432
1085.068,5.124,-160.796
1102.88,23.912,-145.424
1106.54,26.108,-135.908
1082.628,38.308,-112.24
1037.244,31.232,-107.36
1011.136,11.224,-113.704
1026.264,33.428,-138.104
1002.84,56.12,-167.628
939.644,81.496,-83.936
902.8,122.244,29.768
887.428,167.628,-70.76
1079.212,267.912,-199.836
1051.64,421.876,-270.84
1210.972,364.536,-135.908
1214.388,388.448,102.724
843.264,631.716,0.0
865.468,856.196,-144.936
907.192,727.608,-141.52
961.848,616.344,31.964
996.496,588.528,-21.716
879.132,718.336,-77.348
631.96,651.48,6.1
596.824,782.996,5.124
691.74,802.272,13.176
859.124,923.052,-91.744
562.176,1079.212,-78.812
215.208,866.2,23.18
125.416,926.956,85.888
270.108,974.048,68.32
108.092,737.612,58.072
148.352,818.376,101.748
192.272,946.72,-68.32
-21.472,934.276,-28.792
-97.112,897.92,-23.668
-117.608,911.584,-37.088
-106.628,936.716,-25.132
-91.256,892.308,3.904
-4.392,942.572,-60.268
0.488,950.624,-66.368
-89.792,918.172,-4.392
-136.64,891.82,-10.736
-68.564,934.52,-0.976
-6.588,1034.072,-45.14
-10.248,983.32,-6.344
30.012,940.132,-11.712
-5.612,953.308,15.128
-66.856,975.268,8.052
-2.44,1044.32,-26.108
-9.516,1039.928,7.564
-15.372,996.984,-9.272
-17.812,945.5,5.368
-3.66,970.388,10.248
-16.836,980.392,-29.524
-63.196,1003.328,-55.388
-55.876,1002.108,-31.476
-17.324,978.684,-27.572
-7.076,960.628,-0.244
-8.052,964.288,-14.152
-28.304,995.276,-31.476
-32.696,1000.888,-35.868
-13.664,1007.476,-29.524
-43.676,978.44,0.976
-26.596,962.092,-32.452
-37.82,993.324,-35.868
-16.104,1035.78,-69.296
-36.844,1018.7,-50.264
-22.936,1001.864,-32.94
-23.18,978.684,-12.2
-31.476,995.764,-31.476
-37.088,1011.624,-46.848
-36.844,1004.792,-45.14
-33.184,982.344,-25.376
-27.572,960.872,-28.792
-29.524,978.196,-30.744
-27.084,999.18,-33.916
-37.332,1005.28,-32.94
-41.968,991.616,-41.724
-45.628,972.096,-39.772
-31.476,996.008,-37.82
-27.572,1001.132,-30.256
-42.944,979.904,-33.428
-39.284,994.544,-32.94
-54.412,985.516,-31.964
-22.204,1013.576,-56.852
-53.68,984.784,-25.132
-32.452,978.684,-19.032
-42.944,964.532,-24.888
-39.04,993.812,-37.332
-38.308,1006.5,-41.48
-31.476,1012.356,-48.068
-43.676,989.42,-15.372
-40.016,978.928,-23.424
-47.092,971.608,-15.128
-28.548,987.956,-24.888
-40.26,1006.988,-30.256
-43.432,1009.916,-29.28
-53.924,1006.744,-27.816
-44.896,1007.964,-23.668
-46.604,1019.432,-26.108
-42.7,1027.728,-17.568
-57.584,1038.952,-40.504
-47.58,1045.296,-41.724
-14.64,1065.06,-28.304
-34.404,1078.48,-12.444
-77.836,1098.976,-21.228
-74.908,1068.476,-39.284
-84.424,1048.224,-22.936
-35.868,1062.62,-23.912
-35.136,1036.268,-25.62
-24.156,995.764,-42.944
-18.3,999.424,-29.28
-12.688,1011.38,-19.276
0.976,1042.368,-10.98
2.928,1040.904,-32.696
-17.568,992.348,-8.54
-21.96,977.22,-9.516
-39.772,972.096,0.0
-10.004,1038.952,-18.3
-0.488,1077.504,-34.892
-83.692,1088.972,-14.152
-149.084,1146.312,-30.012
-116.388,1241.716,-71.492
-173.728,1272.948,-56.852
-145.912,1339.804,-97.356
-117.12,1391.776,-49.776
-131.516,1233.908,9.272
-164.456,1172.664,22.448
-44.408,1163.392,27.816
204.472,1050.664,-95.892
247.416,1053.104,16.592
220.088,934.276,17.08
81.008,773.968,-16.592
135.176,679.296,-58.316
632.936,988.2,-162.016
691.008,983.564,-220.088
178.364,765.672,-96.136
111.264,539.484,-99.308
157.136,494.344,86.376
494.344,524.356,61.0
710.772,564.616,-134.688
591.456,461.648,-140.788
336.476,413.092,-55.876
282.796,450.912,38.308
590.724,447.252,1.708
838.872,335.5,-25.376
948.428,214.476,-40.504
885.964,244.0,-63.196
720.532,253.516,-31.72
843.508,303.048,36.112
982.1,334.036,50.996
1030.656,322.08,25.376
1074.332,282.552,-50.02
962.092,201.3,-86.132
880.84,251.564,-32.94
945.012,335.256,-48.312
955.992,329.644,-32.452
943.304,295.484,-52.704
923.54,292.556,-67.588
886.696,325.008,-50.508
842.044,336.476,-18.544
828.868,310.368,-27.328
820.572,266.448,-45.628
880.84,285.724,-41.236
915.976,254.98,-29.524
875.472,255.956,-11.712
837.164,234.484,-66.124
826.672,273.28,-78.08
840.092,235.46,-84.912
865.712,214.964,-43.188
862.784,199.348,-26.84
840.092,183.244,-18.788
782.264,121.268,-12.932
695.156,104.188,-4.148
761.036,101.504,-81.008
871.08,116.144,-62.708
985.272,84.912,-26.352
1007.964,78.812,15.128
906.948,97.356,-36.6
904.508,125.172,-87.596
962.092,103.212,-76.616
1146.8,46.604,-70.516
1290.76,109.8,-40.016
1231.224,131.028,-96.136
1146.068,137.372,-142.74
1268.068,205.692,-185.196
1310.28,184.464,-151.768
1248.548,124.44,-194.956
1212.68,94.916,-217.16
1199.504,77.836,-170.8
1301.74,105.164,-126.636
1369.328,117.608,-99.308
1291.736,74.908,-110.044
1215.364,38.064,-144.692
1209.508,56.852,-137.616
1236.836,101.748,-134.444
1249.768,115.168,-128.1
1201.212,86.864,-130.296
1126.304,47.092,-132.736
1108.492,41.724,-114.68
1125.816,61.976,-95.892
1092.388,60.024,-92.72
1049.2,61.244,-120.048
1025.532,91.5,-146.156
1033.096,99.064,-125.904
1052.128,110.288,-116.388
1081.896,90.524,-132.492
998.448,71.492,-132.98
955.992,100.772,-133.712
937.936,87.596,-100.772
1034.316,105.896,-112.728
1153.388,189.1,-111.508
1160.22,257.176,-104.92
1096.292,244.244,-125.172
1002.108,216.184,-115.412
1067.256,232.288,-134.932
1032.364,239.608,-98.82
1031.388,284.504,-97.6
1053.592,407.968,-79.788
980.88,395.768,-75.396
975.756,488.488,57.34
1065.06,458.964,-23.18
1053.348,519.232,-133.956
707.6,451.644,-132.736
591.212,490.928,-25.864
743.956,619.272,94.428
927.2,832.772,55.632
652.212,701.012,171.288
594.628,679.54,234.484
498.004,935.74,257.664
351.116,1108.98,239.608
298.9,1032.12,26.596
288.896,847.168,-15.86
245.464,866.688,149.572
254.492,943.06,46.604
261.568,941.352,96.868
248.148,918.904,40.504
244.732,962.824,20.496
149.084,933.788,152.256
188.368,944.28,112.24
194.712,948.672,79.544
141.52,932.08,55.144
109.556,944.768,14.152
82.228,952.576,70.516
114.68,914.268,-0.732
176.412,926.712,-22.204
127.612,965.02,-69.296
43.676,972.584,-65.392
43.188,968.924,-42.212
77.836,1009.672,-35.38
48.556,963.8,20.496
48.312,959.164,9.516
65.636,958.432,-11.712
51.484,962.824,-17.568
25.132,950.136,-15.128
70.272,978.928,-34.16
32.696,973.072,-18.544
23.912,1006.744,-16.592
84.18,1021.14,-52.216
39.04,995.52,4.148
39.772,933.544,23.668
37.82,956.48,5.612
69.052,986.492,-10.736
67.588,1003.816,-5.856
60.756,1008.696,-11.956
60.024,994.788,-9.028
13.176,975.512,10.492
76.128,1028.948,-25.62
46.116,1000.4,-7.808
58.56,1016.016,-48.312
29.768,1013.82,-22.448
7.076,983.076,-12.444
56.364,997.96,-18.788
35.136,1009.184,-26.108
38.552,1015.772,-25.132
24.4,987.468,-1.464
26.84,970.632,-10.736
38.064,984.784,-18.056
58.316,1044.32,-38.796
18.544,1010.16,-19.032
21.716,1010.404,-28.548
23.912,991.372,-5.368
28.06,1005.036,-10.736
29.524,986.736,-3.416
30.012,981.612,-11.468
21.228,967.46,-11.224
23.424,963.312,-18.788
38.308,992.348,-29.768
13.42,1000.644,-16.592
6.588,999.912,-9.516
11.712,981.124,-6.344
19.764,947.208,2.44
26.108,967.948,-7.564
23.18,985.028,-6.1
13.664,984.296,-5.612
-4.392,977.22,3.172
12.688,961.604,-3.66
5.856,981.856,2.44
13.664,1021.384,-27.816
13.908,1019.676,-19.276
4.636,1008.94,-18.544
4.148,989.42,-14.64
16.104,981.368,-8.052
5.856,1011.38,-18.788
5.612,1034.804,-29.036
3.416,1049.444,-21.716
-2.928,1058.228,-14.152
0.976,1067.988,-13.908
-15.372,1077.748,-5.368
-20.252,1098.0,-21.228
-9.272,1129.72,-30.256
-39.284,1112.884,-25.132
-31.476,1108.492,-9.272
-50.752,1122.644,1.22
-54.412,1193.892,-24.888
-71.492,1267.336,14.64
-35.624,1274.412,4.88
-78.324,1219.512,28.304
-99.796,1132.16,10.492
-70.272,1133.868,-17.568
-69.296,1199.016,-26.108
-55.144,1210.728,-19.276
-98.088,1232.444,15.86
-99.064,1156.316,55.876
-20.984,1086.044,43.676
152.744,1181.448,15.128
261.08,1112.396,11.224
19.032,1068.476,72.468
-137.372,978.196,37.576
-1.708,931.592,28.304
265.716,1019.92,13.176
330.376,1023.824,17.324
310.368,1013.82,-9.516
129.808,926.956,-35.868
24.888,774.944,-36.112
107.848,751.52,66.368
240.828,773.968,66.124
453.84,846.68,3.904
564.128,727.364,-64.172
358.192,738.1,-105.164
271.328,807.64,-138.104
-61.244,771.04,-78.568
113.704,534.604,59.78
-31.476,353.312,312.808
182.512,468.236,-28.548
434.808,555.832,-50.264
321.592,526.552,94.184
370.636,491.66,121.512
615.124,481.412,77.836
689.788,414.312,-19.764
506.3,386.984,-43.676
507.764,436.76,6.1
734.684,446.52,47.092
939.644,402.356,21.228
998.692,334.28,26.352
945.744,290.116,9.76
925.98,310.124,-0.976
924.516,383.324,20.252
967.948,396.012,8.784
1101.172,390.888,0.0
1124.352,312.076,2.44
1068.964,298.168,-32.94
986.248,258.884,-54.656
957.212,297.68,18.056
952.332,294.264,36.112
854.732,249.368,13.908
809.836,224.724,2.196
817.4,200.08,-59.536
688.08,171.044,-35.868
714.92,128.588,-31.476
819.596,59.536,3.66
765.916,23.912,37.576
720.532,42.456,-16.348
711.26,85.156,-96.38
814.472,60.512,4.636
1096.292,-1.22,61.488
1291.492,-41.968,21.472
1173.64,-80.764,-62.464
1027.972,-14.396,-147.132
1184.132,41.724,-133.468
1522.804,35.624,-65.88
1605.764,4.88,3.172
1449.116,4.392,-44.652
1246.352,47.58,-134.2
1162.904,55.144,-130.784
1213.9,50.752,-90.768
1318.332,-4.636,-55.388
1339.316,-48.312,-68.564
1252.696,-56.852,-135.42
1180.228,-12.688,-169.336
1151.192,20.984,-156.404
1140.456,53.192,-117.12
1155.34,55.632,7.076
1140.456,16.348,-74.42
1153.144,-6.588,-101.504
1008.452,19.764,-192.028
958.188,78.08,-90.28
1022.848,61.488,26.84
1085.8,78.324,87.108
1159.976,87.352,56.364
1049.932,174.46,14.884
925.248,127.124,-19.032
799.588,124.928,-8.54
822.524,208.864,47.092
938.18,226.432,-32.696
1080.432,532.896,-8.296
1107.028,519.232,-24.156
940.132,416.264,-21.472
755.18,455.304,-29.768
618.052,445.056,48.068
760.06,624.152,-21.716
815.692,684.664,-192.516
1456.68,747.372,-174.46
560.712,868.152,160.308
456.768,886.696,52.704
577.06,1041.88,-25.62
405.772,1041.392,37.332
516.548,924.028,-62.22
600.484,942.572,-134.688
96.38,952.332,22.448
177.876,983.564,-60.268
225.944,1057.74,-85.4
174.704,969.412,-74.908
131.272,1000.4,-45.872
127.124,1032.364,-122.244
285.48,1062.132,-227.408
156.16,1056.276,-133.712
47.824,1024.8,-61.0
90.28,1032.852,-73.444
108.336,1029.436,-101.748
119.56,947.94,-76.128
101.748,892.064,-19.276
133.224,899.872,-37.332
99.308,992.592,-75.64
77.592,1064.572,-118.34
45.384,1033.828,-111.752
40.504,946.476,-56.364
101.016,921.1,-72.956
41.48,889.868,-29.28
77.104,997.96,-107.604
58.56,1002.108,-115.9
44.896,1029.436,-103.212
50.02,974.536,-74.42
23.912,969.412,-51.728
59.78,956.236,-84.18
65.88,992.592,-65.392
16.836,1043.588,-152.5
9.76,983.808,-99.064
20.008,971.12,-70.76
6.832,939.644,-79.056
-8.784,941.108,-65.88
6.1,979.66,-85.644
9.516,1011.136,-91.012
16.348,965.996,-88.328
0.976,948.184,-88.084
0.976,930.128,-69.296
39.528,979.904,-65.392
22.448,1000.156,-77.592
-13.42,977.708,-67.588
4.392,1012.356,-103.944
35.868,976.488,-113.948
-13.908,978.928,-63.196
5.368,997.228,-97.6
9.76,971.608,-75.884
-0.244,974.78,-77.104
-8.54,952.576,-86.376
-14.64,960.14,-110.776
10.492,974.048,-106.14
3.904,1002.108,-112.24
-3.904,1006.5,-115.656
-22.204,995.032,-112.484
-14.884,993.568,-69.052
-3.904,981.612,-72.956
13.42,996.008,-75.396
-5.856,1016.26,-78.568
13.664,1013.088,-64.416
8.296,999.912,-55.876
15.86,990.884,-49.288
12.688,995.276,-58.072
18.788,1000.644,-70.272
-3.66,980.148,-67.1
-5.612,957.456,-69.296
-0.488,965.264,-71.492
4.148,987.956,-78.324
4.148,1024.556,-101.748
-21.96,1004.548,-91.256
-6.832,1000.156,-65.148
-9.028,986.736,-65.636
-5.124,1001.62,-62.708
2.928,1010.16,-89.548
-0.732,1014.796,-72.468
-2.196,1001.62,-79.544
-1.952,991.372,-65.148
3.904,995.52,-67.588
-2.928,1014.552,-60.512
-8.54,1027.484,-63.196
-3.172,1050.42,-66.856
-17.568,1044.808,-65.88
-32.452,1037.244,-68.32
-36.356,1042.612,-74.42
-37.332,1036.756,-70.028
-34.892,1041.88,-66.856
-33.672,1045.052,-59.048
-28.548,1050.664,-49.776
-43.188,1042.368,-59.536
-66.856,1031.144,-64.66
-60.512,1026.508,-69.296
-69.052,1026.02,-69.54
-80.032,1028.46,-51.728
-64.904,1033.828,-53.68
-71.248,1035.78,-69.784
-91.744,1039.196,-50.752
-109.068,1054.324,-39.04
-116.388,1081.408,-30.5
-138.104,1135.088,-15.86
-139.812,1218.536,-34.404
-177.388,1260.748,-30.012
-205.936,1256.6,-55.632
-272.792,1216.584,-78.568
-246.684,1175.104,-79.544
-140.544,1242.936,-57.096
-74.664,1261.968,-65.636
-29.768,1255.868,-108.58
3.904,1238.544,-103.456
39.528,1114.836,-56.608
-29.28,1059.692,49.044
-31.72,1082.628,32.696
62.464,944.036,32.208
150.792,898.896,37.088
145.912,807.64,61.732
204.472,794.464,85.156
367.708,902.8,45.384
241.56,838.628,25.62
131.272,822.524,40.016
113.704,739.076,-10.004
174.704,657.824,-36.112
258.396,660.264,8.54
395.524,780.556,-50.508
305.244,713.7,-91.012
257.176,745.176,4.148
255.224,615.856,-5.612
84.18,529.48,55.388
272.06,555.344,54.412
499.956,527.528,-76.128
540.704,658.312,-9.76
533.14,682.468,-50.508
301.34,622.444,-84.912
153.964,556.32,-105.408
305.732,499.468,-176.9
574.376,505.08,-200.08
731.756,461.404,-85.644
827.16,427.976,14.152
961.36,373.564,43.432
990.152,367.708,23.912
935.008,394.06,19.764
895.236,402.6,-3.66
928.664,410.652,24.644
1103.856,439.688,66.368
1163.148,460.184,30.5
1058.716,453.596,28.792
1011.136,442.372,-6.588
996.008,432.856,26.108
991.372,436.76,22.204
971.364,422.852,33.428
883.28,376.492,14.884
758.108,352.58,4.88
676.856,283.04,-15.128
628.544,238.144,-18.3
572.912,165.432,3.904
591.212,84.912,46.604
594.14,5.612,122.488
584.868,-60.756,116.876
497.272,-106.14,101.504
528.748,-114.192,53.924
790.072,-5.368,-8.296
1028.216,108.58,-62.952
1135.82,119.56,-111.02
1216.096,95.16,-118.828
1255.136,126.636,-119.072
1263.92,108.092,-105.896
1369.328,132.248,-98.088
1514.508,190.808,-102.968
1475.712,176.9,-113.216
1347.856,138.836,-88.816
1325.652,119.072,-50.264
1400.56,142.008,-28.548
1380.308,123.22,-47.824
1278.56,98.088,-85.4
1256.6,85.888,-109.312
1312.72,81.252,-80.032
1345.904,58.316,-55.876
1284.904,34.892,-61.732
1183.156,32.94,-73.932
1147.532,5.368,-101.016
1161.684,15.372,-89.792
1187.06,29.768,-77.836
1171.932,54.412,-64.904
1110.2,19.52,-70.76
1066.768,9.272,-70.76
1083.116,8.54,-44.652
1110.2,5.856,-18.3
1119.472,49.044,21.716
1148.752,106.872,5.856
1080.92,111.02,20.984
997.472,82.472,91.012
965.508,133.468,33.672
946.72,169.336,-15.372
1029.192,230.824,-45.628
1023.092,252.296,49.776
1090.68,403.088,86.864
1027.24,471.896,3.66
885.476,461.16,-8.296
915.0,578.768,-24.156
1001.864,633.18,96.136
848.388,719.312,172.752
788.364,744.932,142.496
886.452,766.404,62.464
840.58,855.464,122.976
495.564,844.24,260.836
357.216,857.904,172.264
423.34,823.744,31.476
184.952,858.636,106.384
204.716,930.616,141.032
170.8,930.86,4.88
71.736,863.76,11.468
-51.484,879.132,20.984
-17.08,891.82,-37.82
-61.732,904.02,-36.6
-86.62,921.588,-45.14
-108.092,902.556,-39.772
-112.484,915.0,-5.612
-107.604,945.256,-28.548
-127.124,953.796,-40.504
-173.24,935.496,10.248
-155.672,915.976,12.2
-122.0,935.008,12.932
-85.888,976.732,10.492
-49.532,995.52,-24.644
-89.792,981.856,-4.88
-105.896,967.704,26.352
-76.86,955.504,22.204
-42.944,1033.828,37.576
-49.288,1006.744,-18.3
-67.344,984.296,30.744
-25.376,1026.264,21.96
-24.156,998.448,14.884
-73.688,936.472,47.824
-35.38,986.004,32.208
-21.716,977.464,-24.156
-72.712,985.272,2.684
-80.032,960.384,-25.62
-64.416,953.552,-31.964
-39.284,977.708,-33.184
-34.892,999.668,-33.672
-42.212,1012.6,-42.212
-42.456,991.128,-2.44
-47.824,977.464,5.368
-46.36,945.744,2.928
-9.516,987.224,3.904
4.636,1033.584,-1.708
-17.08,1005.768,10.492
-23.424,1005.28,2.928
-14.152,989.664,12.932
-24.4,1026.264,0.0
-11.956,1013.576,-30.744
-9.028,1027.484,-7.564
-30.5,972.34,6.832
-32.208,989.176,0.732
-37.82,996.252,-21.472
-30.744,1033.34,2.196
-36.112,1016.504,0.732
-27.328,999.424,10.492
-20.008,981.124,14.152
-26.108,982.344,27.816
-43.676,966.24,10.492
-21.96,986.492,8.784
-21.228,978.928,25.62
-31.964,970.144,28.304
-23.424,966.972,24.888
-11.956,989.908,25.132
-15.616,1004.548,16.836
-21.96,987.712,10.736
-14.152,978.196,34.16
-7.32,997.472,26.84
-30.988,999.18,21.472
-41.724,996.252,22.204
-29.524,980.392,20.252
-19.276,965.264,28.06
-18.788,969.656,24.888
-19.52,1006.5,6.1
-28.304,1012.6,5.612
-34.404,990.396,18.056
-22.692,981.612,25.132
-26.596,996.008,29.036
-33.428,981.124,13.908
-20.496,989.42,27.816
-17.812,995.52,13.176
-26.352,972.096,15.372
-1.952,1029.68,4.88
-16.592,1029.68,20.496
-45.384,993.568,16.348
-54.168,985.272,15.86
-31.232,977.22,14.396
-40.016,965.02,19.52
-21.472,996.496,4.636
-32.94,974.292,14.884
-21.228,993.568,10.004
-41.236,987.956,15.372
-42.212,965.508,18.3
-33.672,992.592,27.328
-34.16,988.444,-12.932
-33.916,994.3,15.86
-29.524,997.228,6.344
-35.868,978.44,12.2
-16.348,1001.62,1.22
-39.04,976.244,-9.76
-35.868,991.372,11.956
-36.356,985.028,6.588
-32.94,982.1,8.54
-19.032,995.032,5.124
-17.568,1003.328,29.768
-16.836,993.812,19.764
-31.232,977.22,36.6
-30.256,970.876,35.868
-6.832,996.496,12.444
-25.132,988.688,9.516
-19.764,998.204,11.712
-50.508,986.492,2.44
-45.384,980.636,4.636
-22.692,1000.888,11.956
-47.824,979.904,6.588
-39.772,987.468,5.856
